[{"rt":28729.5,"stimulus":"<h1 style=\"color:red; margin-top: 3%;\">¡Bienvenido(a)!</h1><p style=\"text-align:left; justify-content:space-between; margin-right: 5%; margin-left: 5%; margin-top: 5%\"> Antes de empezar el estudio, necesitamos que nos confirmes que estás de acuerdo con participar. Recuerda que tu participación es 100% voluntaria y que lo único que te pedimos es responder lo mejor que puedas. Recuerda también que el estudio incluye:</p><ol style=\"text-align:left; justify-content:space-between; margin-right: 5%; margin-left: 5%;\"><li> un ejercicio de resolución de preguntas de selección múltiple (30’),</li><li>un cuestionario breve (5’),</li><li>un juego muy breve (3’),</li></ol><p style=\"text-align:left; justify-content:space-between; margin-right: 5%; margin-left: 5%;\">Si quieres participar, haz clic en “Acepto” luego de leer lo siguiente:<br></p><p style=\"text-align:left; justify-content:space-between; margin-right: 5%; margin-left: 5%;\">Acepto participar en el estudio “Estrategias de lectura y resolución de preguntas de selección múltiple”, en los términos aquí señalados:<br></p><p style=\"text-align:left; justify-content:space-between; margin-right: 5%; margin-left: 5%;\"><a href=\"http://ciae.uchile.cl/download.php?file=noticias/Asentimiento.pdf\" target=\"_blank\">Link a la hoja de información del Consentimiento.</a></p><p style=\"text-align:left; justify-content:space-between; margin-right: 5%; margin-left: 5%;\">Declaro que he leído (o se me ha leído) y (he) comprendido, las condiciones de mi participación en este estudio. He tenido la oportunidad de hacer preguntas y éstas han sido respondidas. No tengo dudas al respecto.</p>","response":0,"condicion_MCQ":4,"condicion_JUEGO":84,"condicion_INTER":12,"numero_participante":84,"numero_version":1,"dimx":1366,"dimy":768,"color_profundidad":24,"pixel_profundidad":24,"Browser":"Google Chrome","dia":23,"mes":5,"hora":15,"minuto":24,"segundo":33,"trial_type":"html-button-response","trial_index":0,"time_elapsed":28735,"internal_node_id":"0.0-0.0"},{"success":true,"trial_type":"fullscreen","trial_index":1,"time_elapsed":98367,"internal_node_id":"0.0-1.0"},{"rt":288387.40000009537,"responses":"{\"Nombres\":\"Angelie Antonia \",\"Apellidos\":\"Maluenda Maluenda \",\"Edad\":\"18\",\"Sexo\":\"mujer \",\"Curso\":\"tópicos de neurobiología \",\"Colegio\":\"Universidad Andrés Bello \",\"Contacto\":\"a.maluendamaluenda@gmail.com \"}","trial_type":"survey-text","trial_index":2,"time_elapsed":386775,"internal_node_id":"0.0-2.0"},{"success":true,"timeout":false,"failed_images":[],"failed_audio":[],"failed_video":[],"trial_type":"preload","trial_index":3,"time_elapsed":396512,"internal_node_id":"0.0-3.0"},{"rt":42374.90000009537,"stimulus":"<h1 style:\"margin-top: 5%;\">Ejercicios de Comprensión de Lectura de la Universidad de Chile</h1><p style=\"font-size: 120%;\">En esta actividad, debes responder 20 preguntas de selección múltiple. Cada pregunta presenta 5 respuestas alternativas, pero sólo una de ellas es correcta. Por lo tanto, debes escoger una sola alternativa para cada pregunta. Además, debes reportar qué tan seguro(a) estás de la respuesta que das, con un:</p><ol style=\"font-size: 120%;text-align:left;margin-left: 40%;\"><li>No estoy seguro(a) para nada</li><li>No estoy muy seguro(a)</li><li>Estoy bastante seguro(a)</li><li>Estoy totalmente seguro(a)</li></ol><p style=\"font-size: 120%;\">Por favor lee bien los enunciados antes de responder. ¡Éxito!</p>","response":0,"trial_type":"html-button-response","trial_index":4,"time_elapsed":438889,"internal_node_id":"0.0-4.0"},{"rt":286834.7999999523,"responses":"{\"pregunta5\":\"a) La conducta de un hombre en un asilo es idéntica a la de un hombre en un campo de concentración.\"}","question_order":"[0]","trial_type":"survey-multi-choice","trial_index":5,"time_elapsed":725728,"internal_node_id":"0.0-5.0-0.0"},{"rt":14212.200000047684,"response":{"pregunta5 likert":2},"question_order":[0],"trial_type":"survey-likert","trial_index":6,"time_elapsed":739944,"internal_node_id":"0.0-5.0-1.0"},{"rt":110437.30000007153,"responses":"{\"pregunta10\":\"d) Al premio merecido después de tantos esfuerzos.\"}","question_order":"[0]","trial_type":"survey-multi-choice","trial_index":7,"time_elapsed":850384,"internal_node_id":"0.0-5.0-2.0"},{"rt":4098.900000095367,"response":{"pregunta10 likert":3},"question_order":[0],"trial_type":"survey-likert","trial_index":8,"time_elapsed":854486,"internal_node_id":"0.0-5.0-3.0"},{"rt":113890,"responses":"{\"pregunta6\":\"a) un recuerdo nostálgico.\"}","question_order":"[0]","trial_type":"survey-multi-choice","trial_index":9,"time_elapsed":968379,"internal_node_id":"0.0-5.0-4.0"},{"rt":3996.399999976158,"response":{"pregunta6 likert":2},"question_order":[0],"trial_type":"survey-likert","trial_index":10,"time_elapsed":972379,"internal_node_id":"0.0-5.0-5.0"},{"rt":159173.19999992847,"responses":"{\"pregunta18\":\"b) El derecho a informar y el derecho a la privacidad son inconciliables.\"}","question_order":"[0]","trial_type":"survey-multi-choice","trial_index":11,"time_elapsed":1131555,"internal_node_id":"0.0-5.0-6.0"},{"rt":4003.2000000476837,"response":{"pregunta18 likert":2},"question_order":[0],"trial_type":"survey-likert","trial_index":12,"time_elapsed":1135562,"internal_node_id":"0.0-5.0-7.0"},{"rt":368104.5,"responses":"{\"pregunta19\":\"a) el jardinero estará muerto al día siguiente.\"}","question_order":"[0]","trial_type":"survey-multi-choice","trial_index":13,"time_elapsed":1503670,"internal_node_id":"0.0-5.0-8.0"},{"rt":3261.5,"response":{"pregunta19 likert":2},"question_order":[0],"trial_type":"survey-likert","trial_index":14,"time_elapsed":1506934,"internal_node_id":"0.0-5.0-9.0"},{"rt":52047.299999952316,"responses":"{\"pregunta13\":\"d) Bomberos debería tener acceso a un seguro médico, al que pueda recurrir en caso de accidente.\"}","question_order":"[0]","trial_type":"survey-multi-choice","trial_index":15,"time_elapsed":1558985,"internal_node_id":"0.0-5.0-10.0"},{"rt":4461.5,"response":{"pregunta13 likert":3},"question_order":[0],"trial_type":"survey-likert","trial_index":16,"time_elapsed":1563450,"internal_node_id":"0.0-5.0-11.0"},{"rt":221314.80000007153,"responses":"{\"pregunta7\":\"c) ritualistas y obsesivos.\"}","question_order":"[0]","trial_type":"survey-multi-choice","trial_index":17,"time_elapsed":1784767,"internal_node_id":"0.0-5.0-12.0"},{"rt":4197.699999928474,"response":{"pregunta7 likert":3},"question_order":[0],"trial_type":"survey-likert","trial_index":18,"time_elapsed":1788967,"internal_node_id":"0.0-5.0-13.0"},{"rt":90728.5,"responses":"{\"pregunta4\":\"b) Promover la asistencia a un evento específico de decoración a través de una atractiva descripción.\"}","question_order":"[0]","trial_type":"survey-multi-choice","trial_index":19,"time_elapsed":1879698,"internal_node_id":"0.0-5.0-14.0"},{"rt":3299.7000000476837,"response":{"pregunta4 likert":2},"question_order":[0],"trial_type":"survey-likert","trial_index":20,"time_elapsed":1883000,"internal_node_id":"0.0-5.0-15.0"},{"rt":80088,"responses":"{\"pregunta14\":\"b) A la negligencia de la empresa que los traía a Chile.\"}","question_order":"[0]","trial_type":"survey-multi-choice","trial_index":21,"time_elapsed":1963092,"internal_node_id":"0.0-5.0-16.0"},{"rt":9943.100000023842,"response":{"pregunta14 likert":2},"question_order":[0],"trial_type":"survey-likert","trial_index":22,"time_elapsed":1973038,"internal_node_id":"0.0-5.0-17.0"},{"rt":554353.7000000477,"responses":"{\"pregunta12\":\"c) la creación de elementos químicos artificiales ha resultado de la manipulación del uranio.\"}","question_order":"[0]","trial_type":"survey-multi-choice","trial_index":23,"time_elapsed":2527395,"internal_node_id":"0.0-5.0-18.0"},{"rt":3872.7999999523163,"response":{"pregunta12 likert":1},"question_order":[0],"trial_type":"survey-likert","trial_index":24,"time_elapsed":2531271,"internal_node_id":"0.0-5.0-19.0"},{"rt":215736.60000002384,"responses":"{\"pregunta1\":\"a) Aportan informaciones con las que se reconstruye el personaje dentro de un relato.\"}","question_order":"[0]","trial_type":"survey-multi-choice","trial_index":25,"time_elapsed":2747010,"internal_node_id":"0.0-5.0-20.0"},{"rt":3288.9000000953674,"response":{"pregunta1 likert":2},"question_order":[0],"trial_type":"survey-likert","trial_index":26,"time_elapsed":2750303,"internal_node_id":"0.0-5.0-21.0"},{"rt":134468.10000002384,"responses":"{\"pregunta3\":\"c) La escritura plasma los mejores momentos de los viajes.\"}","question_order":"[0]","trial_type":"survey-multi-choice","trial_index":27,"time_elapsed":2884774,"internal_node_id":"0.0-5.0-22.0"},{"rt":3650.7000000476837,"response":{"pregunta3 likert":2},"question_order":[0],"trial_type":"survey-likert","trial_index":28,"time_elapsed":2888428,"internal_node_id":"0.0-5.0-23.0"},{"rt":73033.89999997616,"responses":"{\"pregunta2\":\"a) A la relación entre sociedad y constitución social.\"}","question_order":"[0]","trial_type":"survey-multi-choice","trial_index":29,"time_elapsed":2961465,"internal_node_id":"0.0-5.0-24.0"},{"rt":3437.899999976158,"response":{"pregunta2 likert":3},"question_order":[0],"trial_type":"survey-likert","trial_index":30,"time_elapsed":2964906,"internal_node_id":"0.0-5.0-25.0"},{"rt":133349.70000004768,"responses":"{\"pregunta15\":\"e) El receptor es habitualmente pasivo frente a la publicidad.\"}","question_order":"[0]","trial_type":"survey-multi-choice","trial_index":31,"time_elapsed":3098259,"internal_node_id":"0.0-5.0-26.0"},{"rt":5145,"response":{"pregunta15 likert":1},"question_order":[0],"trial_type":"survey-likert","trial_index":32,"time_elapsed":3103406,"internal_node_id":"0.0-5.0-27.0"},{"rt":140623.10000002384,"responses":"{\"pregunta11\":\"b) la muerte de Wu Ti fue una bendición.\"}","question_order":"[0]","trial_type":"survey-multi-choice","trial_index":33,"time_elapsed":3244031,"internal_node_id":"0.0-5.0-28.0"},{"rt":34356,"response":{"pregunta11 likert":0},"question_order":[0],"trial_type":"survey-likert","trial_index":34,"time_elapsed":3278389,"internal_node_id":"0.0-5.0-29.0"},{"rt":206056.29999995232,"responses":"{\"pregunta9\":\"e) Atraer a los turistas.\"}","question_order":"[0]","trial_type":"survey-multi-choice","trial_index":35,"time_elapsed":3484448,"internal_node_id":"0.0-5.0-30.0"},{"rt":5331.100000023842,"response":{"pregunta9 likert":2},"question_order":[0],"trial_type":"survey-likert","trial_index":36,"time_elapsed":3489783,"internal_node_id":"0.0-5.0-31.0"},{"rt":394893.40000009537,"responses":"{\"pregunta20\":\"a) para el mexicano, la muerte es cotidiana.\"}","question_order":"[0]","trial_type":"survey-multi-choice","trial_index":37,"time_elapsed":3884679,"internal_node_id":"0.0-5.0-32.0"},{"rt":4522.5,"response":{"pregunta20 likert":2},"question_order":[0],"trial_type":"survey-likert","trial_index":38,"time_elapsed":3889204,"internal_node_id":"0.0-5.0-33.0"},{"rt":181341.90000009537,"responses":"{\"pregunta8\":\"d) Deleitar a sus receptores por medio de la belleza y el confort.\"}","question_order":"[0]","trial_type":"survey-multi-choice","trial_index":39,"time_elapsed":4070550,"internal_node_id":"0.0-5.0-34.0"},{"rt":4733.399999976158,"response":{"pregunta8 likert":2},"question_order":[0],"trial_type":"survey-likert","trial_index":40,"time_elapsed":4075286,"internal_node_id":"0.0-5.0-35.0"},{"rt":196130.60000002384,"responses":"{\"pregunta16\":\"c) llevan un control grupal de su embarazo.\"}","question_order":"[0]","trial_type":"survey-multi-choice","trial_index":41,"time_elapsed":4271418,"internal_node_id":"0.0-5.0-36.0"},{"rt":5639.399999976158,"response":{"pregunta16 likert":2},"question_order":[0],"trial_type":"survey-likert","trial_index":42,"time_elapsed":4277061,"internal_node_id":"0.0-5.0-37.0"},{"rt":115223.29999995232,"responses":"{\"pregunta17\":\"a) El futuro de la economía chilena es incierto.\"}","question_order":"[0]","trial_type":"survey-multi-choice","trial_index":43,"time_elapsed":4392287,"internal_node_id":"0.0-5.0-38.0"},{"rt":5093.300000071526,"response":{"pregunta17 likert":2},"question_order":[0],"trial_type":"survey-likert","trial_index":44,"time_elapsed":4397383,"internal_node_id":"0.0-5.0-39.0"},{"rt":2207.600000023842,"stimulus":"<p style=\"font-size: 120%\">Gracias por completar esta etapa del estudio. Ahora te invitamos a responder el cuestionario.<br><br></p>","response":0,"trial_type":"html-button-response","trial_index":45,"time_elapsed":4399598,"internal_node_id":"0.0-6.0"},{"rt":29587,"stimulus":"<h1 style=\"margin-top: 5%\">Cuestionario para la Evaluación de Metas Académicas</h1><p style=\"font-size: 120%; margin-left: 3%; margin-top: 5%\">Este es un cuestionario que permite conocer cuáles son los principales motivos por los que los estudiantes se esfuerzan en su trabajo académico. A continuación, se te presentarán una serie de afirmaciones acerca de los motivos que puedes tener para estudiar.<br>Te pedimos que contestes a dichas afirmaciones reflexionando sobre el contenido de cada una de ellas, que, aunque te parezcan semejantes, en realidad, no lo son.<br>NO HAY RESPUESTAS CORRECTAS o INCORRECTAS, sólo queremos que respondas con la mayor precisión y sinceridad posible a las preguntas que se plantean.","response":0,"trial_type":"html-button-response","trial_index":46,"time_elapsed":4429187,"internal_node_id":"0.0-7.0"},{"rt":127797.30000007153,"response":{"Metas cuestionario pregunta1":3,"Metas cuestionario pregunta2":4,"Metas cuestionario pregunta3":4,"Metas cuestionario pregunta4":2,"Metas cuestionario pregunta5":4,"Metas cuestionario pregunta6":4,"Metas cuestionario pregunta7":4,"Metas cuestionario pregunta8":4,"Metas cuestionario pregunta9":2,"Metas cuestionario pregunta10":0,"Metas cuestionario pregunta11":0,"Metas cuestionario pregunta12":0,"Metas cuestionario pregunta13":0,"Metas cuestionario pregunta14":0,"Metas cuestionario pregunta15":4,"Metas cuestionario pregunta16":4,"Metas cuestionario pregunta17":4,"Metas cuestionario pregunta18":4,"Metas cuestionario pregunta19":4,"Metas cuestionario pregunta20":4},"question_order":[0,1,2,3,4,5,6,7,8,9,10,11,12,13,14,15,16,17,18,19],"trial_type":"survey-likert","trial_index":47,"time_elapsed":4556996,"internal_node_id":"0.0-8.0"},{"rt":4184.600000023842,"stimulus":"<p style=\"font-size: 120%\">Gracias por responder el cuestionario. Ahora te invitamos a seguir con el juego, que es muy breve.<br><br></p>","response":0,"trial_type":"html-button-response","trial_index":48,"time_elapsed":4561187,"internal_node_id":"0.0-9.0"},{"rt":21623.200000047684,"stimulus":"<h1>Juego</h1><p style=\"font-size: 120%;\">A continuación se te presentarán 16 pequeñas historias.<br>Por favor lee el texto presentado en cada una de ellas y luego haz click en el objeto de tu elección.<br>Si estás listo(a),<span style=\"color:red;\"> haz click en \"comenzar\"</span>.</p>","response":0,"trial_type":"html-button-response","trial_index":49,"time_elapsed":4582812,"internal_node_id":"0.0-10.0"},{"rt":12586.700000047684,"grid":[[1,1,1,1,1]],"target":[0,0],"response":[0,2],"correct":false,"juego":7,"trial_type":"serial-reaction-time-mouse","trial_index":50,"time_elapsed":4595403,"internal_node_id":"0.0-11.0-0.0"},{"rt":6240,"grid":[[1,1,1,1,1]],"target":[0,0],"response":[0,4],"correct":false,"juego":1,"trial_type":"serial-reaction-time-mouse","trial_index":51,"time_elapsed":4601646,"internal_node_id":"0.0-11.0-1.0"},{"rt":12919.700000047684,"grid":[[1,1,1,1,1]],"target":[0,0],"response":[0,3],"correct":false,"juego":8,"trial_type":"serial-reaction-time-mouse","trial_index":52,"time_elapsed":4614570,"internal_node_id":"0.0-11.0-2.0"},{"rt":9310,"grid":[[1,1,1,1,1]],"target":[0,0],"response":[0,1],"correct":false,"juego":9,"trial_type":"serial-reaction-time-mouse","trial_index":53,"time_elapsed":4623883,"internal_node_id":"0.0-11.0-3.0"},{"rt":7893.699999928474,"grid":[[1,1,1],[1,1,1],[1,1,1],[1,1,1],[1,1,1],[1,1,1],[1,1,1],[1,1,1],[1,1,1],[1,1,1],[1,1,1]],"target":[0,0],"response":[1,1],"correct":false,"juego":6,"trial_type":"serial-reaction-time-mouse","trial_index":54,"time_elapsed":4631784,"internal_node_id":"0.0-11.0-4.0"},{"rt":180432.29999995232,"grid":[[1,1,1,1,1]],"target":[0,0],"response":[0,0],"correct":true,"juego":12,"trial_type":"serial-reaction-time-mouse","trial_index":55,"time_elapsed":4812221,"internal_node_id":"0.0-11.0-5.0"},{"rt":17682.399999976158,"grid":[[1,1,1,1,1]],"target":[0,0],"response":[0,0],"correct":true,"juego":11,"trial_type":"serial-reaction-time-mouse","trial_index":56,"time_elapsed":4829907,"internal_node_id":"0.0-11.0-6.0"},{"rt":11585.800000071526,"grid":[[1,1,1,1,1]],"target":[0,0],"response":[0,0],"correct":true,"juego":3,"trial_type":"serial-reaction-time-mouse","trial_index":57,"time_elapsed":4841495,"internal_node_id":"0.0-11.0-7.0"},{"rt":7270.200000047684,"grid":[[1,1,1],[1,1,1],[1,1,1],[1,1,1],[1,1,1],[1,1,1],[1,1,1],[1,1,1],[1,1,1],[1,1,1],[1,1,1]],"target":[0,0],"response":[1,1],"correct":false,"juego":13,"trial_type":"serial-reaction-time-mouse","trial_index":58,"time_elapsed":4848770,"internal_node_id":"0.0-11.0-8.0"},{"rt":8140.600000023842,"grid":[[1,1,1,1],[1,1,1,1],[1,1,1,1],[1,1,1,1],[1,1,1,1],[1,1,1,1],[1,1,1,1],[1,1,1,1],[1,1,1,1],[1,1,1,1],[1,1,1,1]],"target":[0,0],"response":[3,2],"correct":false,"juego":14,"trial_type":"serial-reaction-time-mouse","trial_index":59,"time_elapsed":4856917,"internal_node_id":"0.0-11.0-9.0"},{"rt":3255.399999976158,"grid":[[1],[1],[1],[1],[1]],"target":[0,0],"response":[2,0],"correct":false,"juego":4,"trial_type":"serial-reaction-time-mouse","trial_index":60,"time_elapsed":4860176,"internal_node_id":"0.0-11.0-10.0"},{"rt":15091.900000095367,"grid":[[1,1,1],[1,1,1],[1,1,1],[1,1,1],[1,1,1],[1,1,1],[1,1,1],[1,1,1],[1,1,1],[1,1,1],[1,1,1]],"target":[0,0],"response":[9,1],"correct":false,"juego":5,"trial_type":"serial-reaction-time-mouse","trial_index":61,"time_elapsed":4875272,"internal_node_id":"0.0-11.0-11.0"},{"rt":7517.799999952316,"grid":[[1,1,1,1,1]],"target":[0,0],"response":[0,2],"correct":false,"juego":2,"trial_type":"serial-reaction-time-mouse","trial_index":62,"time_elapsed":4882792,"internal_node_id":"0.0-11.0-12.0"},{"rt":8653.300000071526,"grid":[[1,1,1],[1,1,1],[1,1,1],[1,1,1],[1,1,1],[1,1,1],[1,1,1],[1,1,1],[1,1,1],[1,1,1],[1,1,1]],"target":[0,0],"response":[1,2],"correct":false,"juego":10,"trial_type":"serial-reaction-time-mouse","trial_index":63,"time_elapsed":4891451,"internal_node_id":"0.0-11.0-13.0"},{"rt":9761.599999904633,"grid":[[1,1,1,1],[1,1,1,1],[1,1,1,1],[1,1,1,1],[1,1,1,1],[1,1,1,1],[1,1,1,1],[1,1,1,1],[1,1,1,1],[1,1,1,1],[1,1,1,1]],"target":[0,0],"response":[9,2],"correct":false,"juego":15,"trial_type":"serial-reaction-time-mouse","trial_index":64,"time_elapsed":4901218,"internal_node_id":"0.0-11.0-14.0"}]