[{"rt":52038,"stimulus":"<h1 style=\"color:red; margin-top: 3%;\">¡Bienvenido(a)!</h1><p style=\"text-align:left; justify-content:space-between; margin-right: 5%; margin-left: 5%; margin-top: 5%\"> Antes de empezar el estudio, necesitamos que nos confirmes que estás de acuerdo con participar. Recuerda que tu participación es 100% voluntaria y que lo único que te pedimos es responder lo mejor que puedas. Recuerda también que el estudio incluye:</p><ol style=\"text-align:left; justify-content:space-between; margin-right: 5%; margin-left: 5%;\"><li> un ejercicio de resolución de preguntas de selección múltiple (30’),</li><li>un cuestionario breve (5’),</li><li>un juego muy breve (3’),</li></ol><p style=\"text-align:left; justify-content:space-between; margin-right: 5%; margin-left: 5%;\">Si quieres participar, haz clic en “Acepto” luego de leer lo siguiente:<br></p><p style=\"text-align:left; justify-content:space-between; margin-right: 5%; margin-left: 5%;\">Acepto participar en el estudio “Estrategias de lectura y resolución de preguntas de selección múltiple”, en los términos aquí señalados:<br></p><p style=\"text-align:left; justify-content:space-between; margin-right: 5%; margin-left: 5%;\"><a href=\"http://ciae.uchile.cl/download.php?file=noticias/Asentimiento.pdf\" target=\"_blank\">Link a la hoja de información del Consentimiento.</a></p><p style=\"text-align:left; justify-content:space-between; margin-right: 5%; margin-left: 5%;\">Declaro que he leído (o se me ha leído) y (he) comprendido, las condiciones de mi participación en este estudio. He tenido la oportunidad de hacer preguntas y éstas han sido respondidas. No tengo dudas al respecto.</p>","response":0,"condicion_MCQ":1,"condicion_JUEGO":21,"condicion_INTER":21,"numero_participante":21,"numero_version":1,"dimx":1920,"dimy":1080,"color_profundidad":24,"pixel_profundidad":24,"Browser":"Google Chrome","dia":18,"mes":5,"hora":9,"minuto":38,"segundo":9,"trial_type":"html-button-response","trial_index":0,"time_elapsed":52041,"internal_node_id":"0.0-0.0"},{"success":true,"trial_type":"fullscreen","trial_index":1,"time_elapsed":65020,"internal_node_id":"0.0-1.0"},{"rt":75650.59999999404,"responses":"{\"Nombres\":\"JESUS FERNANDO \",\"Apellidos\":\"SANDOVAL ULLOA \",\"Edad\":\"28\",\"Sexo\":\"HOMBRE\",\"Curso\":\"TOPICOS DE NEUROBIOLOGIA \",\"Colegio\":\"UNIVERSIDAD ANDRES BELLOS REPUBLICA \",\"Contacto\":\"J.SANDOVALULLOA@UANDRESBELLO.EDU\"}","trial_type":"survey-text","trial_index":2,"time_elapsed":140690,"internal_node_id":"0.0-2.0"},{"success":true,"timeout":false,"failed_images":[],"failed_audio":[],"failed_video":[],"trial_type":"preload","trial_index":3,"time_elapsed":153945,"internal_node_id":"0.0-3.0"},{"rt":28907.29999998212,"stimulus":"<h1 style:\"margin-top: 5%;\">Ejercicios de Comprensión de Lectura de la Universidad de Chile</h1><p style=\"font-size: 120%;\">En esta actividad, debes responder 20 preguntas de selección múltiple. Cada pregunta presenta 5 respuestas alternativas, pero sólo una de ellas es correcta. Por lo tanto, debes escoger una sola alternativa para cada pregunta. Además, debes reportar qué tan seguro(a) estás de la respuesta que das, con un:</p><ol style=\"font-size: 120%;text-align:left;margin-left: 40%;\"><li>No estoy seguro(a) para nada</li><li>No estoy muy seguro(a)</li><li>Estoy bastante seguro(a)</li><li>Estoy totalmente seguro(a)</li></ol><p style=\"font-size: 120%;\">Por favor lee bien los enunciados antes de responder. ¡Éxito!</p>","response":0,"trial_type":"html-button-response","trial_index":4,"time_elapsed":182854,"internal_node_id":"0.0-4.0"},{"rt":71086.40000000596,"responses":"{\"pregunta16\":\"d) sufren dolores de espalda.\"}","question_order":"[0]","trial_type":"survey-multi-choice","trial_index":5,"time_elapsed":253942,"internal_node_id":"0.0-5.0-0.0"},{"rt":5150.0999999940395,"response":{"pregunta16 likert":2},"question_order":[0],"trial_type":"survey-likert","trial_index":6,"time_elapsed":259094,"internal_node_id":"0.0-5.0-1.0"},{"rt":75366.30000001192,"responses":"{\"pregunta8\":\"e) Deleitar a sus receptores por medio de la belleza y el confort.\"}","question_order":"[0]","trial_type":"survey-multi-choice","trial_index":7,"time_elapsed":334462,"internal_node_id":"0.0-5.0-2.0"},{"rt":2320.699999988079,"response":{"pregunta8 likert":3},"question_order":[0],"trial_type":"survey-likert","trial_index":8,"time_elapsed":336784,"internal_node_id":"0.0-5.0-3.0"},{"rt":46160.39999997616,"responses":"{\"pregunta2\":\"a) A la relación entre pensamiento y estructura social.\"}","question_order":"[0]","trial_type":"survey-multi-choice","trial_index":9,"time_elapsed":382946,"internal_node_id":"0.0-5.0-4.0"},{"rt":2641.0999999940395,"response":{"pregunta2 likert":1},"question_order":[0],"trial_type":"survey-likert","trial_index":10,"time_elapsed":385588,"internal_node_id":"0.0-5.0-5.0"},{"rt":60715.90000000596,"responses":"{\"pregunta5\":\"a) El concepto de normalidad es diferente para un psiquiatra que para nosotros.\"}","question_order":"[0]","trial_type":"survey-multi-choice","trial_index":11,"time_elapsed":446306,"internal_node_id":"0.0-5.0-6.0"},{"rt":1910.7000000178814,"response":{"pregunta5 likert":3},"question_order":[0],"trial_type":"survey-likert","trial_index":12,"time_elapsed":448218,"internal_node_id":"0.0-5.0-7.0"},{"rt":63354.20000001788,"responses":"{\"pregunta14\":\"e) Al orden de la productora para no turistear por el país.\"}","question_order":"[0]","trial_type":"survey-multi-choice","trial_index":13,"time_elapsed":511575,"internal_node_id":"0.0-5.0-8.0"},{"rt":2624.5,"response":{"pregunta14 likert":2},"question_order":[0],"trial_type":"survey-likert","trial_index":14,"time_elapsed":514201,"internal_node_id":"0.0-5.0-9.0"},{"rt":47628.59999999404,"responses":"{\"pregunta3\":\"a) Los momentos triviales de los viajes, en la escritura se vuelven significativos.\"}","question_order":"[0]","trial_type":"survey-multi-choice","trial_index":15,"time_elapsed":561831,"internal_node_id":"0.0-5.0-10.0"},{"rt":2546.5999999940395,"response":{"pregunta3 likert":0},"question_order":[0],"trial_type":"survey-likert","trial_index":16,"time_elapsed":564379,"internal_node_id":"0.0-5.0-11.0"},{"rt":97538.40000000596,"responses":"{\"pregunta15\":\"e) La publicidad se encuentra principalmente en la televisión.\"}","question_order":"[0]","trial_type":"survey-multi-choice","trial_index":17,"time_elapsed":661919,"internal_node_id":"0.0-5.0-12.0"},{"rt":2233.5999999940395,"response":{"pregunta15 likert":2},"question_order":[0],"trial_type":"survey-likert","trial_index":18,"time_elapsed":664154,"internal_node_id":"0.0-5.0-13.0"},{"rt":52484.70000001788,"responses":"{\"pregunta13\":\"e) Bomberos necesita ser defendido de la injusticia social que reina en el país.\"}","question_order":"[0]","trial_type":"survey-multi-choice","trial_index":19,"time_elapsed":716640,"internal_node_id":"0.0-5.0-14.0"},{"rt":2146.5,"response":{"pregunta13 likert":3},"question_order":[0],"trial_type":"survey-likert","trial_index":20,"time_elapsed":718788,"internal_node_id":"0.0-5.0-15.0"},{"rt":73278.20000001788,"responses":"{\"pregunta11\":\"d) la muerte de Wu Ti fue una bendición.\"}","question_order":"[0]","trial_type":"survey-multi-choice","trial_index":21,"time_elapsed":792068,"internal_node_id":"0.0-5.0-16.0"},{"rt":2462.199999988079,"response":{"pregunta11 likert":1},"question_order":[0],"trial_type":"survey-likert","trial_index":22,"time_elapsed":794532,"internal_node_id":"0.0-5.0-17.0"},{"rt":38150.79999998212,"responses":"{\"pregunta1\":\"b) Muestran las opiniones expuestas por los personajes en un relato.\"}","question_order":"[0]","trial_type":"survey-multi-choice","trial_index":23,"time_elapsed":832684,"internal_node_id":"0.0-5.0-18.0"},{"rt":2088.9000000059605,"response":{"pregunta1 likert":1},"question_order":[0],"trial_type":"survey-likert","trial_index":24,"time_elapsed":834774,"internal_node_id":"0.0-5.0-19.0"},{"rt":48652.80000001192,"responses":"{\"pregunta6\":\"a) un conjunto de imágenes de recuerdos gratos.\"}","question_order":"[0]","trial_type":"survey-multi-choice","trial_index":25,"time_elapsed":883428,"internal_node_id":"0.0-5.0-20.0"},{"rt":2636.2999999821186,"response":{"pregunta6 likert":2},"question_order":[0],"trial_type":"survey-likert","trial_index":26,"time_elapsed":886066,"internal_node_id":"0.0-5.0-21.0"},{"rt":43898.59999999404,"responses":"{\"pregunta19\":\"a) la Muerte acostumbraba a aparecer en Ispahán.\"}","question_order":"[0]","trial_type":"survey-multi-choice","trial_index":27,"time_elapsed":929966,"internal_node_id":"0.0-5.0-22.0"},{"rt":1784.699999988079,"response":{"pregunta19 likert":2},"question_order":[0],"trial_type":"survey-likert","trial_index":28,"time_elapsed":931752,"internal_node_id":"0.0-5.0-23.0"},{"rt":30184.70000001788,"responses":"{\"pregunta9\":\"e) Construir un museo.\"}","question_order":"[0]","trial_type":"survey-multi-choice","trial_index":29,"time_elapsed":961938,"internal_node_id":"0.0-5.0-24.0"},{"rt":2115.7000000178814,"response":{"pregunta9 likert":1},"question_order":[0],"trial_type":"survey-likert","trial_index":30,"time_elapsed":964056,"internal_node_id":"0.0-5.0-25.0"},{"rt":25056.399999976158,"responses":"{\"pregunta7\":\"a) frívolos y previsores.\"}","question_order":"[0]","trial_type":"survey-multi-choice","trial_index":31,"time_elapsed":989114,"internal_node_id":"0.0-5.0-26.0"},{"rt":3414.5999999940395,"response":{"pregunta7 likert":3},"question_order":[0],"trial_type":"survey-likert","trial_index":32,"time_elapsed":992530,"internal_node_id":"0.0-5.0-27.0"},{"rt":22100.59999999404,"responses":"{\"pregunta17\":\"b) El futuro de la economía chilena es incierto.\"}","question_order":"[0]","trial_type":"survey-multi-choice","trial_index":33,"time_elapsed":1014632,"internal_node_id":"0.0-5.0-28.0"},{"rt":2928.699999988079,"response":{"pregunta17 likert":3},"question_order":[0],"trial_type":"survey-likert","trial_index":34,"time_elapsed":1017562,"internal_node_id":"0.0-5.0-29.0"},{"rt":24382.29999998212,"responses":"{\"pregunta12\":\"a) todos los elementos químicos tienen más de noventa y dos protones en su núcleo.\"}","question_order":"[0]","trial_type":"survey-multi-choice","trial_index":35,"time_elapsed":1041946,"internal_node_id":"0.0-5.0-30.0"},{"rt":2302.800000011921,"response":{"pregunta12 likert":3},"question_order":[0],"trial_type":"survey-likert","trial_index":36,"time_elapsed":1044250,"internal_node_id":"0.0-5.0-31.0"},{"rt":17406.5,"responses":"{\"pregunta20\":\"a) para el mexicano, la muerte es como una mujer.\"}","question_order":"[0]","trial_type":"survey-multi-choice","trial_index":37,"time_elapsed":1061658,"internal_node_id":"0.0-5.0-32.0"},{"rt":1676.699999988079,"response":{"pregunta20 likert":3},"question_order":[0],"trial_type":"survey-likert","trial_index":38,"time_elapsed":1063336,"internal_node_id":"0.0-5.0-33.0"},{"rt":27002.90000000596,"responses":"{\"pregunta18\":\"a) El interés público debe prevalecer sobre la defensa de la privacidad.\"}","question_order":"[0]","trial_type":"survey-multi-choice","trial_index":39,"time_elapsed":1090340,"internal_node_id":"0.0-5.0-34.0"},{"rt":2184.5999999940395,"response":{"pregunta18 likert":2},"question_order":[0],"trial_type":"survey-likert","trial_index":40,"time_elapsed":1092526,"internal_node_id":"0.0-5.0-35.0"},{"rt":70256.69999998808,"responses":"{\"pregunta10\":\"c) Al premio merecido después de tantos esfuerzos.\"}","question_order":"[0]","trial_type":"survey-multi-choice","trial_index":41,"time_elapsed":1162784,"internal_node_id":"0.0-5.0-36.0"},{"rt":2244.699999988079,"response":{"pregunta10 likert":2},"question_order":[0],"trial_type":"survey-likert","trial_index":42,"time_elapsed":1165030,"internal_node_id":"0.0-5.0-37.0"},{"rt":3022.5999999940395,"responses":"{\"pregunta4\":\"c) Criticar la mezcla de estilos que se puede observar en la muestra que exhibe Casa Mater.\"}","question_order":"[0]","trial_type":"survey-multi-choice","trial_index":43,"time_elapsed":1168054,"internal_node_id":"0.0-5.0-38.0"},{"rt":1845,"response":{"pregunta4 likert":1},"question_order":[0],"trial_type":"survey-likert","trial_index":44,"time_elapsed":1169900,"internal_node_id":"0.0-5.0-39.0"}]