[{"rt":204700.29999995232,"stimulus":"<h1 style=\"color:red; margin-top: 3%;\">¡Bienvenido(a)!</h1><p style=\"text-align:left; justify-content:space-between; margin-right: 5%; margin-left: 5%; margin-top: 5%\"> Antes de empezar el estudio, necesitamos que nos confirmes que estás de acuerdo con participar. Recuerda que tu participación es 100% voluntaria y que lo único que te pedimos es responder lo mejor que puedas. Recuerda también que el estudio incluye:</p><ol style=\"text-align:left; justify-content:space-between; margin-right: 5%; margin-left: 5%;\"><li> un ejercicio de resolución de preguntas de selección múltiple (30’),</li><li>un cuestionario breve (5’),</li><li>un juego muy breve (3’),</li></ol><p style=\"text-align:left; justify-content:space-between; margin-right: 5%; margin-left: 5%;\">Si quieres participar, haz clic en “Acepto” luego de leer lo siguiente:<br></p><p style=\"text-align:left; justify-content:space-between; margin-right: 5%; margin-left: 5%;\">Acepto participar en el estudio “Estrategias de lectura y resolución de preguntas de selección múltiple”, en los términos aquí señalados:<br></p><p style=\"text-align:left; justify-content:space-between; margin-right: 5%; margin-left: 5%;\"><a href=\"http://ciae.uchile.cl/download.php?file=noticias/Asentimiento.pdf\" target=\"_blank\">Link a la hoja de información del Consentimiento.</a></p><p style=\"text-align:left; justify-content:space-between; margin-right: 5%; margin-left: 5%;\">Declaro que he leído (o se me ha leído) y (he) comprendido, las condiciones de mi participación en este estudio. He tenido la oportunidad de hacer preguntas y éstas han sido respondidas. No tengo dudas al respecto.</p>","response":0,"condicion_MCQ":16,"condicion_JUEGO":56,"condicion_INTER":8,"numero_participante":56,"numero_version":1,"dimx":1366,"dimy":768,"color_profundidad":24,"pixel_profundidad":24,"Browser":"Google Chrome","dia":20,"mes":5,"hora":14,"minuto":51,"segundo":11,"trial_type":"html-button-response","trial_index":0,"time_elapsed":204731,"internal_node_id":"0.0-0.0"},{"success":true,"trial_type":"fullscreen","trial_index":1,"time_elapsed":216471,"internal_node_id":"0.0-1.0"},{"rt":93990,"responses":"{\"Nombres\":\"Maximiliano Cristiani\",\"Apellidos\":\"Castro Ossa\",\"Edad\":\"23\",\"Sexo\":\"Hombre\",\"Curso\":\"Seccion  1\",\"Colegio\":\"Universidad Andrés Bello\",\"Contacto\":\"maxicristianicastro@gmail.com\"}","trial_type":"survey-text","trial_index":2,"time_elapsed":310499,"internal_node_id":"0.0-2.0"},{"success":true,"timeout":false,"failed_images":[],"failed_audio":[],"failed_video":[],"trial_type":"preload","trial_index":3,"time_elapsed":316223,"internal_node_id":"0.0-3.0"},{"rt":26686.69999998808,"stimulus":"<h1 style:\"margin-top: 5%;\">Ejercicios de Comprensión de Lectura de la Universidad de Chile</h1><p style=\"font-size: 120%;\">En esta actividad, debes responder 20 preguntas de selección múltiple. Cada pregunta presenta 5 respuestas alternativas, pero sólo una de ellas es correcta. Por lo tanto, debes escoger una sola alternativa para cada pregunta. Además, debes reportar qué tan seguro(a) estás de la respuesta que das, con un:</p><ol style=\"font-size: 120%;text-align:left;margin-left: 40%;\"><li>No estoy seguro(a) para nada</li><li>No estoy muy seguro(a)</li><li>Estoy bastante seguro(a)</li><li>Estoy totalmente seguro(a)</li></ol><p style=\"font-size: 120%;\">Por favor lee bien los enunciados antes de responder. ¡Éxito!</p>","response":0,"trial_type":"html-button-response","trial_index":4,"time_elapsed":342914,"internal_node_id":"0.0-4.0"},{"rt":201131.30000001192,"responses":"{\"pregunta16\":\"d) llevan un control grupal de su embarazo.\"}","question_order":"[0]","trial_type":"survey-multi-choice","trial_index":5,"time_elapsed":544052,"internal_node_id":"0.0-5.0-0.0"},{"rt":4872.5,"response":{"pregunta16 likert":1},"question_order":[0],"trial_type":"survey-likert","trial_index":6,"time_elapsed":548931,"internal_node_id":"0.0-5.0-1.0"},{"rt":232927.30000001192,"responses":"{\"pregunta5\":\"b) Un asilo y un campo de concentración son instituciones similares.\"}","question_order":"[0]","trial_type":"survey-multi-choice","trial_index":7,"time_elapsed":781864,"internal_node_id":"0.0-5.0-2.0"},{"rt":2329.5,"response":{"pregunta5 likert":2},"question_order":[0],"trial_type":"survey-likert","trial_index":8,"time_elapsed":784199,"internal_node_id":"0.0-5.0-3.0"},{"rt":75167.40000003576,"responses":"{\"pregunta4\":\"e) Promover la asistencia a un evento específico de decoración a través de una atractiva descripción.\"}","question_order":"[0]","trial_type":"survey-multi-choice","trial_index":9,"time_elapsed":859371,"internal_node_id":"0.0-5.0-4.0"},{"rt":2845.100000023842,"response":{"pregunta4 likert":3},"question_order":[0],"trial_type":"survey-likert","trial_index":10,"time_elapsed":862221,"internal_node_id":"0.0-5.0-5.0"},{"rt":90621.19999998808,"responses":"{\"pregunta20\":\"a) para el mexicano, la muerte es como una mujer.\"}","question_order":"[0]","trial_type":"survey-multi-choice","trial_index":11,"time_elapsed":952847,"internal_node_id":"0.0-5.0-6.0"},{"rt":3094.599999964237,"response":{"pregunta20 likert":3},"question_order":[0],"trial_type":"survey-likert","trial_index":12,"time_elapsed":955945,"internal_node_id":"0.0-5.0-7.0"},{"rt":86087.69999998808,"responses":"{\"pregunta2\":\"e) A la relación entre pensamiento y estructura social.\"}","question_order":"[0]","trial_type":"survey-multi-choice","trial_index":13,"time_elapsed":1042031,"internal_node_id":"0.0-5.0-8.0"},{"rt":4078.7999999523163,"response":{"pregunta2 likert":3},"question_order":[0],"trial_type":"survey-likert","trial_index":14,"time_elapsed":1046114,"internal_node_id":"0.0-5.0-9.0"},{"rt":43033.39999997616,"responses":"{\"pregunta10\":\"a) A la inutilidad de tanto esfuerzo si el objetivo es el reposo.\"}","question_order":"[0]","trial_type":"survey-multi-choice","trial_index":15,"time_elapsed":1089155,"internal_node_id":"0.0-5.0-10.0"},{"rt":2811.5,"response":{"pregunta10 likert":3},"question_order":[0],"trial_type":"survey-likert","trial_index":16,"time_elapsed":1091971,"internal_node_id":"0.0-5.0-11.0"},{"rt":52734.60000002384,"responses":"{\"pregunta14\":\"c) A la influencia de grupos que rechazaban su música.\"}","question_order":"[0]","trial_type":"survey-multi-choice","trial_index":17,"time_elapsed":1144711,"internal_node_id":"0.0-5.0-12.0"},{"rt":3364.5,"response":{"pregunta14 likert":3},"question_order":[0],"trial_type":"survey-likert","trial_index":18,"time_elapsed":1148083,"internal_node_id":"0.0-5.0-13.0"},{"rt":58557.09999996424,"responses":"{\"pregunta13\":\"b) Bomberos debería tener acceso a un seguro médico, al que pueda recurrir en caso de accidente.\"}","question_order":"[0]","trial_type":"survey-multi-choice","trial_index":19,"time_elapsed":1206643,"internal_node_id":"0.0-5.0-14.0"},{"rt":2242.2000000476837,"response":{"pregunta13 likert":3},"question_order":[0],"trial_type":"survey-likert","trial_index":20,"time_elapsed":1208890,"internal_node_id":"0.0-5.0-15.0"},{"rt":101337.70000004768,"responses":"{\"pregunta12\":\"b) el uranio es el elemento natural con el mayor número de protones en el núcleo.\"}","question_order":"[0]","trial_type":"survey-multi-choice","trial_index":21,"time_elapsed":1310224,"internal_node_id":"0.0-5.0-16.0"},{"rt":2905.399999976158,"response":{"pregunta12 likert":3},"question_order":[0],"trial_type":"survey-likert","trial_index":22,"time_elapsed":1313135,"internal_node_id":"0.0-5.0-17.0"},{"rt":76237.5,"responses":"{\"pregunta17\":\"e) El TLC causará una completa transformación de la economía chilena.\"}","question_order":"[0]","trial_type":"survey-multi-choice","trial_index":23,"time_elapsed":1389388,"internal_node_id":"0.0-5.0-18.0"},{"rt":2947.300000011921,"response":{"pregunta17 likert":2},"question_order":[0],"trial_type":"survey-likert","trial_index":24,"time_elapsed":1392340,"internal_node_id":"0.0-5.0-19.0"},{"rt":66241.39999997616,"responses":"{\"pregunta6\":\"a) preparar los recuerdos del mañana.\"}","question_order":"[0]","trial_type":"survey-multi-choice","trial_index":25,"time_elapsed":1458585,"internal_node_id":"0.0-5.0-20.0"},{"rt":2610.699999988079,"response":{"pregunta6 likert":2},"question_order":[0],"trial_type":"survey-likert","trial_index":26,"time_elapsed":1461201,"internal_node_id":"0.0-5.0-21.0"},{"rt":69734.69999998808,"responses":"{\"pregunta11\":\"c) la muerte de Wu Ti fue una bendición.\"}","question_order":"[0]","trial_type":"survey-multi-choice","trial_index":27,"time_elapsed":1530936,"internal_node_id":"0.0-5.0-22.0"},{"rt":2719.5,"response":{"pregunta11 likert":2},"question_order":[0],"trial_type":"survey-likert","trial_index":28,"time_elapsed":1533660,"internal_node_id":"0.0-5.0-23.0"},{"rt":58537.69999998808,"responses":"{\"pregunta1\":\"d) Aportan informaciones con las que se reconstruye el personaje dentro de un relato.\"}","question_order":"[0]","trial_type":"survey-multi-choice","trial_index":29,"time_elapsed":1592202,"internal_node_id":"0.0-5.0-24.0"},{"rt":2691.099999964237,"response":{"pregunta1 likert":2},"question_order":[0],"trial_type":"survey-likert","trial_index":30,"time_elapsed":1594897,"internal_node_id":"0.0-5.0-25.0"},{"rt":80650.5,"responses":"{\"pregunta7\":\"a) ritualistas y obsesivos.\"}","question_order":"[0]","trial_type":"survey-multi-choice","trial_index":31,"time_elapsed":1675553,"internal_node_id":"0.0-5.0-26.0"},{"rt":3486.800000011921,"response":{"pregunta7 likert":2},"question_order":[0],"trial_type":"survey-likert","trial_index":32,"time_elapsed":1679046,"internal_node_id":"0.0-5.0-27.0"},{"rt":66672,"responses":"{\"pregunta8\":\"a) Provocar el deseo de la adquisición vertiginosa.\"}","question_order":"[0]","trial_type":"survey-multi-choice","trial_index":33,"time_elapsed":1745725,"internal_node_id":"0.0-5.0-28.0"},{"rt":2166.600000023842,"response":{"pregunta8 likert":1},"question_order":[0],"trial_type":"survey-likert","trial_index":34,"time_elapsed":1747897,"internal_node_id":"0.0-5.0-29.0"},{"rt":39420,"responses":"{\"pregunta18\":\"d) Se necesita un marco legal para delimitar lo público y lo privado en materia informativa.\"}","question_order":"[0]","trial_type":"survey-multi-choice","trial_index":35,"time_elapsed":1787320,"internal_node_id":"0.0-5.0-30.0"},{"rt":2295.600000023842,"response":{"pregunta18 likert":2},"question_order":[0],"trial_type":"survey-likert","trial_index":36,"time_elapsed":1789620,"internal_node_id":"0.0-5.0-31.0"},{"rt":34360.30000001192,"responses":"{\"pregunta9\":\"a) Homenajear a quienes murieron.\"}","question_order":"[0]","trial_type":"survey-multi-choice","trial_index":37,"time_elapsed":1823984,"internal_node_id":"0.0-5.0-32.0"},{"rt":2719.300000011921,"response":{"pregunta9 likert":1},"question_order":[0],"trial_type":"survey-likert","trial_index":38,"time_elapsed":1826708,"internal_node_id":"0.0-5.0-33.0"},{"rt":18551.900000035763,"responses":"{\"pregunta15\":\"c) El receptor es habitualmente pasivo frente a la publicidad.\"}","question_order":"[0]","trial_type":"survey-multi-choice","trial_index":39,"time_elapsed":1845264,"internal_node_id":"0.0-5.0-34.0"},{"rt":3235.5,"response":{"pregunta15 likert":1},"question_order":[0],"trial_type":"survey-likert","trial_index":40,"time_elapsed":1848503,"internal_node_id":"0.0-5.0-35.0"},{"rt":60244.40000003576,"responses":"{\"pregunta19\":\"d) el jardinero estará muerto al día siguiente.\"}","question_order":"[0]","trial_type":"survey-multi-choice","trial_index":41,"time_elapsed":1908751,"internal_node_id":"0.0-5.0-36.0"},{"rt":3460.099999964237,"response":{"pregunta19 likert":2},"question_order":[0],"trial_type":"survey-likert","trial_index":42,"time_elapsed":1912216,"internal_node_id":"0.0-5.0-37.0"},{"rt":57576.69999998808,"responses":"{\"pregunta3\":\"e) Los momentos triviales de los viajes, en la escritura se vuelven significativos.\"}","question_order":"[0]","trial_type":"survey-multi-choice","trial_index":43,"time_elapsed":1969797,"internal_node_id":"0.0-5.0-38.0"},{"rt":2037.699999988079,"response":{"pregunta3 likert":1},"question_order":[0],"trial_type":"survey-likert","trial_index":44,"time_elapsed":1971840,"internal_node_id":"0.0-5.0-39.0"}]