[{"rt":3750.1999999949476,"stimulus":"<h1 style=\"color:red; margin-top: 3%;\">¡Bienvenido(a)!</h1><p style=\"text-align:left; justify-content:space-between; margin-right: 5%; margin-left: 5%; margin-top: 5%\"> Antes de empezar el estudio, necesitamos que nos confirmes que estás de acuerdo con participar. Recuerda que tu participación es 100% voluntaria y que lo único que te pedimos es responder lo mejor que puedas. Recuerda también que el estudio incluye:</p><ol style=\"text-align:left; justify-content:space-between; margin-right: 5%; margin-left: 5%;\"><li> un ejercicio de resolución de preguntas de selección múltiple (30’),</li><li>un cuestionario breve (5’),</li><li>un juego muy breve (3’),</li></ol><p style=\"text-align:left; justify-content:space-between; margin-right: 5%; margin-left: 5%;\">Si quieres participar, haz clic en “Acepto” luego de leer lo siguiente:<br></p><p style=\"text-align:left; justify-content:space-between; margin-right: 5%; margin-left: 5%;\">Acepto participar en el estudio “Estrategias de lectura y resolución de preguntas de selección múltiple”, en los términos aquí señalados:<br></p><p style=\"text-align:left; justify-content:space-between; margin-right: 5%; margin-left: 5%;\"><a href=\"http://ciae.uchile.cl/download.php?file=noticias/Asentimiento.pdf\" target=\"_blank\">Link a la hoja de información del Consentimiento.</a></p><p style=\"text-align:left; justify-content:space-between; margin-right: 5%; margin-left: 5%;\">Declaro que he leído (o se me ha leído) y (he) comprendido, las condiciones de mi participación en este estudio. He tenido la oportunidad de hacer preguntas y éstas han sido respondidas. No tengo dudas al respecto.</p>","response":0,"condicion_MCQ":14,"condicion_JUEGO":14,"condicion_INTER":14,"numero_participante":14,"numero_version":1,"dimx":360,"dimy":780,"color_profundidad":24,"pixel_profundidad":24,"Browser":"Google Chrome","dia":17,"mes":5,"hora":21,"minuto":56,"segundo":12,"trial_type":"html-button-response","trial_index":0,"time_elapsed":3754,"internal_node_id":"0.0-0.0"},{"success":true,"trial_type":"fullscreen","trial_index":1,"time_elapsed":6109,"internal_node_id":"0.0-1.0"},{"rt":43296.09999999229,"responses":"{\"Nombres\":\"Thiare Fernanda \",\"Apellidos\":\"Arriagada \",\"Edad\":\"26\",\"Sexo\":\"Mujer \",\"Curso\":\"Primer semestre \",\"Colegio\":\"Universidad andres bello \",\"Contacto\":\"T.arriagadapalma@uandresbrello.edu\"}","trial_type":"survey-text","trial_index":2,"time_elapsed":49437,"internal_node_id":"0.0-2.0"},{"success":true,"timeout":false,"failed_images":[],"failed_audio":[],"failed_video":[],"trial_type":"preload","trial_index":3,"time_elapsed":49911,"internal_node_id":"0.0-3.0"},{"rt":4441.00000000617,"stimulus":"<h1 style:\"margin-top: 5%;\">Ejercicios de Comprensión de Lectura de la Universidad de Chile</h1><p style=\"font-size: 120%;\">En esta actividad, debes responder 20 preguntas de selección múltiple. Cada pregunta presenta 5 respuestas alternativas, pero sólo una de ellas es correcta. Por lo tanto, debes escoger una sola alternativa para cada pregunta. Además, debes reportar qué tan seguro(a) estás de la respuesta que das, con un:</p><ol style=\"font-size: 120%;text-align:left;margin-left: 40%;\"><li>No estoy seguro(a) para nada</li><li>No estoy muy seguro(a)</li><li>Estoy bastante seguro(a)</li><li>Estoy totalmente seguro(a)</li></ol><p style=\"font-size: 120%;\">Por favor lee bien los enunciados antes de responder. ¡Éxito!</p>","response":0,"trial_type":"html-button-response","trial_index":4,"time_elapsed":54353,"internal_node_id":"0.0-4.0"},{"rt":52107.59999998845,"responses":"{\"pregunta3\":\"e) La escritura plasma los mejores momentos de los viajes.\"}","question_order":"[0]","trial_type":"survey-multi-choice","trial_index":5,"time_elapsed":106467,"internal_node_id":"0.0-5.0-0.0"},{"rt":5851.09999999986,"response":{"pregunta3 likert":1},"question_order":[0],"trial_type":"survey-likert","trial_index":6,"time_elapsed":112323,"internal_node_id":"0.0-5.0-1.0"},{"rt":54095.39999999106,"responses":"{\"pregunta18\":\"d) El derecho a informar y el derecho a la privacidad son inconciliables.\"}","question_order":"[0]","trial_type":"survey-multi-choice","trial_index":7,"time_elapsed":166421,"internal_node_id":"0.0-5.0-2.0"},{"rt":2243.300000001909,"response":{"pregunta18 likert":2},"question_order":[0],"trial_type":"survey-likert","trial_index":8,"time_elapsed":168666,"internal_node_id":"0.0-5.0-3.0"},{"rt":31528.40000001015,"responses":"{\"pregunta7\":\"e) ritualistas y obsesivos.\"}","question_order":"[0]","trial_type":"survey-multi-choice","trial_index":9,"time_elapsed":200198,"internal_node_id":"0.0-5.0-4.0"},{"rt":1625.3999999898952,"response":{"pregunta7 likert":2},"question_order":[0],"trial_type":"survey-likert","trial_index":10,"time_elapsed":201825,"internal_node_id":"0.0-5.0-5.0"},{"rt":47035.60000000289,"responses":"{\"pregunta2\":\"c) A la relación entre sociedad y constitución social.\"}","question_order":"[0]","trial_type":"survey-multi-choice","trial_index":11,"time_elapsed":248864,"internal_node_id":"0.0-5.0-6.0"},{"rt":1327.3000000044703,"response":{"pregunta2 likert":2},"question_order":[0],"trial_type":"survey-likert","trial_index":12,"time_elapsed":250193,"internal_node_id":"0.0-5.0-7.0"},{"rt":42351.99999999895,"responses":"{\"pregunta8\":\"b) Deleitar a sus receptores por medio de la belleza y el confort.\"}","question_order":"[0]","trial_type":"survey-multi-choice","trial_index":13,"time_elapsed":292548,"internal_node_id":"0.0-5.0-8.0"},{"rt":1381.200000003446,"response":{"pregunta8 likert":1},"question_order":[0],"trial_type":"survey-likert","trial_index":14,"time_elapsed":293932,"internal_node_id":"0.0-5.0-9.0"},{"rt":44447.999999989406,"responses":"{\"pregunta17\":\"a) El futuro de la economía chilena es incierto.\"}","question_order":"[0]","trial_type":"survey-multi-choice","trial_index":15,"time_elapsed":338382,"internal_node_id":"0.0-5.0-10.0"},{"rt":1527.30000000156,"response":{"pregunta17 likert":2},"question_order":[0],"trial_type":"survey-likert","trial_index":16,"time_elapsed":339912,"internal_node_id":"0.0-5.0-11.0"},{"rt":47913.70000000461,"responses":"{\"pregunta4\":\"a) Presentar positivamente las diversas tendencias del diseño de interiores a través de un comentario.\"}","question_order":"[0]","trial_type":"survey-multi-choice","trial_index":17,"time_elapsed":387828,"internal_node_id":"0.0-5.0-12.0"},{"rt":1425.2999999880558,"response":{"pregunta4 likert":2},"question_order":[0],"trial_type":"survey-likert","trial_index":18,"time_elapsed":389255,"internal_node_id":"0.0-5.0-13.0"},{"rt":40454.2999999976,"responses":"{\"pregunta15\":\"d) La publicidad se encuentra principalmente en la televisión.\"}","question_order":"[0]","trial_type":"survey-multi-choice","trial_index":19,"time_elapsed":429712,"internal_node_id":"0.0-5.0-14.0"},{"rt":3053.8999999989755,"response":{"pregunta15 likert":2},"question_order":[0],"trial_type":"survey-likert","trial_index":20,"time_elapsed":432768,"internal_node_id":"0.0-5.0-15.0"},{"rt":17156.199999997625,"responses":"{\"pregunta6\":\"a) un conjunto de imágenes de recuerdos gratos.\"}","question_order":"[0]","trial_type":"survey-multi-choice","trial_index":21,"time_elapsed":449927,"internal_node_id":"0.0-5.0-16.0"},{"rt":1370.6999999994878,"response":{"pregunta6 likert":2},"question_order":[0],"trial_type":"survey-likert","trial_index":22,"time_elapsed":451300,"internal_node_id":"0.0-5.0-17.0"},{"rt":31965.700000000652,"responses":"{\"pregunta9\":\"a) Homenajear a quienes murieron.\"}","question_order":"[0]","trial_type":"survey-multi-choice","trial_index":23,"time_elapsed":483268,"internal_node_id":"0.0-5.0-18.0"},{"rt":1347.9999999981374,"response":{"pregunta9 likert":2},"question_order":[0],"trial_type":"survey-likert","trial_index":24,"time_elapsed":484619,"internal_node_id":"0.0-5.0-19.0"},{"rt":22424.400000003516,"responses":"{\"pregunta11\":\"b) la prosperidad del imperio se debió al Primer Ministro.\"}","question_order":"[0]","trial_type":"survey-multi-choice","trial_index":25,"time_elapsed":507045,"internal_node_id":"0.0-5.0-20.0"},{"rt":1468.5999999928754,"response":{"pregunta11 likert":1},"question_order":[0],"trial_type":"survey-likert","trial_index":26,"time_elapsed":508516,"internal_node_id":"0.0-5.0-21.0"},{"rt":25408.10000000056,"responses":"{\"pregunta20\":\"e) en Nueva York, París o Londres, la muerte es tema superado.\"}","question_order":"[0]","trial_type":"survey-multi-choice","trial_index":27,"time_elapsed":533927,"internal_node_id":"0.0-5.0-22.0"},{"rt":1745.999999999185,"response":{"pregunta20 likert":2},"question_order":[0],"trial_type":"survey-likert","trial_index":28,"time_elapsed":535676,"internal_node_id":"0.0-5.0-23.0"},{"rt":15874.200000005658,"responses":"{\"pregunta16\":\"e) son propensas a fertilizar in vitro.\"}","question_order":"[0]","trial_type":"survey-multi-choice","trial_index":29,"time_elapsed":551552,"internal_node_id":"0.0-5.0-24.0"},{"rt":2105.8999999950174,"response":{"pregunta16 likert":1},"question_order":[0],"trial_type":"survey-likert","trial_index":30,"time_elapsed":553660,"internal_node_id":"0.0-5.0-25.0"},{"rt":39339.80000000156,"responses":"{\"pregunta12\":\"c) todos los elementos químicos tienen más de noventa y dos protones en su núcleo.\"}","question_order":"[0]","trial_type":"survey-multi-choice","trial_index":31,"time_elapsed":593002,"internal_node_id":"0.0-5.0-26.0"},{"rt":1209.8000000114553,"response":{"pregunta12 likert":2},"question_order":[0],"trial_type":"survey-likert","trial_index":32,"time_elapsed":594215,"internal_node_id":"0.0-5.0-27.0"},{"rt":12629.799999995157,"responses":"{\"pregunta5\":\"a) La conducta de un hombre en un asilo es idéntica a la de un hombre en un campo de concentración.\"}","question_order":"[0]","trial_type":"survey-multi-choice","trial_index":33,"time_elapsed":606847,"internal_node_id":"0.0-5.0-28.0"},{"rt":1180.2999999927124,"response":{"pregunta5 likert":2},"question_order":[0],"trial_type":"survey-likert","trial_index":34,"time_elapsed":608029,"internal_node_id":"0.0-5.0-29.0"},{"rt":11576.900000000023,"responses":"{\"pregunta1\":\"d) Aportan informaciones con las que se reconstruye el personaje dentro de un relato.\"}","question_order":"[0]","trial_type":"survey-multi-choice","trial_index":35,"time_elapsed":619610,"internal_node_id":"0.0-5.0-30.0"},{"rt":1336.5999999950873,"response":{"pregunta1 likert":2},"question_order":[0],"trial_type":"survey-likert","trial_index":36,"time_elapsed":620949,"internal_node_id":"0.0-5.0-31.0"},{"rt":7417.300000000978,"responses":"{\"pregunta14\":\"b) A la influencia de grupos que rechazaban su música.\"}","question_order":"[0]","trial_type":"survey-multi-choice","trial_index":37,"time_elapsed":628369,"internal_node_id":"0.0-5.0-32.0"},{"rt":1885.099999999511,"response":{"pregunta14 likert":2},"question_order":[0],"trial_type":"survey-likert","trial_index":38,"time_elapsed":630256,"internal_node_id":"0.0-5.0-33.0"},{"rt":13555.900000006659,"responses":"{\"pregunta10\":\"e) Al deseo de privilegiar el ocio por sobre el trabajo.\"}","question_order":"[0]","trial_type":"survey-multi-choice","trial_index":39,"time_elapsed":643815,"internal_node_id":"0.0-5.0-34.0"},{"rt":1249.2000000056578,"response":{"pregunta10 likert":2},"question_order":[0],"trial_type":"survey-likert","trial_index":40,"time_elapsed":645066,"internal_node_id":"0.0-5.0-35.0"},{"rt":9682.700000004843,"responses":"{\"pregunta19\":\"a) la Muerte acostumbraba a aparecer en Ispahán.\"}","question_order":"[0]","trial_type":"survey-multi-choice","trial_index":41,"time_elapsed":654751,"internal_node_id":"0.0-5.0-36.0"},{"rt":3167.4000000057276,"response":{"pregunta19 likert":0},"question_order":[0],"trial_type":"survey-likert","trial_index":42,"time_elapsed":657921,"internal_node_id":"0.0-5.0-37.0"},{"rt":29103.000000002794,"responses":"{\"pregunta13\":\"d) Se debe crear un seguro médico especial para esta institución, pues es de alto riesgo.\"}","question_order":"[0]","trial_type":"survey-multi-choice","trial_index":43,"time_elapsed":687026,"internal_node_id":"0.0-5.0-38.0"},{"rt":1703.9000000077067,"response":{"pregunta13 likert":2},"question_order":[0],"trial_type":"survey-likert","trial_index":44,"time_elapsed":688733,"internal_node_id":"0.0-5.0-39.0"},{"rt":1257.1000000025379,"stimulus":"<p style=\"font-size: 120%\">Gracias por completar esta etapa del estudio. Ahora te invitamos a responder el cuestionario.<br><br></p>","response":0,"trial_type":"html-button-response","trial_index":45,"time_elapsed":689997,"internal_node_id":"0.0-6.0"},{"rt":8193.600000013248,"stimulus":"<h1 style=\"margin-top: 5%\">Cuestionario para la Evaluación de Metas Académicas</h1><p style=\"font-size: 120%; margin-left: 3%; margin-top: 5%\">Este es un cuestionario que permite conocer cuáles son los principales motivos por los que los estudiantes se esfuerzan en su trabajo académico. A continuación, se te presentarán una serie de afirmaciones acerca de los motivos que puedes tener para estudiar.<br>Te pedimos que contestes a dichas afirmaciones reflexionando sobre el contenido de cada una de ellas, que, aunque te parezcan semejantes, en realidad, no lo son.<br>NO HAY RESPUESTAS CORRECTAS o INCORRECTAS, sólo queremos que respondas con la mayor precisión y sinceridad posible a las preguntas que se plantean.","response":0,"trial_type":"html-button-response","trial_index":46,"time_elapsed":698194,"internal_node_id":"0.0-7.0"},{"rt":83159.4999999943,"response":{"Metas cuestionario pregunta1":3,"Metas cuestionario pregunta2":4,"Metas cuestionario pregunta3":4,"Metas cuestionario pregunta4":3,"Metas cuestionario pregunta5":4,"Metas cuestionario pregunta6":2,"Metas cuestionario pregunta7":3,"Metas cuestionario pregunta8":3,"Metas cuestionario pregunta9":3,"Metas cuestionario pregunta10":2,"Metas cuestionario pregunta11":2,"Metas cuestionario pregunta12":3,"Metas cuestionario pregunta13":3,"Metas cuestionario pregunta14":2,"Metas cuestionario pregunta15":4,"Metas cuestionario pregunta16":4,"Metas cuestionario pregunta17":3,"Metas cuestionario pregunta18":4,"Metas cuestionario pregunta19":4,"Metas cuestionario pregunta20":4},"question_order":[0,1,2,3,4,5,6,7,8,9,10,11,12,13,14,15,16,17,18,19],"trial_type":"survey-likert","trial_index":47,"time_elapsed":781365,"internal_node_id":"0.0-8.0"},{"rt":3028.2999999908498,"stimulus":"<p style=\"font-size: 120%\">Gracias por responder el cuestionario. Ahora te invitamos a seguir con el juego, que es muy breve.<br><br></p>","response":0,"trial_type":"html-button-response","trial_index":48,"time_elapsed":784400,"internal_node_id":"0.0-9.0"},{"rt":4514.400000000023,"stimulus":"<h1>Juego</h1><p style=\"font-size: 120%;\">A continuación se te presentarán 16 pequeñas historias.<br>Por favor lee el texto presentado en cada una de ellas y luego haz click en el objeto de tu elección.<br>Si estás listo(a),<span style=\"color:red;\"> haz click en \"comenzar\"</span>.</p>","response":0,"trial_type":"html-button-response","trial_index":49,"time_elapsed":788916,"internal_node_id":"0.0-10.0"},{"rt":5815.099999992526,"grid":[[1,1,1],[1,1,1],[1,1,1],[1,1,1],[1,1,1],[1,1,1],[1,1,1],[1,1,1],[1,1,1],[1,1,1],[1,1,1]],"target":[0,0],"response":[1,2],"correct":false,"juego":10,"trial_type":"serial-reaction-time-mouse","trial_index":50,"time_elapsed":794735,"internal_node_id":"0.0-11.0-0.0"},{"rt":14743.000000002212,"grid":[[1,1,1,1],[1,1,1,1],[1,1,1,1],[1,1,1,1],[1,1,1,1],[1,1,1,1],[1,1,1,1],[1,1,1,1],[1,1,1,1],[1,1,1,1],[1,1,1,1]],"target":[0,0],"response":[7,2],"correct":false,"juego":15,"trial_type":"serial-reaction-time-mouse","trial_index":51,"time_elapsed":809482,"internal_node_id":"0.0-11.0-1.0"},{"rt":6924.199999994016,"grid":[[1,1,1,1,1]],"target":[0,0],"response":[0,1],"correct":false,"juego":8,"trial_type":"serial-reaction-time-mouse","trial_index":52,"time_elapsed":816408,"internal_node_id":"0.0-11.0-2.0"},{"rt":4069.600000002538,"grid":[[1,1,1,1,1]],"target":[0,0],"response":[0,1],"correct":false,"juego":9,"trial_type":"serial-reaction-time-mouse","trial_index":53,"time_elapsed":820480,"internal_node_id":"0.0-11.0-3.0"},{"rt":5901.599999997416,"grid":[[1,1,1,1,1]],"target":[0,0],"response":[0,0],"correct":true,"juego":3,"trial_type":"serial-reaction-time-mouse","trial_index":54,"time_elapsed":826383,"internal_node_id":"0.0-11.0-4.0"},{"rt":2072.0000000001164,"grid":[[1],[1],[1],[1],[1]],"target":[0,0],"response":[4,0],"correct":false,"juego":4,"trial_type":"serial-reaction-time-mouse","trial_index":55,"time_elapsed":828457,"internal_node_id":"0.0-11.0-5.0"},{"rt":1319.9000000022352,"grid":[[1,1,1,1,1]],"target":[0,0],"response":[0,4],"correct":false,"juego":1,"trial_type":"serial-reaction-time-mouse","trial_index":56,"time_elapsed":829778,"internal_node_id":"0.0-11.0-6.0"},{"rt":4641.700000007404,"grid":[[1,1,1,1],[1,1,1,1],[1,1,1,1],[1,1,1,1],[1,1,1,1],[1,1,1,1],[1,1,1,1],[1,1,1,1],[1,1,1,1],[1,1,1,1],[1,1,1,1]],"target":[0,0],"response":[7,2],"correct":false,"juego":14,"trial_type":"serial-reaction-time-mouse","trial_index":57,"time_elapsed":834430,"internal_node_id":"0.0-11.0-7.0"},{"rt":4369.099999996251,"grid":[[1,1,1],[1,1,1],[1,1,1],[1,1,1],[1,1,1],[1,1,1],[1,1,1],[1,1,1],[1,1,1],[1,1,1],[1,1,1]],"target":[0,0],"response":[1,1],"correct":false,"juego":6,"trial_type":"serial-reaction-time-mouse","trial_index":58,"time_elapsed":838802,"internal_node_id":"0.0-11.0-8.0"},{"rt":8194.19999999809,"grid":[[1,1,1,1,1]],"target":[0,0],"response":[0,4],"correct":false,"juego":2,"trial_type":"serial-reaction-time-mouse","trial_index":59,"time_elapsed":846998,"internal_node_id":"0.0-11.0-9.0"},{"rt":3573.8000000128523,"grid":[[1,1,1,1,1]],"target":[0,0],"response":[0,2],"correct":false,"juego":7,"trial_type":"serial-reaction-time-mouse","trial_index":60,"time_elapsed":850573,"internal_node_id":"0.0-11.0-10.0"},{"rt":2838.6000000027707,"grid":[[1,1,1],[1,1,1],[1,1,1],[1,1,1],[1,1,1],[1,1,1],[1,1,1],[1,1,1],[1,1,1],[1,1,1],[1,1,1]],"target":[0,0],"response":[1,1],"correct":false,"juego":5,"trial_type":"serial-reaction-time-mouse","trial_index":61,"time_elapsed":853415,"internal_node_id":"0.0-11.0-11.0"},{"rt":5127.500000002328,"grid":[[1,1,1,1,1]],"target":[0,0],"response":[0,2],"correct":false,"juego":11,"trial_type":"serial-reaction-time-mouse","trial_index":62,"time_elapsed":858544,"internal_node_id":"0.0-11.0-12.0"},{"rt":9427.599999995437,"grid":[[1,1,1,1,1]],"target":[0,0],"response":[0,3],"correct":false,"juego":12,"trial_type":"serial-reaction-time-mouse","trial_index":63,"time_elapsed":867974,"internal_node_id":"0.0-11.0-13.0"},{"rt":7068.400000003749,"grid":[[1,1,1],[1,1,1],[1,1,1],[1,1,1],[1,1,1],[1,1,1],[1,1,1],[1,1,1],[1,1,1],[1,1,1],[1,1,1]],"target":[0,0],"response":[1,1],"correct":false,"juego":13,"trial_type":"serial-reaction-time-mouse","trial_index":64,"time_elapsed":875045,"internal_node_id":"0.0-11.0-14.0"},{"rt":2911.2999999924796,"stimulus":"<h1>Último juego</h1><p style=\"font-size: 130%;\">Tienes <span style=\"color:red\">35</span> segundos para recordar los pares de palabras que aparecerán a continuación. <br></p>","response":0,"trial_type":"html-button-response","trial_index":65,"time_elapsed":877961,"internal_node_id":"0.0-12.0"},{"animation_sequence":[{"stimulus":"imagen_juego_interferencia.jpg","time":533.1999999907566},{"stimulus":"imagen_juego_interferencia.jpg","time":1003.2999999966705},{"stimulus":"imagen_juego_interferencia.jpg","time":1503.4000000014203},{"stimulus":"imagen_juego_interferencia.jpg","time":2004.4999999954598},{"stimulus":"imagen_juego_interferencia.jpg","time":2505.4999999993015},{"stimulus":"imagen_juego_interferencia.jpg","time":3004.6999999904074},{"stimulus":"imagen_juego_interferencia.jpg","time":3504.3000000005122},{"stimulus":"imagen_juego_interferencia.jpg","time":4004.39999999071},{"stimulus":"imagen_juego_interferencia.jpg","time":4504.1999999957625},{"stimulus":"imagen_juego_interferencia.jpg","time":5004.300000000512},{"stimulus":"imagen_juego_interferencia.jpg","time":5504.1999999957625},{"stimulus":"imagen_juego_interferencia.jpg","time":6004.39999999071},{"stimulus":"imagen_juego_interferencia.jpg","time":6504.300000000512},{"stimulus":"imagen_juego_interferencia.jpg","time":7004.49999999546},{"stimulus":"imagen_juego_interferencia.jpg","time":7504.1999999957625},{"stimulus":"imagen_juego_interferencia.jpg","time":8003.700000001118},{"stimulus":"imagen_juego_interferencia.jpg","time":8504.300000000512},{"stimulus":"imagen_juego_interferencia.jpg","time":9003.40000000142},{"stimulus":"imagen_juego_interferencia.jpg","time":9504.49999999546},{"stimulus":"imagen_juego_interferencia.jpg","time":10004.300000000512},{"stimulus":"imagen_juego_interferencia.jpg","time":10506.299999993644},{"stimulus":"imagen_juego_interferencia.jpg","time":11004.39999999071},{"stimulus":"imagen_juego_interferencia.jpg","time":11504.899999999907},{"stimulus":"imagen_juego_interferencia.jpg","time":12003.599999996368},{"stimulus":"imagen_juego_interferencia.jpg","time":12504.099999991013},{"stimulus":"imagen_juego_interferencia.jpg","time":13004.300000000512},{"stimulus":"imagen_juego_interferencia.jpg","time":13504.000000000815},{"stimulus":"imagen_juego_interferencia.jpg","time":14003.599999996368},{"stimulus":"imagen_juego_interferencia.jpg","time":14503.19999999192},{"stimulus":"imagen_juego_interferencia.jpg","time":15003.700000001118},{"stimulus":"imagen_juego_interferencia.jpg","time":15503.29999999667},{"stimulus":"imagen_juego_interferencia.jpg","time":16003.700000001118},{"stimulus":"imagen_juego_interferencia.jpg","time":16503.40000000142},{"stimulus":"imagen_juego_interferencia.jpg","time":17003.599999996368},{"stimulus":"imagen_juego_interferencia.jpg","time":17503.599999996368},{"stimulus":"imagen_juego_interferencia.jpg","time":18006.200000003446},{"stimulus":"imagen_juego_interferencia.jpg","time":18504.099999991013},{"stimulus":"imagen_juego_interferencia.jpg","time":19003.899999996065},{"stimulus":"imagen_juego_interferencia.jpg","time":19504.199999995762},{"stimulus":"imagen_juego_interferencia.jpg","time":20004.099999991013},{"stimulus":"imagen_juego_interferencia.jpg","time":20504.799999995157},{"stimulus":"imagen_juego_interferencia.jpg","time":21003.700000001118},{"stimulus":"imagen_juego_interferencia.jpg","time":21503.899999996065},{"stimulus":"imagen_juego_interferencia.jpg","time":22004.699999990407},{"stimulus":"imagen_juego_interferencia.jpg","time":22505.099999994854},{"stimulus":"imagen_juego_interferencia.jpg","time":23005.799999999},{"stimulus":"imagen_juego_interferencia.jpg","time":23504.099999991013},{"stimulus":"imagen_juego_interferencia.jpg","time":24004.300000000512},{"stimulus":"imagen_juego_interferencia.jpg","time":24504.099999991013},{"stimulus":"imagen_juego_interferencia.jpg","time":25003.799999991315},{"stimulus":"imagen_juego_interferencia.jpg","time":25503.899999996065},{"stimulus":"imagen_juego_interferencia.jpg","time":26004.000000000815},{"stimulus":"imagen_juego_interferencia.jpg","time":26504.099999991013},{"stimulus":"imagen_juego_interferencia.jpg","time":27003.899999996065},{"stimulus":"imagen_juego_interferencia.jpg","time":27503.899999996065},{"stimulus":"imagen_juego_interferencia.jpg","time":28003.899999996065},{"stimulus":"imagen_juego_interferencia.jpg","time":28504.699999990407},{"stimulus":"imagen_juego_interferencia.jpg","time":29004.799999995157},{"stimulus":"imagen_juego_interferencia.jpg","time":29504.39999999071},{"stimulus":"imagen_juego_interferencia.jpg","time":30004.199999995762},{"stimulus":"imagen_juego_interferencia.jpg","time":30504.000000000815},{"stimulus":"imagen_juego_interferencia.jpg","time":31003.29999999667},{"stimulus":"imagen_juego_interferencia.jpg","time":31503.700000001118},{"stimulus":"imagen_juego_interferencia.jpg","time":32003.19999999192},{"stimulus":"imagen_juego_interferencia.jpg","time":32504.000000000815},{"stimulus":"imagen_juego_interferencia.jpg","time":33004.19999999576},{"stimulus":"imagen_juego_interferencia.jpg","time":33504.000000000815},{"stimulus":"imagen_juego_interferencia.jpg","time":34003.59999999637},{"stimulus":"imagen_juego_interferencia.jpg","time":34503.19999999192},{"stimulus":"imagen_juego_interferencia.jpg","time":35003.49999999162}],"response":[],"trial_type":"animation","trial_index":66,"time_elapsed":913467,"internal_node_id":"0.0-13.0"},{"rt":6758.199999996577,"responses":"{\"pregunta interferencia4\":\"contador\"}","question_order":"[0]","trial_type":"survey-multi-choice-cuest","trial_index":67,"time_elapsed":920233,"internal_node_id":"0.0-14.0-0.0"},{"rt":7337.400000003981,"responses":"{\"pregunta interferencia2\":\"cucaracha\"}","question_order":"[0]","trial_type":"survey-multi-choice-cuest","trial_index":68,"time_elapsed":927573,"internal_node_id":"0.0-14.0-1.0"},{"rt":5476.999999998952,"responses":"{\"pregunta interferencia3\":\"aluminio\"}","question_order":"[0]","trial_type":"survey-multi-choice-cuest","trial_index":69,"time_elapsed":933055,"internal_node_id":"0.0-14.0-2.0"},{"rt":4319.499999997788,"responses":"{\"pregunta interferencia1\":\"plátano\"}","question_order":"[0]","trial_type":"survey-multi-choice-cuest","trial_index":70,"time_elapsed":937377,"internal_node_id":"0.0-14.0-3.0"},{"success":true,"trial_type":"fullscreen","trial_index":71,"time_elapsed":938380,"internal_node_id":"0.0-15.0"},{"rt":20269.899999999325,"responses":"{\"Telefono\":\"+56932398813\"}","trial_type":"survey-text","trial_index":72,"time_elapsed":958661,"internal_node_id":"0.0-16.0"}]