[{"rt":1712,"stimulus":"<h1 style=\"color:red; margin-top: 3%;\">¡Bienvenido(a)!</h1><p style=\"text-align:left; justify-content:space-between; margin-right: 5%; margin-left: 5%; margin-top: 5%\"> Antes de empezar el estudio, necesitamos que nos confirmes que estás de acuerdo con participar. Recuerda que tu participación es 100% voluntaria y que lo único que te pedimos es responder lo mejor que puedas. Recuerda también que el estudio incluye:</p><ol style=\"text-align:left; justify-content:space-between; margin-right: 5%; margin-left: 5%;\"><li> un ejercicio de resolución de preguntas de selección múltiple (30’),</li><li>un cuestionario breve (5’),</li><li>un juego muy breve (3’),</li></ol><p style=\"text-align:left; justify-content:space-between; margin-right: 5%; margin-left: 5%;\">Si quieres participar, haz clic en “Acepto” luego de leer lo siguiente:<br></p><p style=\"text-align:left; justify-content:space-between; margin-right: 5%; margin-left: 5%;\">Acepto participar en el estudio “Estrategias de lectura y resolución de preguntas de selección múltiple”, en los términos aquí señalados:<br></p><p style=\"text-align:left; justify-content:space-between; margin-right: 5%; margin-left: 5%;\"><a href=\"http://ciae.uchile.cl/download.php?file=noticias/Asentimiento.pdf\" target=\"_blank\">Link a la hoja de información del Consentimiento.</a></p><p style=\"text-align:left; justify-content:space-between; margin-right: 5%; margin-left: 5%;\">Declaro que he leído (o se me ha leído) y (he) comprendido, las condiciones de mi participación en este estudio. He tenido la oportunidad de hacer preguntas y éstas han sido respondidas. No tengo dudas al respecto.</p>","response":0,"condicion_MCQ":19,"condicion_JUEGO":59,"condicion_INTER":11,"numero_participante":59,"numero_version":3,"dimx":1440,"dimy":900,"color_profundidad":24,"pixel_profundidad":24,"Browser":"Apple Safari","dia":24,"mes":5,"hora":12,"minuto":57,"segundo":14,"trial_type":"html-button-response","trial_index":0,"time_elapsed":1714,"internal_node_id":"0.0-0.0"},{"success":true,"trial_type":"fullscreen","trial_index":1,"time_elapsed":3994,"internal_node_id":"0.0-1.0"},{"rt":63017.000000000015,"responses":"{\"Nombres\":\"veronica scarlet\",\"Apellidos\":\"Carrero echeverria\",\"Edad\":\"27\",\"Sexo\":\"mujer\",\"Curso\":\"100/BIOL080\",\"Colegio\":\"UNAB\",\"Contacto\":\"v.carreroecheverria@uandresbello.edu\"}","trial_type":"survey-text","trial_index":2,"time_elapsed":67047,"internal_node_id":"0.0-2.0"},{"success":true,"timeout":false,"failed_images":[],"failed_audio":[],"failed_video":[],"trial_type":"preload","trial_index":3,"time_elapsed":72200,"internal_node_id":"0.0-3.0"},{"rt":31895,"stimulus":"<h1 style:\"margin-top: 5%;\">Ejercicios de Comprensión de Lectura de la Universidad de Chile</h1><p style=\"font-size: 120%;\">En esta actividad, debes responder 20 preguntas de selección múltiple. Cada pregunta presenta 5 respuestas alternativas, pero sólo una de ellas es correcta. Por lo tanto, debes escoger una sola alternativa para cada pregunta. Además, debes reportar qué tan seguro(a) estás de la respuesta que das, con un:</p><ol style=\"font-size: 120%;text-align:left;margin-left: 40%;\"><li>No estoy seguro(a) para nada</li><li>No estoy muy seguro(a)</li><li>Estoy bastante seguro(a)</li><li>Estoy totalmente seguro(a)</li></ol><p style=\"font-size: 120%;\">Por favor lee bien los enunciados antes de responder. ¡Éxito!</p>","response":0,"trial_type":"html-button-response","trial_index":4,"time_elapsed":104096,"internal_node_id":"0.0-4.0"},{"rt":91207,"responses":"{\"pregunta13\":\"c) Bomberos debería tener acceso a un seguro médico, al que pueda recurrir en caso de accidente.\"}","question_order":"[0]","trial_type":"survey-multi-choice","trial_index":5,"time_elapsed":195307,"internal_node_id":"0.0-5.0-0.0"},{"rt":4895.999999999971,"response":{"pregunta13 likert":2},"question_order":[0],"trial_type":"survey-likert","trial_index":6,"time_elapsed":200205,"internal_node_id":"0.0-5.0-1.0"},{"rt":223032,"responses":"{\"pregunta12\":\"d) a partir de la manipulación del núcleo se han creado elementos químicos naturales.\"}","question_order":"[0]","trial_type":"survey-multi-choice","trial_index":7,"time_elapsed":423243,"internal_node_id":"0.0-5.0-2.0"},{"rt":2430,"response":{"pregunta12 likert":1},"question_order":[0],"trial_type":"survey-likert","trial_index":8,"time_elapsed":425676,"internal_node_id":"0.0-5.0-3.0"},{"rt":323058.99999999994,"responses":"{\"pregunta5\":\"a) El ser humano se comporta de acuerdo con las circunstancias.\"}","question_order":"[0]","trial_type":"survey-multi-choice","trial_index":9,"time_elapsed":748743,"internal_node_id":"0.0-5.0-4.0"},{"rt":2527.9999999998836,"response":{"pregunta5 likert":1},"question_order":[0],"trial_type":"survey-likert","trial_index":10,"time_elapsed":751273,"internal_node_id":"0.0-5.0-5.0"},{"rt":83563,"responses":"{\"pregunta20\":\"e) para el mexicano, la muerte es cotidiana.\"}","question_order":"[0]","trial_type":"survey-multi-choice","trial_index":11,"time_elapsed":834840,"internal_node_id":"0.0-5.0-6.0"},{"rt":5653,"response":{"pregunta20 likert":2},"question_order":[0],"trial_type":"survey-likert","trial_index":12,"time_elapsed":840495,"internal_node_id":"0.0-5.0-7.0"},{"rt":165126.99999999988,"responses":"{\"pregunta8\":\"b) Provocar el deseo de la adquisición vertiginosa.\"}","question_order":"[0]","trial_type":"survey-multi-choice","trial_index":13,"time_elapsed":1005629,"internal_node_id":"0.0-5.0-8.0"},{"rt":2348.9999999998836,"response":{"pregunta8 likert":2},"question_order":[0],"trial_type":"survey-likert","trial_index":14,"time_elapsed":1007980,"internal_node_id":"0.0-5.0-9.0"},{"rt":165232.00000000023,"responses":"{\"pregunta10\":\"b) Al premio merecido después de tantos esfuerzos.\"}","question_order":"[0]","trial_type":"survey-multi-choice","trial_index":15,"time_elapsed":1173219,"internal_node_id":"0.0-5.0-10.0"},{"rt":2138,"response":{"pregunta10 likert":1},"question_order":[0],"trial_type":"survey-likert","trial_index":16,"time_elapsed":1175360,"internal_node_id":"0.0-5.0-11.0"},{"rt":263226,"responses":"{\"pregunta7\":\"e) hedonistas y soñadores.\"}","question_order":"[0]","trial_type":"survey-multi-choice","trial_index":17,"time_elapsed":1438574,"internal_node_id":"0.0-5.0-12.0"},{"rt":2866,"response":{"pregunta7 likert":1},"question_order":[0],"trial_type":"survey-likert","trial_index":18,"time_elapsed":1441442,"internal_node_id":"0.0-5.0-13.0"},{"rt":218280,"responses":"{\"pregunta19\":\"a) la Muerte vaticina el futuro mediante gestos.\"}","question_order":"[0]","trial_type":"survey-multi-choice","trial_index":19,"time_elapsed":1659730,"internal_node_id":"0.0-5.0-14.0"},{"rt":1972,"response":{"pregunta19 likert":1},"question_order":[0],"trial_type":"survey-likert","trial_index":20,"time_elapsed":1661705,"internal_node_id":"0.0-5.0-15.0"},{"rt":197821.00000000023,"responses":"{\"pregunta15\":\"b) El receptor es el que posee la decisión sobre la publicidad.\"}","question_order":"[0]","trial_type":"survey-multi-choice","trial_index":21,"time_elapsed":1859533,"internal_node_id":"0.0-5.0-16.0"},{"rt":3176,"response":{"pregunta15 likert":1},"question_order":[0],"trial_type":"survey-likert","trial_index":22,"time_elapsed":1862712,"internal_node_id":"0.0-5.0-17.0"},{"rt":110297,"responses":"{\"pregunta18\":\"d) Se necesita un marco legal para delimitar lo público y lo privado en materia informativa.\"}","question_order":"[0]","trial_type":"survey-multi-choice","trial_index":23,"time_elapsed":1973014,"internal_node_id":"0.0-5.0-18.0"},{"rt":3649.999999999767,"response":{"pregunta18 likert":1},"question_order":[0],"trial_type":"survey-likert","trial_index":24,"time_elapsed":1976666,"internal_node_id":"0.0-5.0-19.0"},{"rt":181751,"responses":"{\"pregunta6\":\"a) preparar los recuerdos del mañana.\"}","question_order":"[0]","trial_type":"survey-multi-choice","trial_index":25,"time_elapsed":2158423,"internal_node_id":"0.0-5.0-20.0"},{"rt":2480,"response":{"pregunta6 likert":1},"question_order":[0],"trial_type":"survey-likert","trial_index":26,"time_elapsed":2160906,"internal_node_id":"0.0-5.0-21.0"},{"rt":171748,"responses":"{\"pregunta2\":\"b) A la relación entre civilización y sociedad.\"}","question_order":"[0]","trial_type":"survey-multi-choice","trial_index":27,"time_elapsed":2332662,"internal_node_id":"0.0-5.0-22.0"},{"rt":1963,"response":{"pregunta2 likert":1},"question_order":[0],"trial_type":"survey-likert","trial_index":28,"time_elapsed":2334628,"internal_node_id":"0.0-5.0-23.0"},{"rt":90753,"responses":"{\"pregunta14\":\"c) A la influencia de grupos que rechazaban su música.\"}","question_order":"[0]","trial_type":"survey-multi-choice","trial_index":29,"time_elapsed":2425384,"internal_node_id":"0.0-5.0-24.0"},{"rt":2177,"response":{"pregunta14 likert":1},"question_order":[0],"trial_type":"survey-likert","trial_index":30,"time_elapsed":2427561,"internal_node_id":"0.0-5.0-25.0"},{"rt":195787,"responses":"{\"pregunta11\":\"a) la muerte de Wu Ti fue una bendición.\"}","question_order":"[0]","trial_type":"survey-multi-choice","trial_index":31,"time_elapsed":2623339,"internal_node_id":"0.0-5.0-26.0"},{"rt":2242.0000000004657,"response":{"pregunta11 likert":1},"question_order":[0],"trial_type":"survey-likert","trial_index":32,"time_elapsed":2625584,"internal_node_id":"0.0-5.0-27.0"},{"rt":249863.00000000047,"responses":"{\"pregunta3\":\"e) En los viajes es esencial el momento mismo de la escritura.\"}","question_order":"[0]","trial_type":"survey-multi-choice","trial_index":33,"time_elapsed":2875455,"internal_node_id":"0.0-5.0-28.0"},{"rt":2267.0000000004657,"response":{"pregunta3 likert":1},"question_order":[0],"trial_type":"survey-likert","trial_index":34,"time_elapsed":2877726,"internal_node_id":"0.0-5.0-29.0"},{"rt":164706,"responses":"{\"pregunta17\":\"c) El TLC causará una completa transformación de la economía chilena.\"}","question_order":"[0]","trial_type":"survey-multi-choice","trial_index":35,"time_elapsed":3042437,"internal_node_id":"0.0-5.0-30.0"},{"rt":1939.9999999995343,"response":{"pregunta17 likert":1},"question_order":[0],"trial_type":"survey-likert","trial_index":36,"time_elapsed":3044380,"internal_node_id":"0.0-5.0-31.0"},{"rt":111683,"responses":"{\"pregunta9\":\"b) Homenajear a quienes murieron.\"}","question_order":"[0]","trial_type":"survey-multi-choice","trial_index":37,"time_elapsed":3156059,"internal_node_id":"0.0-5.0-32.0"},{"rt":2391.0000000004657,"response":{"pregunta9 likert":1},"question_order":[0],"trial_type":"survey-likert","trial_index":38,"time_elapsed":3158452,"internal_node_id":"0.0-5.0-33.0"},{"rt":126020,"responses":"{\"pregunta1\":\"e) Aportan informaciones con las que se reconstruye el personaje dentro de un relato.\"}","question_order":"[0]","trial_type":"survey-multi-choice","trial_index":39,"time_elapsed":3284477,"internal_node_id":"0.0-5.0-34.0"},{"rt":2880,"response":{"pregunta1 likert":1},"question_order":[0],"trial_type":"survey-likert","trial_index":40,"time_elapsed":3287360,"internal_node_id":"0.0-5.0-35.0"},{"rt":69637,"responses":"{\"pregunta4\":\"a) Promover la asistencia a un evento específico de decoración a través de una atractiva descripción.\"}","question_order":"[0]","trial_type":"survey-multi-choice","trial_index":41,"time_elapsed":3357001,"internal_node_id":"0.0-5.0-36.0"},{"rt":2274.9999999995343,"response":{"pregunta4 likert":1},"question_order":[0],"trial_type":"survey-likert","trial_index":42,"time_elapsed":3359278,"internal_node_id":"0.0-5.0-37.0"},{"rt":198496,"responses":"{\"pregunta16\":\"d) sufren dolores de espalda.\"}","question_order":"[0]","trial_type":"survey-multi-choice","trial_index":43,"time_elapsed":3557775,"internal_node_id":"0.0-5.0-38.0"},{"rt":3454,"response":{"pregunta16 likert":1},"question_order":[0],"trial_type":"survey-likert","trial_index":44,"time_elapsed":3561232,"internal_node_id":"0.0-5.0-39.0"},{"rt":4904,"stimulus":"<p style=\"font-size: 120%\">Gracias por completar esta etapa del estudio. Ahora te invitamos a responder el cuestionario.<br><br></p>","response":0,"trial_type":"html-button-response","trial_index":45,"time_elapsed":3566140,"internal_node_id":"0.0-6.0"},{"rt":29333.000000000466,"stimulus":"<h1 style=\"margin-top: 5%\">Cuestionario para la Evaluación de Metas Académicas</h1><p style=\"font-size: 120%; margin-left: 3%; margin-top: 5%\">Este es un cuestionario que permite conocer cuáles son los principales motivos por los que los estudiantes se esfuerzan en su trabajo académico. A continuación, se te presentarán una serie de afirmaciones acerca de los motivos que puedes tener para estudiar.<br>Te pedimos que contestes a dichas afirmaciones reflexionando sobre el contenido de cada una de ellas, que, aunque te parezcan semejantes, en realidad, no lo son.<br>NO HAY RESPUESTAS CORRECTAS o INCORRECTAS, sólo queremos que respondas con la mayor precisión y sinceridad posible a las preguntas que se plantean.","response":0,"trial_type":"html-button-response","trial_index":46,"time_elapsed":3595474,"internal_node_id":"0.0-7.0"},{"rt":254018.99999999953,"response":{"Metas cuestionario pregunta1":4,"Metas cuestionario pregunta2":4,"Metas cuestionario pregunta3":4,"Metas cuestionario pregunta4":4,"Metas cuestionario pregunta5":4,"Metas cuestionario pregunta6":3,"Metas cuestionario pregunta7":4,"Metas cuestionario pregunta8":3,"Metas cuestionario pregunta9":1,"Metas cuestionario pregunta10":1,"Metas cuestionario pregunta11":1,"Metas cuestionario pregunta12":2,"Metas cuestionario pregunta13":1,"Metas cuestionario pregunta14":1,"Metas cuestionario pregunta15":3,"Metas cuestionario pregunta16":3,"Metas cuestionario pregunta17":3,"Metas cuestionario pregunta18":4,"Metas cuestionario pregunta19":4,"Metas cuestionario pregunta20":3},"question_order":[0,1,2,3,4,5,6,7,8,9,10,11,12,13,14,15,16,17,18,19],"trial_type":"survey-likert","trial_index":47,"time_elapsed":3849508,"internal_node_id":"0.0-8.0"},{"rt":5058,"stimulus":"<p style=\"font-size: 120%\">Gracias por responder el cuestionario. Ahora te invitamos a seguir con el juego, que es muy breve.<br><br></p>","response":0,"trial_type":"html-button-response","trial_index":48,"time_elapsed":3854568,"internal_node_id":"0.0-9.0"},{"rt":9532,"stimulus":"<h1>Juego</h1><p style=\"font-size: 120%;\">A continuación se te presentarán 16 pequeñas historias.<br>Por favor lee el texto presentado en cada una de ellas y luego haz click en el objeto de tu elección.<br>Si estás listo(a),<span style=\"color:red;\"> haz click en \"comenzar\"</span>.</p>","response":0,"trial_type":"html-button-response","trial_index":49,"time_elapsed":3864101,"internal_node_id":"0.0-10.0"},{"rt":8588,"grid":[[1,1,1],[1,1,1],[1,1,1],[1,1,1],[1,1,1],[1,1,1],[1,1,1],[1,1,1],[1,1,1],[1,1,1],[1,1,1]],"target":[0,0],"response":[1,1],"correct":false,"juego":6,"trial_type":"serial-reaction-time-mouse","trial_index":50,"time_elapsed":3872695,"internal_node_id":"0.0-11.0-0.0"},{"rt":8809,"grid":[[1,1,1,1,1]],"target":[0,0],"response":[0,2],"correct":false,"juego":8,"trial_type":"serial-reaction-time-mouse","trial_index":51,"time_elapsed":3881507,"internal_node_id":"0.0-11.0-1.0"},{"rt":7578.999999999534,"grid":[[1,1,1,1,1]],"target":[0,0],"response":[0,3],"correct":false,"juego":7,"trial_type":"serial-reaction-time-mouse","trial_index":52,"time_elapsed":3889088,"internal_node_id":"0.0-11.0-2.0"},{"rt":10889,"grid":[[1,1,1,1,1]],"target":[0,0],"response":[0,2],"correct":false,"juego":3,"trial_type":"serial-reaction-time-mouse","trial_index":53,"time_elapsed":3899978,"internal_node_id":"0.0-11.0-3.0"},{"rt":23713.999999999534,"grid":[[1,1,1],[1,1,1],[1,1,1],[1,1,1],[1,1,1],[1,1,1],[1,1,1],[1,1,1],[1,1,1],[1,1,1],[1,1,1]],"target":[0,0],"response":[9,1],"correct":false,"juego":13,"trial_type":"serial-reaction-time-mouse","trial_index":54,"time_elapsed":3923696,"internal_node_id":"0.0-11.0-4.0"},{"rt":18048,"grid":[[1,1,1,1],[1,1,1,1],[1,1,1,1],[1,1,1,1],[1,1,1,1],[1,1,1,1],[1,1,1,1],[1,1,1,1],[1,1,1,1],[1,1,1,1],[1,1,1,1]],"target":[0,0],"response":[5,2],"correct":false,"juego":15,"trial_type":"serial-reaction-time-mouse","trial_index":55,"time_elapsed":3941748,"internal_node_id":"0.0-11.0-5.0"},{"rt":9696.999999999534,"grid":[[1,1,1],[1,1,1],[1,1,1],[1,1,1],[1,1,1],[1,1,1],[1,1,1],[1,1,1],[1,1,1],[1,1,1],[1,1,1]],"target":[0,0],"response":[9,0],"correct":false,"juego":10,"trial_type":"serial-reaction-time-mouse","trial_index":56,"time_elapsed":3951448,"internal_node_id":"0.0-11.0-6.0"},{"rt":18526,"grid":[[1,1,1,1,1]],"target":[0,0],"response":[0,1],"correct":false,"juego":12,"trial_type":"serial-reaction-time-mouse","trial_index":57,"time_elapsed":3969976,"internal_node_id":"0.0-11.0-7.0"},{"rt":8502,"grid":[[1,1,1,1,1]],"target":[0,0],"response":[0,2],"correct":false,"juego":11,"trial_type":"serial-reaction-time-mouse","trial_index":58,"time_elapsed":3978481,"internal_node_id":"0.0-11.0-8.0"},{"rt":3175,"grid":[[1,1,1],[1,1,1],[1,1,1],[1,1,1],[1,1,1],[1,1,1],[1,1,1],[1,1,1],[1,1,1],[1,1,1],[1,1,1]],"target":[0,0],"response":[5,1],"correct":false,"juego":5,"trial_type":"serial-reaction-time-mouse","trial_index":59,"time_elapsed":3981660,"internal_node_id":"0.0-11.0-9.0"},{"rt":10960,"grid":[[1,1,1,1],[1,1,1,1],[1,1,1,1],[1,1,1,1],[1,1,1,1],[1,1,1,1],[1,1,1,1],[1,1,1,1],[1,1,1,1],[1,1,1,1],[1,1,1,1]],"target":[0,0],"response":[1,2],"correct":false,"juego":14,"trial_type":"serial-reaction-time-mouse","trial_index":60,"time_elapsed":3992623,"internal_node_id":"0.0-11.0-10.0"},{"rt":5061,"grid":[[1,1,1,1,1]],"target":[0,0],"response":[0,3],"correct":false,"juego":2,"trial_type":"serial-reaction-time-mouse","trial_index":61,"time_elapsed":3997686,"internal_node_id":"0.0-11.0-11.0"},{"rt":9106,"grid":[[1,1,1,1,1]],"target":[0,0],"response":[0,3],"correct":false,"juego":9,"trial_type":"serial-reaction-time-mouse","trial_index":62,"time_elapsed":4006794,"internal_node_id":"0.0-11.0-12.0"},{"rt":7402,"grid":[[1,1,1,1,1]],"target":[0,0],"response":[0,1],"correct":false,"juego":1,"trial_type":"serial-reaction-time-mouse","trial_index":63,"time_elapsed":4014197,"internal_node_id":"0.0-11.0-13.0"},{"rt":1424,"grid":[[1],[1],[1],[1],[1]],"target":[0,0],"response":[3,0],"correct":false,"juego":4,"trial_type":"serial-reaction-time-mouse","trial_index":64,"time_elapsed":4015623,"internal_node_id":"0.0-11.0-14.0"},{"rt":7464.000000000466,"stimulus":"<h1>Último juego</h1><p style=\"font-size: 130%;\">Tienes <span style=\"color:red\">35</span> segundos para recordar los pares de palabras que aparecerán a continuación. <br></p>","response":0,"trial_type":"html-button-response","trial_index":65,"time_elapsed":4023090,"internal_node_id":"0.0-12.0"},{"animation_sequence":[{"stimulus":"imagen_juego_interferencia.jpg","time":506},{"stimulus":"imagen_juego_interferencia.jpg","time":1003},{"stimulus":"imagen_juego_interferencia.jpg","time":1504},{"stimulus":"imagen_juego_interferencia.jpg","time":2006},{"stimulus":"imagen_juego_interferencia.jpg","time":2507},{"stimulus":"imagen_juego_interferencia.jpg","time":3007},{"stimulus":"imagen_juego_interferencia.jpg","time":3508.0000000004657},{"stimulus":"imagen_juego_interferencia.jpg","time":4009},{"stimulus":"imagen_juego_interferencia.jpg","time":4510},{"stimulus":"imagen_juego_interferencia.jpg","time":5011},{"stimulus":"imagen_juego_interferencia.jpg","time":5512},{"stimulus":"imagen_juego_interferencia.jpg","time":6014},{"stimulus":"imagen_juego_interferencia.jpg","time":6514},{"stimulus":"imagen_juego_interferencia.jpg","time":7015},{"stimulus":"imagen_juego_interferencia.jpg","time":7516},{"stimulus":"imagen_juego_interferencia.jpg","time":8017.000000000466},{"stimulus":"imagen_juego_interferencia.jpg","time":8518},{"stimulus":"imagen_juego_interferencia.jpg","time":9019.000000000466},{"stimulus":"imagen_juego_interferencia.jpg","time":9520},{"stimulus":"imagen_juego_interferencia.jpg","time":10022},{"stimulus":"imagen_juego_interferencia.jpg","time":10523},{"stimulus":"imagen_juego_interferencia.jpg","time":11024},{"stimulus":"imagen_juego_interferencia.jpg","time":11525},{"stimulus":"imagen_juego_interferencia.jpg","time":12026.000000000466},{"stimulus":"imagen_juego_interferencia.jpg","time":12527},{"stimulus":"imagen_juego_interferencia.jpg","time":13028.000000000466},{"stimulus":"imagen_juego_interferencia.jpg","time":13530},{"stimulus":"imagen_juego_interferencia.jpg","time":14031},{"stimulus":"imagen_juego_interferencia.jpg","time":14532},{"stimulus":"imagen_juego_interferencia.jpg","time":15033},{"stimulus":"imagen_juego_interferencia.jpg","time":15534},{"stimulus":"imagen_juego_interferencia.jpg","time":16035},{"stimulus":"imagen_juego_interferencia.jpg","time":16536},{"stimulus":"imagen_juego_interferencia.jpg","time":17037.000000000466},{"stimulus":"imagen_juego_interferencia.jpg","time":17538},{"stimulus":"imagen_juego_interferencia.jpg","time":18039},{"stimulus":"imagen_juego_interferencia.jpg","time":18540},{"stimulus":"imagen_juego_interferencia.jpg","time":19041},{"stimulus":"imagen_juego_interferencia.jpg","time":19543},{"stimulus":"imagen_juego_interferencia.jpg","time":20044},{"stimulus":"imagen_juego_interferencia.jpg","time":20545},{"stimulus":"imagen_juego_interferencia.jpg","time":21046.000000000466},{"stimulus":"imagen_juego_interferencia.jpg","time":21547},{"stimulus":"imagen_juego_interferencia.jpg","time":22048},{"stimulus":"imagen_juego_interferencia.jpg","time":22549},{"stimulus":"imagen_juego_interferencia.jpg","time":23050},{"stimulus":"imagen_juego_interferencia.jpg","time":23551},{"stimulus":"imagen_juego_interferencia.jpg","time":24052},{"stimulus":"imagen_juego_interferencia.jpg","time":24553},{"stimulus":"imagen_juego_interferencia.jpg","time":25054},{"stimulus":"imagen_juego_interferencia.jpg","time":25555.000000000466},{"stimulus":"imagen_juego_interferencia.jpg","time":26056},{"stimulus":"imagen_juego_interferencia.jpg","time":26557.000000000466},{"stimulus":"imagen_juego_interferencia.jpg","time":27059},{"stimulus":"imagen_juego_interferencia.jpg","time":27560},{"stimulus":"imagen_juego_interferencia.jpg","time":28061},{"stimulus":"imagen_juego_interferencia.jpg","time":28561},{"stimulus":"imagen_juego_interferencia.jpg","time":29062},{"stimulus":"imagen_juego_interferencia.jpg","time":29563},{"stimulus":"imagen_juego_interferencia.jpg","time":30064.000000000466},{"stimulus":"imagen_juego_interferencia.jpg","time":30565},{"stimulus":"imagen_juego_interferencia.jpg","time":31066.000000000466},{"stimulus":"imagen_juego_interferencia.jpg","time":31567},{"stimulus":"imagen_juego_interferencia.jpg","time":32068},{"stimulus":"imagen_juego_interferencia.jpg","time":32569},{"stimulus":"imagen_juego_interferencia.jpg","time":33071},{"stimulus":"imagen_juego_interferencia.jpg","time":33572},{"stimulus":"imagen_juego_interferencia.jpg","time":34073},{"stimulus":"imagen_juego_interferencia.jpg","time":34574},{"stimulus":"imagen_juego_interferencia.jpg","time":35075.000000000466}],"response":[],"trial_type":"animation","trial_index":66,"time_elapsed":4058667,"internal_node_id":"0.0-13.0"},{"rt":13234,"responses":"{\"pregunta interferencia4\":\"conserje\"}","question_order":"[0]","trial_type":"survey-multi-choice-cuest","trial_index":67,"time_elapsed":4071904,"internal_node_id":"0.0-14.0-0.0"},{"rt":16561,"responses":"{\"pregunta interferencia1\":\"durazno\"}","question_order":"[0]","trial_type":"survey-multi-choice-cuest","trial_index":68,"time_elapsed":4088468,"internal_node_id":"0.0-14.0-1.0"},{"rt":5699,"responses":"{\"pregunta interferencia2\":\"saltamontes\"}","question_order":"[0]","trial_type":"survey-multi-choice-cuest","trial_index":69,"time_elapsed":4094170,"internal_node_id":"0.0-14.0-2.0"},{"rt":6450.999999999534,"responses":"{\"pregunta interferencia3\":\"aluminio\"}","question_order":"[0]","trial_type":"survey-multi-choice-cuest","trial_index":70,"time_elapsed":4100625,"internal_node_id":"0.0-14.0-3.0"},{"success":true,"trial_type":"fullscreen","trial_index":71,"time_elapsed":4101628,"internal_node_id":"0.0-15.0"}]