[{"rt":7024.000000000001,"stimulus":"<h1 style=\"color:red; margin-top: 3%;\">¡Bienvenido(a)!</h1><p style=\"text-align:left; justify-content:space-between; margin-right: 5%; margin-left: 5%; margin-top: 5%\"> Antes de empezar el estudio, necesitamos que nos confirmes que estás de acuerdo con participar. Recuerda que tu participación es 100% voluntaria y que lo único que te pedimos es responder lo mejor que puedas. Recuerda también que el estudio incluye:</p><ol style=\"text-align:left; justify-content:space-between; margin-right: 5%; margin-left: 5%;\"><li> un ejercicio de resolución de preguntas de selección múltiple (30’),</li><li>un cuestionario breve (5’),</li><li>un juego muy breve (3’),</li></ol><p style=\"text-align:left; justify-content:space-between; margin-right: 5%; margin-left: 5%;\">Si quieres participar, haz clic en “Acepto” luego de leer lo siguiente:<br></p><p style=\"text-align:left; justify-content:space-between; margin-right: 5%; margin-left: 5%;\">Acepto participar en el estudio “Estrategias de lectura y resolución de preguntas de selección múltiple”, en los términos aquí señalados:<br></p><p style=\"text-align:left; justify-content:space-between; margin-right: 5%; margin-left: 5%;\"><a href=\"http://ciae.uchile.cl/download.php?file=noticias/Asentimiento.pdf\" target=\"_blank\">Link a la hoja de información del Consentimiento.</a></p><p style=\"text-align:left; justify-content:space-between; margin-right: 5%; margin-left: 5%;\">Declaro que he leído (o se me ha leído) y (he) comprendido, las condiciones de mi participación en este estudio. He tenido la oportunidad de hacer preguntas y éstas han sido respondidas. No tengo dudas al respecto.</p>","response":0,"condicion_MCQ":4,"condicion_JUEGO":44,"condicion_INTER":20,"numero_participante":44,"numero_version":1,"dimx":375,"dimy":667,"color_profundidad":32,"pixel_profundidad":32,"Browser":"Apple Safari","dia":19,"mes":5,"hora":14,"minuto":58,"segundo":31,"trial_type":"html-button-response","trial_index":0,"time_elapsed":7032,"internal_node_id":"0.0-0.0"},{"success":true,"trial_type":"fullscreen","trial_index":1,"time_elapsed":14566,"internal_node_id":"0.0-1.0"},{"rt":141979,"responses":"{\"Nombres\":\"Antonnia \",\"Apellidos\":\"Ahumada Meza \",\"Edad\":\"20\",\"Sexo\":\"Mujer\",\"Curso\":\"200\",\"Colegio\":\"Andrés bello \",\"Contacto\":\"antop.meza@gmail.com\"}","trial_type":"survey-text","trial_index":2,"time_elapsed":156578,"internal_node_id":"0.0-2.0"},{"success":true,"timeout":false,"failed_images":[],"failed_audio":[],"failed_video":[],"trial_type":"preload","trial_index":3,"time_elapsed":157393,"internal_node_id":"0.0-3.0"},{"rt":13452,"stimulus":"<h1 style:\"margin-top: 5%;\">Ejercicios de Comprensión de Lectura de la Universidad de Chile</h1><p style=\"font-size: 120%;\">En esta actividad, debes responder 20 preguntas de selección múltiple. Cada pregunta presenta 5 respuestas alternativas, pero sólo una de ellas es correcta. Por lo tanto, debes escoger una sola alternativa para cada pregunta. Además, debes reportar qué tan seguro(a) estás de la respuesta que das, con un:</p><ol style=\"font-size: 120%;text-align:left;margin-left: 40%;\"><li>No estoy seguro(a) para nada</li><li>No estoy muy seguro(a)</li><li>Estoy bastante seguro(a)</li><li>Estoy totalmente seguro(a)</li></ol><p style=\"font-size: 120%;\">Por favor lee bien los enunciados antes de responder. ¡Éxito!</p>","response":0,"trial_type":"html-button-response","trial_index":4,"time_elapsed":170856,"internal_node_id":"0.0-4.0"},{"rt":32734,"responses":"{\"pregunta12\":\"b) a partir de la manipulación del núcleo se han creado elementos químicos naturales.\"}","question_order":"[0]","trial_type":"survey-multi-choice","trial_index":5,"time_elapsed":203602,"internal_node_id":"0.0-5.0-0.0"},{"rt":4050,"response":{"pregunta12 likert":1},"question_order":[0],"trial_type":"survey-likert","trial_index":6,"time_elapsed":207661,"internal_node_id":"0.0-5.0-1.0"},{"rt":45453,"responses":"{\"pregunta3\":\"c) La escritura plasma los mejores momentos de los viajes.\"}","question_order":"[0]","trial_type":"survey-multi-choice","trial_index":7,"time_elapsed":253118,"internal_node_id":"0.0-5.0-2.0"},{"rt":3254,"response":{"pregunta3 likert":2},"question_order":[0],"trial_type":"survey-likert","trial_index":8,"time_elapsed":256376,"internal_node_id":"0.0-5.0-3.0"},{"rt":52564,"responses":"{\"pregunta14\":\"c) A la temática satánica de las canciones del grupo.\"}","question_order":"[0]","trial_type":"survey-multi-choice","trial_index":9,"time_elapsed":308943,"internal_node_id":"0.0-5.0-4.0"},{"rt":1864,"response":{"pregunta14 likert":3},"question_order":[0],"trial_type":"survey-likert","trial_index":10,"time_elapsed":310812,"internal_node_id":"0.0-5.0-5.0"},{"rt":103439,"responses":"{\"pregunta16\":\"c) llevan un control grupal de su embarazo.\"}","question_order":"[0]","trial_type":"survey-multi-choice","trial_index":11,"time_elapsed":414250,"internal_node_id":"0.0-5.0-6.0"},{"rt":1846,"response":{"pregunta16 likert":2},"question_order":[0],"trial_type":"survey-likert","trial_index":12,"time_elapsed":416101,"internal_node_id":"0.0-5.0-7.0"},{"rt":30241,"responses":"{\"pregunta15\":\"a) El receptor es el que posee la decisión sobre la publicidad.\"}","question_order":"[0]","trial_type":"survey-multi-choice","trial_index":13,"time_elapsed":446346,"internal_node_id":"0.0-5.0-8.0"},{"rt":3572,"response":{"pregunta15 likert":3},"question_order":[0],"trial_type":"survey-likert","trial_index":14,"time_elapsed":449923,"internal_node_id":"0.0-5.0-9.0"},{"rt":34968,"responses":"{\"pregunta6\":\"a) un recuerdo nostálgico.\"}","question_order":"[0]","trial_type":"survey-multi-choice","trial_index":15,"time_elapsed":484892,"internal_node_id":"0.0-5.0-10.0"},{"rt":2521.999999999942,"response":{"pregunta6 likert":3},"question_order":[0],"trial_type":"survey-likert","trial_index":16,"time_elapsed":487417,"internal_node_id":"0.0-5.0-11.0"},{"rt":40830,"responses":"{\"pregunta18\":\"a) Se necesita un marco legal para delimitar lo público y lo privado en materia informativa.\"}","question_order":"[0]","trial_type":"survey-multi-choice","trial_index":17,"time_elapsed":528250,"internal_node_id":"0.0-5.0-12.0"},{"rt":3092,"response":{"pregunta18 likert":2},"question_order":[0],"trial_type":"survey-likert","trial_index":18,"time_elapsed":531345,"internal_node_id":"0.0-5.0-13.0"},{"rt":21059,"responses":"{\"pregunta17\":\"c) Será difícil que las empresas nacionales compitan con las estadounidenses.\"}","question_order":"[0]","trial_type":"survey-multi-choice","trial_index":19,"time_elapsed":552408,"internal_node_id":"0.0-5.0-14.0"},{"rt":1833.9999999998836,"response":{"pregunta17 likert":2},"question_order":[0],"trial_type":"survey-likert","trial_index":20,"time_elapsed":554245,"internal_node_id":"0.0-5.0-15.0"},{"rt":48129,"responses":"{\"pregunta1\":\"b) Manifiestan la importancia de que el personaje tenga independencia en el relato.\"}","question_order":"[0]","trial_type":"survey-multi-choice","trial_index":21,"time_elapsed":602378,"internal_node_id":"0.0-5.0-16.0"},{"rt":2487,"response":{"pregunta1 likert":1},"question_order":[0],"trial_type":"survey-likert","trial_index":22,"time_elapsed":604870,"internal_node_id":"0.0-5.0-17.0"},{"rt":42295.99999999988,"responses":"{\"pregunta7\":\"c) ritualistas y obsesivos.\"}","question_order":"[0]","trial_type":"survey-multi-choice","trial_index":23,"time_elapsed":647170,"internal_node_id":"0.0-5.0-18.0"},{"rt":2057,"response":{"pregunta7 likert":1},"question_order":[0],"trial_type":"survey-likert","trial_index":24,"time_elapsed":649232,"internal_node_id":"0.0-5.0-19.0"},{"rt":31288,"responses":"{\"pregunta2\":\"a) A la relación entre sociedad y constitución social.\"}","question_order":"[0]","trial_type":"survey-multi-choice","trial_index":25,"time_elapsed":680596,"internal_node_id":"0.0-5.0-20.0"},{"rt":3649.9999999998836,"response":{"pregunta2 likert":2},"question_order":[0],"trial_type":"survey-likert","trial_index":26,"time_elapsed":684249,"internal_node_id":"0.0-5.0-21.0"},{"rt":47426,"responses":"{\"pregunta4\":\"d) Presentar positivamente las diversas tendencias del diseño de interiores a través de un comentario.\"}","question_order":"[0]","trial_type":"survey-multi-choice","trial_index":27,"time_elapsed":731680,"internal_node_id":"0.0-5.0-22.0"},{"rt":1697,"response":{"pregunta4 likert":3},"question_order":[0],"trial_type":"survey-likert","trial_index":28,"time_elapsed":733381,"internal_node_id":"0.0-5.0-23.0"},{"rt":67751,"responses":"{\"pregunta9\":\"c) Homenajear a quienes murieron.\"}","question_order":"[0]","trial_type":"survey-multi-choice","trial_index":29,"time_elapsed":801136,"internal_node_id":"0.0-5.0-24.0"},{"rt":2425,"response":{"pregunta9 likert":2},"question_order":[0],"trial_type":"survey-likert","trial_index":30,"time_elapsed":803567,"internal_node_id":"0.0-5.0-25.0"},{"rt":48909.99999999988,"responses":"{\"pregunta20\":\"b) para el mexicano, la muerte es como una mujer.\"}","question_order":"[0]","trial_type":"survey-multi-choice","trial_index":31,"time_elapsed":852482,"internal_node_id":"0.0-5.0-26.0"},{"rt":2349.0000000001164,"response":{"pregunta20 likert":2},"question_order":[0],"trial_type":"survey-likert","trial_index":32,"time_elapsed":854836,"internal_node_id":"0.0-5.0-27.0"},{"rt":34577.99999999988,"responses":"{\"pregunta10\":\"d) Al premio merecido después de tantos esfuerzos.\"}","question_order":"[0]","trial_type":"survey-multi-choice","trial_index":33,"time_elapsed":889418,"internal_node_id":"0.0-5.0-28.0"},{"rt":1827,"response":{"pregunta10 likert":3},"question_order":[0],"trial_type":"survey-likert","trial_index":34,"time_elapsed":891249,"internal_node_id":"0.0-5.0-29.0"},{"rt":109129,"responses":"{\"pregunta11\":\"c) el Primer Ministro debía morir por ambicioso.\"}","question_order":"[0]","trial_type":"survey-multi-choice","trial_index":35,"time_elapsed":1000381,"internal_node_id":"0.0-5.0-30.0"},{"rt":4537.000000000116,"response":{"pregunta11 likert":2},"question_order":[0],"trial_type":"survey-likert","trial_index":36,"time_elapsed":1004923,"internal_node_id":"0.0-5.0-31.0"},{"rt":66632,"responses":"{\"pregunta5\":\"e) El concepto de normalidad es diferente para un psiquiatra que para nosotros.\"}","question_order":"[0]","trial_type":"survey-multi-choice","trial_index":37,"time_elapsed":1071559,"internal_node_id":"0.0-5.0-32.0"},{"rt":2085,"response":{"pregunta5 likert":1},"question_order":[0],"trial_type":"survey-likert","trial_index":38,"time_elapsed":1073649,"internal_node_id":"0.0-5.0-33.0"},{"rt":50496,"responses":"{\"pregunta8\":\"d) Deleitar a sus receptores por medio de la belleza y el confort.\"}","question_order":"[0]","trial_type":"survey-multi-choice","trial_index":39,"time_elapsed":1124149,"internal_node_id":"0.0-5.0-34.0"},{"rt":4025,"response":{"pregunta8 likert":1},"question_order":[0],"trial_type":"survey-likert","trial_index":40,"time_elapsed":1128180,"internal_node_id":"0.0-5.0-35.0"},{"rt":79799,"responses":"{\"pregunta19\":\"a) el jardinero estará muerto al día siguiente.\"}","question_order":"[0]","trial_type":"survey-multi-choice","trial_index":41,"time_elapsed":1207982,"internal_node_id":"0.0-5.0-36.0"},{"rt":1781,"response":{"pregunta19 likert":3},"question_order":[0],"trial_type":"survey-likert","trial_index":42,"time_elapsed":1209767,"internal_node_id":"0.0-5.0-37.0"},{"rt":107349,"responses":"{\"pregunta13\":\"a) Los seguros médicos deberían considerar el ingreso de Bomberos, pues son los que más los necesitan.\"}","question_order":"[0]","trial_type":"survey-multi-choice","trial_index":43,"time_elapsed":1317119,"internal_node_id":"0.0-5.0-38.0"},{"rt":3194,"response":{"pregunta13 likert":3},"question_order":[0],"trial_type":"survey-likert","trial_index":44,"time_elapsed":1320317,"internal_node_id":"0.0-5.0-39.0"},{"rt":2170,"stimulus":"<p style=\"font-size: 120%\">Gracias por completar esta etapa del estudio. Ahora te invitamos a responder el cuestionario.<br><br></p>","response":0,"trial_type":"html-button-response","trial_index":45,"time_elapsed":1322503,"internal_node_id":"0.0-6.0"},{"rt":6483,"stimulus":"<h1 style=\"margin-top: 5%\">Cuestionario para la Evaluación de Metas Académicas</h1><p style=\"font-size: 120%; margin-left: 3%; margin-top: 5%\">Este es un cuestionario que permite conocer cuáles son los principales motivos por los que los estudiantes se esfuerzan en su trabajo académico. A continuación, se te presentarán una serie de afirmaciones acerca de los motivos que puedes tener para estudiar.<br>Te pedimos que contestes a dichas afirmaciones reflexionando sobre el contenido de cada una de ellas, que, aunque te parezcan semejantes, en realidad, no lo son.<br>NO HAY RESPUESTAS CORRECTAS o INCORRECTAS, sólo queremos que respondas con la mayor precisión y sinceridad posible a las preguntas que se plantean.","response":0,"trial_type":"html-button-response","trial_index":46,"time_elapsed":1328991,"internal_node_id":"0.0-7.0"},{"rt":240087,"response":{"Metas cuestionario pregunta1":4,"Metas cuestionario pregunta2":4,"Metas cuestionario pregunta3":4,"Metas cuestionario pregunta4":4,"Metas cuestionario pregunta5":4,"Metas cuestionario pregunta6":4,"Metas cuestionario pregunta7":4,"Metas cuestionario pregunta8":3,"Metas cuestionario pregunta9":1,"Metas cuestionario pregunta10":0,"Metas cuestionario pregunta11":0,"Metas cuestionario pregunta12":0,"Metas cuestionario pregunta13":1,"Metas cuestionario pregunta14":0,"Metas cuestionario pregunta15":3,"Metas cuestionario pregunta16":3,"Metas cuestionario pregunta17":4,"Metas cuestionario pregunta18":4,"Metas cuestionario pregunta19":3,"Metas cuestionario pregunta20":3},"question_order":[0,1,2,3,4,5,6,7,8,9,10,11,12,13,14,15,16,17,18,19],"trial_type":"survey-likert","trial_index":47,"time_elapsed":1569095,"internal_node_id":"0.0-8.0"},{"rt":2527,"stimulus":"<p style=\"font-size: 120%\">Gracias por responder el cuestionario. Ahora te invitamos a seguir con el juego, que es muy breve.<br><br></p>","response":0,"trial_type":"html-button-response","trial_index":48,"time_elapsed":1571628,"internal_node_id":"0.0-9.0"},{"rt":1449,"stimulus":"<h1>Juego</h1><p style=\"font-size: 120%;\">A continuación se te presentarán 16 pequeñas historias.<br>Por favor lee el texto presentado en cada una de ellas y luego haz click en el objeto de tu elección.<br>Si estás listo(a),<span style=\"color:red;\"> haz click en \"comenzar\"</span>.</p>","response":0,"trial_type":"html-button-response","trial_index":49,"time_elapsed":1573082,"internal_node_id":"0.0-10.0"},{"rt":28793,"grid":[[1,1,1,1,1]],"target":[0,0],"response":[0,1],"correct":false,"juego":7,"trial_type":"serial-reaction-time-mouse","trial_index":50,"time_elapsed":1601882,"internal_node_id":"0.0-11.0-0.0"},{"rt":89061.99999999977,"grid":[[1,1,1,1,1]],"target":[0,0],"response":[0,3],"correct":false,"juego":8,"trial_type":"serial-reaction-time-mouse","trial_index":51,"time_elapsed":1690947,"internal_node_id":"0.0-11.0-1.0"},{"rt":34415,"grid":[[1,1,1,1,1]],"target":[0,0],"response":[0,1],"correct":false,"juego":3,"trial_type":"serial-reaction-time-mouse","trial_index":52,"time_elapsed":1725368,"internal_node_id":"0.0-11.0-2.0"},{"rt":5659.999999999767,"grid":[[1,1,1,1,1]],"target":[0,0],"response":[0,2],"correct":false,"juego":9,"trial_type":"serial-reaction-time-mouse","trial_index":53,"time_elapsed":1731034,"internal_node_id":"0.0-11.0-3.0"},{"rt":16250,"grid":[[1,1,1],[1,1,1],[1,1,1],[1,1,1],[1,1,1],[1,1,1],[1,1,1],[1,1,1],[1,1,1],[1,1,1],[1,1,1]],"target":[0,0],"response":[5,1],"correct":false,"juego":13,"trial_type":"serial-reaction-time-mouse","trial_index":54,"time_elapsed":1747299,"internal_node_id":"0.0-11.0-4.0"},{"rt":7847,"grid":[[1,1,1,1,1]],"target":[0,0],"response":[0,3],"correct":false,"juego":1,"trial_type":"serial-reaction-time-mouse","trial_index":55,"time_elapsed":1755150,"internal_node_id":"0.0-11.0-5.0"},{"rt":10494,"grid":[[1,1,1],[1,1,1],[1,1,1],[1,1,1],[1,1,1],[1,1,1],[1,1,1],[1,1,1],[1,1,1],[1,1,1],[1,1,1]],"target":[0,0],"response":[1,0],"correct":false,"juego":10,"trial_type":"serial-reaction-time-mouse","trial_index":56,"time_elapsed":1765654,"internal_node_id":"0.0-11.0-6.0"},{"rt":41535,"grid":[[1,1,1,1],[1,1,1,1],[1,1,1,1],[1,1,1,1],[1,1,1,1],[1,1,1,1],[1,1,1,1],[1,1,1,1],[1,1,1,1],[1,1,1,1],[1,1,1,1]],"target":[0,0],"response":[1,2],"correct":false,"juego":14,"trial_type":"serial-reaction-time-mouse","trial_index":57,"time_elapsed":1807204,"internal_node_id":"0.0-11.0-7.0"},{"rt":5207,"grid":[[1,1,1],[1,1,1],[1,1,1],[1,1,1],[1,1,1],[1,1,1],[1,1,1],[1,1,1],[1,1,1],[1,1,1],[1,1,1]],"target":[0,0],"response":[5,1],"correct":false,"juego":5,"trial_type":"serial-reaction-time-mouse","trial_index":58,"time_elapsed":1812430,"internal_node_id":"0.0-11.0-8.0"},{"rt":3837,"grid":[[1,1,1,1,1]],"target":[0,0],"response":[0,0],"correct":true,"juego":2,"trial_type":"serial-reaction-time-mouse","trial_index":59,"time_elapsed":1816270,"internal_node_id":"0.0-11.0-9.0"},{"rt":9726.999999999767,"grid":[[1,1,1,1,1]],"target":[0,0],"response":[0,3],"correct":false,"juego":11,"trial_type":"serial-reaction-time-mouse","trial_index":60,"time_elapsed":1826001,"internal_node_id":"0.0-11.0-10.0"},{"rt":2989,"grid":[[1,1,1],[1,1,1],[1,1,1],[1,1,1],[1,1,1],[1,1,1],[1,1,1],[1,1,1],[1,1,1],[1,1,1],[1,1,1]],"target":[0,0],"response":[3,1],"correct":false,"juego":6,"trial_type":"serial-reaction-time-mouse","trial_index":61,"time_elapsed":1829004,"internal_node_id":"0.0-11.0-11.0"},{"rt":21010,"grid":[[1,1,1,1,1]],"target":[0,0],"response":[0,3],"correct":false,"juego":12,"trial_type":"serial-reaction-time-mouse","trial_index":62,"time_elapsed":1850018,"internal_node_id":"0.0-11.0-12.0"},{"rt":7278,"grid":[[1,1,1,1],[1,1,1,1],[1,1,1,1],[1,1,1,1],[1,1,1,1],[1,1,1,1],[1,1,1,1],[1,1,1,1],[1,1,1,1],[1,1,1,1],[1,1,1,1]],"target":[0,0],"response":[3,2],"correct":false,"juego":15,"trial_type":"serial-reaction-time-mouse","trial_index":63,"time_elapsed":1857305,"internal_node_id":"0.0-11.0-13.0"},{"rt":3139.999999999767,"grid":[[1],[1],[1],[1],[1]],"target":[0,0],"response":[1,0],"correct":false,"juego":4,"trial_type":"serial-reaction-time-mouse","trial_index":64,"time_elapsed":1860452,"internal_node_id":"0.0-11.0-14.0"},{"rt":4861,"stimulus":"<h1>Último juego</h1><p style=\"font-size: 130%;\">Tienes <span style=\"color:red\">35</span> segundos para recordar los pares de palabras que aparecerán a continuación. <br></p>","response":0,"trial_type":"html-button-response","trial_index":65,"time_elapsed":1865324,"internal_node_id":"0.0-12.0"},{"animation_sequence":[{"stimulus":"imagen_juego_interferencia.jpg","time":524},{"stimulus":"imagen_juego_interferencia.jpg","time":1014},{"stimulus":"imagen_juego_interferencia.jpg","time":1522.0000000002328},{"stimulus":"imagen_juego_interferencia.jpg","time":2016},{"stimulus":"imagen_juego_interferencia.jpg","time":2517},{"stimulus":"imagen_juego_interferencia.jpg","time":3018},{"stimulus":"imagen_juego_interferencia.jpg","time":3520},{"stimulus":"imagen_juego_interferencia.jpg","time":4021.000000000233},{"stimulus":"imagen_juego_interferencia.jpg","time":4522.000000000233},{"stimulus":"imagen_juego_interferencia.jpg","time":5024},{"stimulus":"imagen_juego_interferencia.jpg","time":5525},{"stimulus":"imagen_juego_interferencia.jpg","time":6026},{"stimulus":"imagen_juego_interferencia.jpg","time":6527},{"stimulus":"imagen_juego_interferencia.jpg","time":7028},{"stimulus":"imagen_juego_interferencia.jpg","time":7529},{"stimulus":"imagen_juego_interferencia.jpg","time":8031.000000000233},{"stimulus":"imagen_juego_interferencia.jpg","time":8531.000000000233},{"stimulus":"imagen_juego_interferencia.jpg","time":9033},{"stimulus":"imagen_juego_interferencia.jpg","time":9535},{"stimulus":"imagen_juego_interferencia.jpg","time":10036},{"stimulus":"imagen_juego_interferencia.jpg","time":10537},{"stimulus":"imagen_juego_interferencia.jpg","time":11038},{"stimulus":"imagen_juego_interferencia.jpg","time":11539},{"stimulus":"imagen_juego_interferencia.jpg","time":12040},{"stimulus":"imagen_juego_interferencia.jpg","time":12542},{"stimulus":"imagen_juego_interferencia.jpg","time":13043},{"stimulus":"imagen_juego_interferencia.jpg","time":13544},{"stimulus":"imagen_juego_interferencia.jpg","time":14045},{"stimulus":"imagen_juego_interferencia.jpg","time":14546},{"stimulus":"imagen_juego_interferencia.jpg","time":15047},{"stimulus":"imagen_juego_interferencia.jpg","time":15548},{"stimulus":"imagen_juego_interferencia.jpg","time":16050.000000000233},{"stimulus":"imagen_juego_interferencia.jpg","time":16551.000000000233},{"stimulus":"imagen_juego_interferencia.jpg","time":17052},{"stimulus":"imagen_juego_interferencia.jpg","time":17553},{"stimulus":"imagen_juego_interferencia.jpg","time":18055},{"stimulus":"imagen_juego_interferencia.jpg","time":18559},{"stimulus":"imagen_juego_interferencia.jpg","time":19057},{"stimulus":"imagen_juego_interferencia.jpg","time":19559},{"stimulus":"imagen_juego_interferencia.jpg","time":20059},{"stimulus":"imagen_juego_interferencia.jpg","time":20560.000000000233},{"stimulus":"imagen_juego_interferencia.jpg","time":21062},{"stimulus":"imagen_juego_interferencia.jpg","time":21563},{"stimulus":"imagen_juego_interferencia.jpg","time":22063},{"stimulus":"imagen_juego_interferencia.jpg","time":22565},{"stimulus":"imagen_juego_interferencia.jpg","time":23066},{"stimulus":"imagen_juego_interferencia.jpg","time":23568},{"stimulus":"imagen_juego_interferencia.jpg","time":24068},{"stimulus":"imagen_juego_interferencia.jpg","time":24568},{"stimulus":"imagen_juego_interferencia.jpg","time":25069.000000000233},{"stimulus":"imagen_juego_interferencia.jpg","time":25571},{"stimulus":"imagen_juego_interferencia.jpg","time":26072},{"stimulus":"imagen_juego_interferencia.jpg","time":26573},{"stimulus":"imagen_juego_interferencia.jpg","time":27074},{"stimulus":"imagen_juego_interferencia.jpg","time":27574},{"stimulus":"imagen_juego_interferencia.jpg","time":28076},{"stimulus":"imagen_juego_interferencia.jpg","time":28577},{"stimulus":"imagen_juego_interferencia.jpg","time":29078},{"stimulus":"imagen_juego_interferencia.jpg","time":29579.000000000233},{"stimulus":"imagen_juego_interferencia.jpg","time":30080},{"stimulus":"imagen_juego_interferencia.jpg","time":30581},{"stimulus":"imagen_juego_interferencia.jpg","time":31082},{"stimulus":"imagen_juego_interferencia.jpg","time":31584},{"stimulus":"imagen_juego_interferencia.jpg","time":32085},{"stimulus":"imagen_juego_interferencia.jpg","time":32586},{"stimulus":"imagen_juego_interferencia.jpg","time":33087},{"stimulus":"imagen_juego_interferencia.jpg","time":33588},{"stimulus":"imagen_juego_interferencia.jpg","time":34089.00000000023},{"stimulus":"imagen_juego_interferencia.jpg","time":34591},{"stimulus":"imagen_juego_interferencia.jpg","time":35092}],"response":[],"trial_type":"animation","trial_index":66,"time_elapsed":1900923,"internal_node_id":"0.0-13.0"},{"rt":7310,"responses":"{\"pregunta interferencia3\":\"plata\"}","question_order":"[0]","trial_type":"survey-multi-choice-cuest","trial_index":67,"time_elapsed":1908241,"internal_node_id":"0.0-14.0-0.0"},{"rt":5828,"responses":"{\"pregunta interferencia4\":\"dentista\"}","question_order":"[0]","trial_type":"survey-multi-choice-cuest","trial_index":68,"time_elapsed":1914074,"internal_node_id":"0.0-14.0-1.0"},{"rt":7357.000000000233,"responses":"{\"pregunta interferencia1\":\"plátano\"}","question_order":"[0]","trial_type":"survey-multi-choice-cuest","trial_index":69,"time_elapsed":1921435,"internal_node_id":"0.0-14.0-2.0"},{"rt":5049,"responses":"{\"pregunta interferencia2\":\"saltamontes\"}","question_order":"[0]","trial_type":"survey-multi-choice-cuest","trial_index":70,"time_elapsed":1926488,"internal_node_id":"0.0-14.0-3.0"},{"success":true,"trial_type":"fullscreen","trial_index":71,"time_elapsed":1927495,"internal_node_id":"0.0-15.0"},{"rt":6054,"responses":"{\"Telefono\":\"964221495\"}","trial_type":"survey-text","trial_index":72,"time_elapsed":1933573,"internal_node_id":"0.0-16.0"}]