[{"rt":3627.7999999947497,"stimulus":"<h1 style=\"color:red; margin-top: 3%;\">¡Bienvenido(a)!</h1><p style=\"text-align:left; justify-content:space-between; margin-right: 5%; margin-left: 5%; margin-top: 5%\"> Antes de empezar el estudio, necesitamos que nos confirmes que estás de acuerdo con participar. Recuerda que tu participación es 100% voluntaria y que lo único que te pedimos es responder lo mejor que puedas. Recuerda también que el estudio incluye:</p><ol style=\"text-align:left; justify-content:space-between; margin-right: 5%; margin-left: 5%;\"><li> un ejercicio de resolución de preguntas de selección múltiple (30’),</li><li>un cuestionario breve (5’),</li><li>un juego muy breve (3’),</li></ol><p style=\"text-align:left; justify-content:space-between; margin-right: 5%; margin-left: 5%;\">Si quieres participar, haz clic en “Acepto” luego de leer lo siguiente:<br></p><p style=\"text-align:left; justify-content:space-between; margin-right: 5%; margin-left: 5%;\">Acepto participar en el estudio “Estrategias de lectura y resolución de preguntas de selección múltiple”, en los términos aquí señalados:<br></p><p style=\"text-align:left; justify-content:space-between; margin-right: 5%; margin-left: 5%;\"><a href=\"http://ciae.uchile.cl/download.php?file=noticias/Asentimiento.pdf\" target=\"_blank\">Link a la hoja de información del Consentimiento.</a></p><p style=\"text-align:left; justify-content:space-between; margin-right: 5%; margin-left: 5%;\">Declaro que he leído (o se me ha leído) y (he) comprendido, las condiciones de mi participación en este estudio. He tenido la oportunidad de hacer preguntas y éstas han sido respondidas. No tengo dudas al respecto.</p>","response":0,"condicion_MCQ":16,"condicion_JUEGO":36,"condicion_INTER":12,"numero_participante":36,"numero_version":5,"dimx":412,"dimy":846,"color_profundidad":24,"pixel_profundidad":24,"Browser":"Google Chrome","dia":24,"mes":5,"hora":11,"minuto":30,"segundo":22,"trial_type":"html-button-response","trial_index":0,"time_elapsed":3640,"internal_node_id":"0.0-0.0"},{"success":true,"trial_type":"fullscreen","trial_index":1,"time_elapsed":6552,"internal_node_id":"0.0-1.0"},{"rt":61425.29999999533,"responses":"{\"Nombres\":\"Paulett Aline \",\"Apellidos\":\"Valdebenito Sanhueza \",\"Edad\":\"21\",\"Sexo\":\"Mujer \",\"Curso\":\"1236\",\"Colegio\":\"Andres Bello \",\"Contacto\":\"Paulett.aline@gmail.com \"}","trial_type":"survey-text","trial_index":2,"time_elapsed":68025,"internal_node_id":"0.0-2.0"},{"success":true,"timeout":false,"failed_images":[],"failed_audio":[],"failed_video":[],"trial_type":"preload","trial_index":3,"time_elapsed":74088,"internal_node_id":"0.0-3.0"},{"rt":16943.899999998393,"stimulus":"<h1 style:\"margin-top: 5%;\">Ejercicios de Comprensión de Lectura de la Universidad de Chile</h1><p style=\"font-size: 120%;\">En esta actividad, debes responder 20 preguntas de selección múltiple. Cada pregunta presenta 5 respuestas alternativas, pero sólo una de ellas es correcta. Por lo tanto, debes escoger una sola alternativa para cada pregunta. Además, debes reportar qué tan seguro(a) estás de la respuesta que das, con un:</p><ol style=\"font-size: 120%;text-align:left;margin-left: 40%;\"><li>No estoy seguro(a) para nada</li><li>No estoy muy seguro(a)</li><li>Estoy bastante seguro(a)</li><li>Estoy totalmente seguro(a)</li></ol><p style=\"font-size: 120%;\">Por favor lee bien los enunciados antes de responder. ¡Éxito!</p>","response":0,"trial_type":"html-button-response","trial_index":4,"time_elapsed":91038,"internal_node_id":"0.0-4.0"},{"rt":38769.899999999325,"responses":"{\"pregunta17\":\"c) Nuestra economía vivirá un proceso de ajuste a la nueva realidad.\"}","question_order":"[0]","trial_type":"survey-multi-choice","trial_index":5,"time_elapsed":129817,"internal_node_id":"0.0-5.0-0.0"},{"rt":4858.800000001793,"response":{"pregunta17 likert":2},"question_order":[0],"trial_type":"survey-likert","trial_index":6,"time_elapsed":134687,"internal_node_id":"0.0-5.0-1.0"},{"rt":35237.90000000008,"responses":"{\"pregunta20\":\"c) la muerte es distinta en las grandes ciudades.\"}","question_order":"[0]","trial_type":"survey-multi-choice","trial_index":7,"time_elapsed":169934,"internal_node_id":"0.0-5.0-2.0"},{"rt":3093.9999999973224,"response":{"pregunta20 likert":3},"question_order":[0],"trial_type":"survey-likert","trial_index":8,"time_elapsed":173036,"internal_node_id":"0.0-5.0-3.0"},{"rt":26334.999999999127,"responses":"{\"pregunta13\":\"c) Se debe crear un seguro médico especial para esta institución, pues es de alto riesgo.\"}","question_order":"[0]","trial_type":"survey-multi-choice","trial_index":9,"time_elapsed":199380,"internal_node_id":"0.0-5.0-4.0"},{"rt":3061.600000000908,"response":{"pregunta13 likert":3},"question_order":[0],"trial_type":"survey-likert","trial_index":10,"time_elapsed":202450,"internal_node_id":"0.0-5.0-5.0"},{"rt":24199.49999999517,"responses":"{\"pregunta2\":\"b) A la relación entre sociología y sociedad.\"}","question_order":"[0]","trial_type":"survey-multi-choice","trial_index":11,"time_elapsed":226659,"internal_node_id":"0.0-5.0-6.0"},{"rt":2315.199999997276,"response":{"pregunta2 likert":2},"question_order":[0],"trial_type":"survey-likert","trial_index":12,"time_elapsed":228982,"internal_node_id":"0.0-5.0-7.0"},{"rt":15962.199999994482,"responses":"{\"pregunta4\":\"c) Presentar positivamente las diversas tendencias del diseño de interiores a través de un comentario.\"}","question_order":"[0]","trial_type":"survey-multi-choice","trial_index":13,"time_elapsed":244953,"internal_node_id":"0.0-5.0-8.0"},{"rt":2503.7999999985914,"response":{"pregunta4 likert":3},"question_order":[0],"trial_type":"survey-likert","trial_index":14,"time_elapsed":247466,"internal_node_id":"0.0-5.0-9.0"},{"rt":5145.8999999958905,"responses":"{\"pregunta3\":\"b) La escritura plasma los mejores momentos de los viajes.\"}","question_order":"[0]","trial_type":"survey-multi-choice","trial_index":15,"time_elapsed":252621,"internal_node_id":"0.0-5.0-10.0"},{"rt":2501.400000001013,"response":{"pregunta3 likert":2},"question_order":[0],"trial_type":"survey-likert","trial_index":16,"time_elapsed":255130,"internal_node_id":"0.0-5.0-11.0"},{"rt":44184.000000001106,"responses":"{\"pregunta19\":\"b) la Muerte vaticina el futuro mediante gestos.\"}","question_order":"[0]","trial_type":"survey-multi-choice","trial_index":17,"time_elapsed":299321,"internal_node_id":"0.0-5.0-12.0"},{"rt":2173.0999999999767,"response":{"pregunta19 likert":2},"question_order":[0],"trial_type":"survey-likert","trial_index":18,"time_elapsed":301502,"internal_node_id":"0.0-5.0-13.0"},{"rt":5451.099999998405,"responses":"{\"pregunta6\":\"c) un conjunto de imágenes de recuerdos gratos.\"}","question_order":"[0]","trial_type":"survey-multi-choice","trial_index":19,"time_elapsed":306961,"internal_node_id":"0.0-5.0-14.0"},{"rt":2014.2999999952735,"response":{"pregunta6 likert":2},"question_order":[0],"trial_type":"survey-likert","trial_index":20,"time_elapsed":308983,"internal_node_id":"0.0-5.0-15.0"},{"rt":3672.899999997753,"responses":"{\"pregunta8\":\"b) Mostrar cuerpos que reflejan la máxima potencia.\"}","question_order":"[0]","trial_type":"survey-multi-choice","trial_index":21,"time_elapsed":312665,"internal_node_id":"0.0-5.0-16.0"},{"rt":1945.8000000013271,"response":{"pregunta8 likert":1},"question_order":[0],"trial_type":"survey-likert","trial_index":22,"time_elapsed":314619,"internal_node_id":"0.0-5.0-17.0"},{"rt":2442.1999999976833,"responses":"{\"pregunta7\":\"c) religiosos y precavidos.\"}","question_order":"[0]","trial_type":"survey-multi-choice","trial_index":23,"time_elapsed":317070,"internal_node_id":"0.0-5.0-18.0"},{"rt":1978.7999999971362,"response":{"pregunta7 likert":1},"question_order":[0],"trial_type":"survey-likert","trial_index":24,"time_elapsed":319057,"internal_node_id":"0.0-5.0-19.0"},{"rt":7467.900000003283,"responses":"{\"pregunta9\":\"b) Revivir un periodo histórico.\"}","question_order":"[0]","trial_type":"survey-multi-choice","trial_index":25,"time_elapsed":326533,"internal_node_id":"0.0-5.0-20.0"},{"rt":2110.5999999999767,"response":{"pregunta9 likert":2},"question_order":[0],"trial_type":"survey-likert","trial_index":26,"time_elapsed":328653,"internal_node_id":"0.0-5.0-21.0"},{"rt":7447.20000000234,"responses":"{\"pregunta12\":\"d) la creación de elementos químicos artificiales ha resultado de la manipulación del uranio.\"}","question_order":"[0]","trial_type":"survey-multi-choice","trial_index":27,"time_elapsed":336109,"internal_node_id":"0.0-5.0-22.0"},{"rt":2545.9999999948195,"response":{"pregunta12 likert":1},"question_order":[0],"trial_type":"survey-likert","trial_index":28,"time_elapsed":338664,"internal_node_id":"0.0-5.0-23.0"},{"rt":10303.899999998976,"responses":"{\"pregunta15\":\"a) El receptor es el que posee la decisión sobre la publicidad.\"}","question_order":"[0]","trial_type":"survey-multi-choice","trial_index":29,"time_elapsed":348977,"internal_node_id":"0.0-5.0-24.0"},{"rt":1832.8000000037719,"response":{"pregunta15 likert":2},"question_order":[0],"trial_type":"survey-likert","trial_index":30,"time_elapsed":350819,"internal_node_id":"0.0-5.0-25.0"},{"rt":3221.5999999971245,"responses":"{\"pregunta1\":\"d) Aportan informaciones con las que se reconstruye el personaje dentro de un relato.\"}","question_order":"[0]","trial_type":"survey-multi-choice","trial_index":31,"time_elapsed":354049,"internal_node_id":"0.0-5.0-26.0"},{"rt":1372.0000000030268,"response":{"pregunta1 likert":2},"question_order":[0],"trial_type":"survey-likert","trial_index":32,"time_elapsed":355430,"internal_node_id":"0.0-5.0-27.0"},{"rt":3073.500000005879,"responses":"{\"pregunta5\":\"c) Lo que es normal en un asilo es anormal en un campo de concentración.\"}","question_order":"[0]","trial_type":"survey-multi-choice","trial_index":33,"time_elapsed":358514,"internal_node_id":"0.0-5.0-28.0"},{"rt":1307.0000000006985,"response":{"pregunta5 likert":1},"question_order":[0],"trial_type":"survey-likert","trial_index":34,"time_elapsed":359830,"internal_node_id":"0.0-5.0-29.0"},{"rt":19420.700000002398,"responses":"{\"pregunta10\":\"a) A la inutilidad de tanto esfuerzo si el objetivo es el reposo.\"}","question_order":"[0]","trial_type":"survey-multi-choice","trial_index":35,"time_elapsed":379259,"internal_node_id":"0.0-5.0-30.0"},{"rt":2050.100000000384,"response":{"pregunta10 likert":2},"question_order":[0],"trial_type":"survey-likert","trial_index":36,"time_elapsed":381318,"internal_node_id":"0.0-5.0-31.0"},{"rt":2630.4999999993015,"responses":"{\"pregunta16\":\"b) tienen dificultades durante el parto.\"}","question_order":"[0]","trial_type":"survey-multi-choice","trial_index":37,"time_elapsed":383957,"internal_node_id":"0.0-5.0-32.0"},{"rt":1340.3000000034808,"response":{"pregunta16 likert":2},"question_order":[0],"trial_type":"survey-likert","trial_index":38,"time_elapsed":385305,"internal_node_id":"0.0-5.0-33.0"},{"rt":3202.5999999968917,"responses":"{\"pregunta18\":\"a) El derecho a informar y el derecho a la privacidad son inconciliables.\"}","question_order":"[0]","trial_type":"survey-multi-choice","trial_index":39,"time_elapsed":388517,"internal_node_id":"0.0-5.0-34.0"},{"rt":5138.800000000629,"response":{"pregunta18 likert":1},"question_order":[0],"trial_type":"survey-likert","trial_index":40,"time_elapsed":393665,"internal_node_id":"0.0-5.0-35.0"},{"rt":3893.100000001141,"responses":"{\"pregunta14\":\"b) A la negligencia de la empresa que los traía a Chile.\"}","question_order":"[0]","trial_type":"survey-multi-choice","trial_index":41,"time_elapsed":397568,"internal_node_id":"0.0-5.0-36.0"},{"rt":1458.8999999978114,"response":{"pregunta14 likert":1},"question_order":[0],"trial_type":"survey-likert","trial_index":42,"time_elapsed":399034,"internal_node_id":"0.0-5.0-37.0"},{"rt":3271.8999999997322,"responses":"{\"pregunta11\":\"a) la prosperidad del imperio se debió al Primer Ministro.\"}","question_order":"[0]","trial_type":"survey-multi-choice","trial_index":43,"time_elapsed":402315,"internal_node_id":"0.0-5.0-38.0"},{"rt":1871.2000000014086,"response":{"pregunta11 likert":2},"question_order":[0],"trial_type":"survey-likert","trial_index":44,"time_elapsed":404194,"internal_node_id":"0.0-5.0-39.0"},{"rt":1766.700000000128,"stimulus":"<p style=\"font-size: 120%\">Gracias por completar esta etapa del estudio. Ahora te invitamos a responder el cuestionario.<br><br></p>","response":0,"trial_type":"html-button-response","trial_index":45,"time_elapsed":405978,"internal_node_id":"0.0-6.0"},{"rt":7282.899999998335,"stimulus":"<h1 style=\"margin-top: 5%\">Cuestionario para la Evaluación de Metas Académicas</h1><p style=\"font-size: 120%; margin-left: 3%; margin-top: 5%\">Este es un cuestionario que permite conocer cuáles son los principales motivos por los que los estudiantes se esfuerzan en su trabajo académico. A continuación, se te presentarán una serie de afirmaciones acerca de los motivos que puedes tener para estudiar.<br>Te pedimos que contestes a dichas afirmaciones reflexionando sobre el contenido de cada una de ellas, que, aunque te parezcan semejantes, en realidad, no lo son.<br>NO HAY RESPUESTAS CORRECTAS o INCORRECTAS, sólo queremos que respondas con la mayor precisión y sinceridad posible a las preguntas que se plantean.","response":0,"trial_type":"html-button-response","trial_index":46,"time_elapsed":413266,"internal_node_id":"0.0-7.0"},{"rt":63601.79999999673,"response":{"Metas cuestionario pregunta1":4,"Metas cuestionario pregunta2":4,"Metas cuestionario pregunta3":4,"Metas cuestionario pregunta4":4,"Metas cuestionario pregunta5":4,"Metas cuestionario pregunta6":4,"Metas cuestionario pregunta7":4,"Metas cuestionario pregunta8":4,"Metas cuestionario pregunta9":4,"Metas cuestionario pregunta10":1,"Metas cuestionario pregunta11":0,"Metas cuestionario pregunta12":0,"Metas cuestionario pregunta13":0,"Metas cuestionario pregunta14":0,"Metas cuestionario pregunta15":4,"Metas cuestionario pregunta16":4,"Metas cuestionario pregunta17":4,"Metas cuestionario pregunta18":4,"Metas cuestionario pregunta19":4,"Metas cuestionario pregunta20":2},"question_order":[0,1,2,3,4,5,6,7,8,9,10,11,12,13,14,15,16,17,18,19],"trial_type":"survey-likert","trial_index":47,"time_elapsed":476903,"internal_node_id":"0.0-8.0"},{"rt":2933.100000002014,"stimulus":"<p style=\"font-size: 120%\">Gracias por responder el cuestionario. Ahora te invitamos a seguir con el juego, que es muy breve.<br><br></p>","response":0,"trial_type":"html-button-response","trial_index":48,"time_elapsed":479852,"internal_node_id":"0.0-9.0"},{"rt":4362.099999998463,"stimulus":"<h1>Juego</h1><p style=\"font-size: 120%;\">A continuación se te presentarán 16 pequeñas historias.<br>Por favor lee el texto presentado en cada una de ellas y luego haz click en el objeto de tu elección.<br>Si estás listo(a),<span style=\"color:red;\"> haz click en \"comenzar\"</span>.</p>","response":0,"trial_type":"html-button-response","trial_index":49,"time_elapsed":484219,"internal_node_id":"0.0-10.0"},{"rt":9293.20000000007,"grid":[[1,1,1],[1,1,1],[1,1,1],[1,1,1],[1,1,1],[1,1,1],[1,1,1],[1,1,1],[1,1,1],[1,1,1],[1,1,1]],"target":[0,0],"response":[3,1],"correct":false,"juego":5,"trial_type":"serial-reaction-time-mouse","trial_index":50,"time_elapsed":493529,"internal_node_id":"0.0-11.0-0.0"},{"rt":11684.000000001106,"grid":[[1,1,1,1,1]],"target":[0,0],"response":[0,1],"correct":false,"juego":3,"trial_type":"serial-reaction-time-mouse","trial_index":51,"time_elapsed":505218,"internal_node_id":"0.0-11.0-1.0"},{"rt":7527.19999999681,"grid":[[1,1,1,1],[1,1,1,1],[1,1,1,1],[1,1,1,1],[1,1,1,1],[1,1,1,1],[1,1,1,1],[1,1,1,1],[1,1,1,1],[1,1,1,1],[1,1,1,1]],"target":[0,0],"response":[1,2],"correct":false,"juego":15,"trial_type":"serial-reaction-time-mouse","trial_index":52,"time_elapsed":512760,"internal_node_id":"0.0-11.0-2.0"},{"rt":9543.30000000482,"grid":[[1,1,1,1,1]],"target":[0,0],"response":[0,2],"correct":false,"juego":8,"trial_type":"serial-reaction-time-mouse","trial_index":53,"time_elapsed":522309,"internal_node_id":"0.0-11.0-3.0"},{"rt":9126.400000001013,"grid":[[1,1,1,1,1]],"target":[0,0],"response":[0,0],"correct":true,"juego":12,"trial_type":"serial-reaction-time-mouse","trial_index":54,"time_elapsed":531440,"internal_node_id":"0.0-11.0-4.0"},{"rt":4149.799999999348,"grid":[[1,1,1,1,1]],"target":[0,0],"response":[0,1],"correct":false,"juego":2,"trial_type":"serial-reaction-time-mouse","trial_index":55,"time_elapsed":535595,"internal_node_id":"0.0-11.0-5.0"},{"rt":8540.199999995762,"grid":[[1,1,1,1,1]],"target":[0,0],"response":[0,1],"correct":false,"juego":9,"trial_type":"serial-reaction-time-mouse","trial_index":56,"time_elapsed":544139,"internal_node_id":"0.0-11.0-6.0"},{"rt":4622.2000000053085,"grid":[[1,1,1,1,1]],"target":[0,0],"response":[0,2],"correct":false,"juego":1,"trial_type":"serial-reaction-time-mouse","trial_index":57,"time_elapsed":548766,"internal_node_id":"0.0-11.0-7.0"},{"rt":7249.900000002468,"grid":[[1,1,1],[1,1,1],[1,1,1],[1,1,1],[1,1,1],[1,1,1],[1,1,1],[1,1,1],[1,1,1],[1,1,1],[1,1,1]],"target":[0,0],"response":[1,0],"correct":false,"juego":10,"trial_type":"serial-reaction-time-mouse","trial_index":58,"time_elapsed":556029,"internal_node_id":"0.0-11.0-8.0"},{"rt":6847.099999998929,"grid":[[1,1,1],[1,1,1],[1,1,1],[1,1,1],[1,1,1],[1,1,1],[1,1,1],[1,1,1],[1,1,1],[1,1,1],[1,1,1]],"target":[0,0],"response":[5,1],"correct":false,"juego":13,"trial_type":"serial-reaction-time-mouse","trial_index":59,"time_elapsed":562893,"internal_node_id":"0.0-11.0-9.0"},{"rt":4140.399999996531,"grid":[[1,1,1],[1,1,1],[1,1,1],[1,1,1],[1,1,1],[1,1,1],[1,1,1],[1,1,1],[1,1,1],[1,1,1],[1,1,1]],"target":[0,0],"response":[1,1],"correct":false,"juego":6,"trial_type":"serial-reaction-time-mouse","trial_index":60,"time_elapsed":567045,"internal_node_id":"0.0-11.0-10.0"},{"rt":7031.399999999907,"grid":[[1,1,1,1],[1,1,1,1],[1,1,1,1],[1,1,1,1],[1,1,1,1],[1,1,1,1],[1,1,1,1],[1,1,1,1],[1,1,1,1],[1,1,1,1],[1,1,1,1]],"target":[0,0],"response":[9,2],"correct":false,"juego":14,"trial_type":"serial-reaction-time-mouse","trial_index":61,"time_elapsed":574090,"internal_node_id":"0.0-11.0-11.0"},{"rt":3704.599999997299,"grid":[[1],[1],[1],[1],[1]],"target":[0,0],"response":[2,0],"correct":false,"juego":4,"trial_type":"serial-reaction-time-mouse","trial_index":62,"time_elapsed":577801,"internal_node_id":"0.0-11.0-12.0"},{"rt":8227.099999996484,"grid":[[1,1,1,1,1]],"target":[0,0],"response":[0,3],"correct":false,"juego":11,"trial_type":"serial-reaction-time-mouse","trial_index":63,"time_elapsed":586033,"internal_node_id":"0.0-11.0-13.0"},{"rt":6318.699999996228,"grid":[[1,1,1,1,1]],"target":[0,0],"response":[0,4],"correct":false,"juego":7,"trial_type":"serial-reaction-time-mouse","trial_index":64,"time_elapsed":592357,"internal_node_id":"0.0-11.0-14.0"}]