[{"rt":51728,"stimulus":"<h1 style=\"color:red; margin-top: 3%;\">¡Bienvenido(a)!</h1><p style=\"text-align:left; justify-content:space-between; margin-right: 5%; margin-left: 5%; margin-top: 5%\"> Antes de empezar el estudio, necesitamos que nos confirmes que estás de acuerdo con participar. Recuerda que tu participación es 100% voluntaria y que lo único que te pedimos es responder lo mejor que puedas. Recuerda también que el estudio incluye:</p><ol style=\"text-align:left; justify-content:space-between; margin-right: 5%; margin-left: 5%;\"><li> un ejercicio de resolución de preguntas de selección múltiple (30’),</li><li>un cuestionario breve (5’),</li><li>un juego muy breve (3’),</li></ol><p style=\"text-align:left; justify-content:space-between; margin-right: 5%; margin-left: 5%;\">Si quieres participar, haz clic en “Acepto” luego de leer lo siguiente:<br></p><p style=\"text-align:left; justify-content:space-between; margin-right: 5%; margin-left: 5%;\">Acepto participar en el estudio “Estrategias de lectura y resolución de preguntas de selección múltiple”, en los términos aquí señalados:<br></p><p style=\"text-align:left; justify-content:space-between; margin-right: 5%; margin-left: 5%;\"><a href=\"http://ciae.uchile.cl/download.php?file=noticias/Asentimiento.pdf\" target=\"_blank\">Link a la hoja de información del Consentimiento.</a></p><p style=\"text-align:left; justify-content:space-between; margin-right: 5%; margin-left: 5%;\">Declaro que he leído (o se me ha leído) y (he) comprendido, las condiciones de mi participación en este estudio. He tenido la oportunidad de hacer preguntas y éstas han sido respondidas. No tengo dudas al respecto.</p>","response":0,"condicion_MCQ":13,"condicion_JUEGO":33,"condicion_INTER":9,"numero_participante":33,"numero_version":1,"dimx":375,"dimy":667,"color_profundidad":32,"pixel_profundidad":32,"Browser":"Apple Safari","dia":18,"mes":5,"hora":16,"minuto":13,"segundo":2,"trial_type":"html-button-response","trial_index":0,"time_elapsed":51737,"internal_node_id":"0.0-0.0"},{"success":true,"trial_type":"fullscreen","trial_index":1,"time_elapsed":60126,"internal_node_id":"0.0-1.0"},{"rt":83191,"responses":"{\"Nombres\":\"Isidora Francisca \",\"Apellidos\":\"Escalante Silva \",\"Edad\":\"18\",\"Sexo\":\"mujer \",\"Curso\":\"1236\",\"Colegio\":\"Universidad Andres Bello\",\"Contacto\":\"i.escalantesilva@uandresbello.edu\"}","trial_type":"survey-text","trial_index":2,"time_elapsed":143340,"internal_node_id":"0.0-2.0"},{"success":true,"timeout":false,"failed_images":[],"failed_audio":[],"failed_video":[],"trial_type":"preload","trial_index":3,"time_elapsed":144456,"internal_node_id":"0.0-3.0"},{"rt":33892.00000000003,"stimulus":"<h1 style:\"margin-top: 5%;\">Ejercicios de Comprensión de Lectura de la Universidad de Chile</h1><p style=\"font-size: 120%;\">En esta actividad, debes responder 20 preguntas de selección múltiple. Cada pregunta presenta 5 respuestas alternativas, pero sólo una de ellas es correcta. Por lo tanto, debes escoger una sola alternativa para cada pregunta. Además, debes reportar qué tan seguro(a) estás de la respuesta que das, con un:</p><ol style=\"font-size: 120%;text-align:left;margin-left: 40%;\"><li>No estoy seguro(a) para nada</li><li>No estoy muy seguro(a)</li><li>Estoy bastante seguro(a)</li><li>Estoy totalmente seguro(a)</li></ol><p style=\"font-size: 120%;\">Por favor lee bien los enunciados antes de responder. ¡Éxito!</p>","response":0,"trial_type":"html-button-response","trial_index":4,"time_elapsed":178351,"internal_node_id":"0.0-4.0"},{"rt":105711,"responses":"{\"pregunta3\":\"a) Los viajes son siempre propicios para el acto escritural.\"}","question_order":"[0]","trial_type":"survey-multi-choice","trial_index":5,"time_elapsed":284074,"internal_node_id":"0.0-5.0-0.0"},{"rt":8555.000000000058,"response":{"pregunta3 likert":1},"question_order":[0],"trial_type":"survey-likert","trial_index":6,"time_elapsed":292640,"internal_node_id":"0.0-5.0-1.0"},{"rt":75111,"responses":"{\"pregunta6\":\"a) un conjunto de imágenes de recuerdos gratos.\"}","question_order":"[0]","trial_type":"survey-multi-choice","trial_index":7,"time_elapsed":367755,"internal_node_id":"0.0-5.0-2.0"},{"rt":2762,"response":{"pregunta6 likert":3},"question_order":[0],"trial_type":"survey-likert","trial_index":8,"time_elapsed":370523,"internal_node_id":"0.0-5.0-3.0"},{"rt":47955,"responses":"{\"pregunta19\":\"c) el jardinero estará muerto al día siguiente.\"}","question_order":"[0]","trial_type":"survey-multi-choice","trial_index":9,"time_elapsed":418484,"internal_node_id":"0.0-5.0-4.0"},{"rt":2169,"response":{"pregunta19 likert":1},"question_order":[0],"trial_type":"survey-likert","trial_index":10,"time_elapsed":420658,"internal_node_id":"0.0-5.0-5.0"},{"rt":42779,"responses":"{\"pregunta7\":\"e) ritualistas y obsesivos.\"}","question_order":"[0]","trial_type":"survey-multi-choice","trial_index":11,"time_elapsed":463441,"internal_node_id":"0.0-5.0-6.0"},{"rt":3168,"response":{"pregunta7 likert":2},"question_order":[0],"trial_type":"survey-likert","trial_index":12,"time_elapsed":466613,"internal_node_id":"0.0-5.0-7.0"},{"rt":75094,"responses":"{\"pregunta9\":\"a) Homenajear a quienes murieron.\"}","question_order":"[0]","trial_type":"survey-multi-choice","trial_index":13,"time_elapsed":541791,"internal_node_id":"0.0-5.0-8.0"},{"rt":2559,"response":{"pregunta9 likert":2},"question_order":[0],"trial_type":"survey-likert","trial_index":14,"time_elapsed":544353,"internal_node_id":"0.0-5.0-9.0"},{"rt":67180,"responses":"{\"pregunta14\":\"c) A la inexistencia de un recinto adecuado para el recital.\"}","question_order":"[0]","trial_type":"survey-multi-choice","trial_index":15,"time_elapsed":611537,"internal_node_id":"0.0-5.0-10.0"},{"rt":2064.0000000001164,"response":{"pregunta14 likert":2},"question_order":[0],"trial_type":"survey-likert","trial_index":16,"time_elapsed":613606,"internal_node_id":"0.0-5.0-11.0"},{"rt":40702.99999999988,"responses":"{\"pregunta13\":\"b) Bomberos debería tener acceso a un seguro médico, al que pueda recurrir en caso de accidente.\"}","question_order":"[0]","trial_type":"survey-multi-choice","trial_index":17,"time_elapsed":654313,"internal_node_id":"0.0-5.0-12.0"},{"rt":2143.0000000001164,"response":{"pregunta13 likert":2},"question_order":[0],"trial_type":"survey-likert","trial_index":18,"time_elapsed":656461,"internal_node_id":"0.0-5.0-13.0"},{"rt":35746,"responses":"{\"pregunta15\":\"b) El receptor es habitualmente pasivo frente a la publicidad.\"}","question_order":"[0]","trial_type":"survey-multi-choice","trial_index":19,"time_elapsed":692213,"internal_node_id":"0.0-5.0-14.0"},{"rt":1995,"response":{"pregunta15 likert":2},"question_order":[0],"trial_type":"survey-likert","trial_index":20,"time_elapsed":694212,"internal_node_id":"0.0-5.0-15.0"},{"rt":16627,"responses":"{\"pregunta11\":\"d) la muerte de Wu Ti fue una bendición.\"}","question_order":"[0]","trial_type":"survey-multi-choice","trial_index":21,"time_elapsed":710845,"internal_node_id":"0.0-5.0-16.0"},{"rt":1740,"response":{"pregunta11 likert":2},"question_order":[0],"trial_type":"survey-likert","trial_index":22,"time_elapsed":712590,"internal_node_id":"0.0-5.0-17.0"},{"rt":50297,"responses":"{\"pregunta10\":\"c) A la inutilidad de tanto esfuerzo si el objetivo es el reposo.\"}","question_order":"[0]","trial_type":"survey-multi-choice","trial_index":23,"time_elapsed":762890,"internal_node_id":"0.0-5.0-18.0"},{"rt":2438,"response":{"pregunta10 likert":2},"question_order":[0],"trial_type":"survey-likert","trial_index":24,"time_elapsed":765333,"internal_node_id":"0.0-5.0-19.0"},{"rt":10812,"responses":"{\"pregunta17\":\"d) El TLC puede traer más dificultades que progresos.\"}","question_order":"[0]","trial_type":"survey-multi-choice","trial_index":25,"time_elapsed":776151,"internal_node_id":"0.0-5.0-20.0"},{"rt":3625,"response":{"pregunta17 likert":2},"question_order":[0],"trial_type":"survey-likert","trial_index":26,"time_elapsed":779780,"internal_node_id":"0.0-5.0-21.0"},{"rt":7933,"responses":"{\"pregunta1\":\"b) Manifiestan la importancia de que el personaje tenga independencia en el relato.\"}","question_order":"[0]","trial_type":"survey-multi-choice","trial_index":27,"time_elapsed":787718,"internal_node_id":"0.0-5.0-22.0"},{"rt":2077.9999999998836,"response":{"pregunta1 likert":2},"question_order":[0],"trial_type":"survey-likert","trial_index":28,"time_elapsed":789802,"internal_node_id":"0.0-5.0-23.0"},{"rt":4528.000000000116,"responses":"{\"pregunta2\":\"d) A la relación entre pensamiento y estructura social.\"}","question_order":"[0]","trial_type":"survey-multi-choice","trial_index":29,"time_elapsed":794334,"internal_node_id":"0.0-5.0-24.0"},{"rt":2433,"response":{"pregunta2 likert":2},"question_order":[0],"trial_type":"survey-likert","trial_index":30,"time_elapsed":796771,"internal_node_id":"0.0-5.0-25.0"},{"rt":36483,"responses":"{\"pregunta5\":\"b) La conducta de un hombre en un asilo es idéntica a la de un hombre en un campo de concentración.\"}","question_order":"[0]","trial_type":"survey-multi-choice","trial_index":31,"time_elapsed":833260,"internal_node_id":"0.0-5.0-26.0"},{"rt":3651,"response":{"pregunta5 likert":2},"question_order":[0],"trial_type":"survey-likert","trial_index":32,"time_elapsed":836916,"internal_node_id":"0.0-5.0-27.0"},{"rt":5033.000000000116,"responses":"{\"pregunta4\":\"c) Orientar la opción estética de un grupo de personas en lo que se refiere a la decoración de interiores.\"}","question_order":"[0]","trial_type":"survey-multi-choice","trial_index":33,"time_elapsed":841954,"internal_node_id":"0.0-5.0-28.0"},{"rt":1543,"response":{"pregunta4 likert":2},"question_order":[0],"trial_type":"survey-likert","trial_index":34,"time_elapsed":843501,"internal_node_id":"0.0-5.0-29.0"},{"rt":2228,"responses":"{\"pregunta12\":\"a) el uranio es el elemento natural con el mayor número de protones en el núcleo.\"}","question_order":"[0]","trial_type":"survey-multi-choice","trial_index":35,"time_elapsed":845734,"internal_node_id":"0.0-5.0-30.0"},{"rt":2601,"response":{"pregunta12 likert":2},"question_order":[0],"trial_type":"survey-likert","trial_index":36,"time_elapsed":848338,"internal_node_id":"0.0-5.0-31.0"},{"rt":24632,"responses":"{\"pregunta8\":\"a) Mostrar cuerpos que reflejan la máxima potencia.\"}","question_order":"[0]","trial_type":"survey-multi-choice","trial_index":37,"time_elapsed":872975,"internal_node_id":"0.0-5.0-32.0"},{"rt":1655,"response":{"pregunta8 likert":2},"question_order":[0],"trial_type":"survey-likert","trial_index":38,"time_elapsed":874635,"internal_node_id":"0.0-5.0-33.0"},{"rt":3742.0000000001164,"responses":"{\"pregunta18\":\"c) Se necesita un marco legal para delimitar lo público y lo privado en materia informativa.\"}","question_order":"[0]","trial_type":"survey-multi-choice","trial_index":39,"time_elapsed":878381,"internal_node_id":"0.0-5.0-34.0"},{"rt":1901,"response":{"pregunta18 likert":2},"question_order":[0],"trial_type":"survey-likert","trial_index":40,"time_elapsed":880289,"internal_node_id":"0.0-5.0-35.0"},{"rt":1646,"responses":"{\"pregunta20\":\"a) para el mexicano, la muerte es como una mujer.\"}","question_order":"[0]","trial_type":"survey-multi-choice","trial_index":41,"time_elapsed":881939,"internal_node_id":"0.0-5.0-36.0"},{"rt":2511,"response":{"pregunta20 likert":2},"question_order":[0],"trial_type":"survey-likert","trial_index":42,"time_elapsed":884454,"internal_node_id":"0.0-5.0-37.0"},{"rt":2362,"responses":"{\"pregunta16\":\"e) llevan un control grupal de su embarazo.\"}","question_order":"[0]","trial_type":"survey-multi-choice","trial_index":43,"time_elapsed":886821,"internal_node_id":"0.0-5.0-38.0"},{"rt":5115,"response":{"pregunta16 likert":2},"question_order":[0],"trial_type":"survey-likert","trial_index":44,"time_elapsed":891941,"internal_node_id":"0.0-5.0-39.0"},{"rt":3522,"stimulus":"<p style=\"font-size: 120%\">Gracias por completar esta etapa del estudio. Ahora te invitamos a responder el cuestionario.<br><br></p>","response":0,"trial_type":"html-button-response","trial_index":45,"time_elapsed":895475,"internal_node_id":"0.0-6.0"},{"rt":8681.000000000116,"stimulus":"<h1 style=\"margin-top: 5%\">Cuestionario para la Evaluación de Metas Académicas</h1><p style=\"font-size: 120%; margin-left: 3%; margin-top: 5%\">Este es un cuestionario que permite conocer cuáles son los principales motivos por los que los estudiantes se esfuerzan en su trabajo académico. A continuación, se te presentarán una serie de afirmaciones acerca de los motivos que puedes tener para estudiar.<br>Te pedimos que contestes a dichas afirmaciones reflexionando sobre el contenido de cada una de ellas, que, aunque te parezcan semejantes, en realidad, no lo son.<br>NO HAY RESPUESTAS CORRECTAS o INCORRECTAS, sólo queremos que respondas con la mayor precisión y sinceridad posible a las preguntas que se plantean.","response":0,"trial_type":"html-button-response","trial_index":46,"time_elapsed":904160,"internal_node_id":"0.0-7.0"},{"rt":85190.00000000012,"response":{"Metas cuestionario pregunta1":4,"Metas cuestionario pregunta2":4,"Metas cuestionario pregunta3":4,"Metas cuestionario pregunta4":3,"Metas cuestionario pregunta5":4,"Metas cuestionario pregunta6":4,"Metas cuestionario pregunta7":4,"Metas cuestionario pregunta8":3,"Metas cuestionario pregunta9":3,"Metas cuestionario pregunta10":0,"Metas cuestionario pregunta11":3,"Metas cuestionario pregunta12":4,"Metas cuestionario pregunta13":0,"Metas cuestionario pregunta14":0,"Metas cuestionario pregunta15":4,"Metas cuestionario pregunta16":4,"Metas cuestionario pregunta17":4,"Metas cuestionario pregunta18":4,"Metas cuestionario pregunta19":0,"Metas cuestionario pregunta20":0},"question_order":[0,1,2,3,4,5,6,7,8,9,10,11,12,13,14,15,16,17,18,19],"trial_type":"survey-likert","trial_index":47,"time_elapsed":989369,"internal_node_id":"0.0-8.0"},{"rt":2087.9999999998836,"stimulus":"<p style=\"font-size: 120%\">Gracias por responder el cuestionario. Ahora te invitamos a seguir con el juego, que es muy breve.<br><br></p>","response":0,"trial_type":"html-button-response","trial_index":48,"time_elapsed":991464,"internal_node_id":"0.0-9.0"},{"rt":20742,"stimulus":"<h1>Juego</h1><p style=\"font-size: 120%;\">A continuación se te presentarán 16 pequeñas historias.<br>Por favor lee el texto presentado en cada una de ellas y luego haz click en el objeto de tu elección.<br>Si estás listo(a),<span style=\"color:red;\"> haz click en \"comenzar\"</span>.</p>","response":0,"trial_type":"html-button-response","trial_index":49,"time_elapsed":1012209,"internal_node_id":"0.0-10.0"},{"rt":8813.999999999884,"grid":[[1,1,1,1,1]],"target":[0,0],"response":[0,2],"correct":false,"juego":2,"trial_type":"serial-reaction-time-mouse","trial_index":50,"time_elapsed":1021030,"internal_node_id":"0.0-11.0-0.0"},{"rt":8754.999999999884,"grid":[[1,1,1,1,1]],"target":[0,0],"response":[0,0],"correct":true,"juego":1,"trial_type":"serial-reaction-time-mouse","trial_index":51,"time_elapsed":1029790,"internal_node_id":"0.0-11.0-1.0"},{"rt":12197.000000000116,"grid":[[1,1,1],[1,1,1],[1,1,1],[1,1,1],[1,1,1],[1,1,1],[1,1,1],[1,1,1],[1,1,1],[1,1,1],[1,1,1]],"target":[0,0],"response":[9,1],"correct":false,"juego":5,"trial_type":"serial-reaction-time-mouse","trial_index":52,"time_elapsed":1042003,"internal_node_id":"0.0-11.0-2.0"},{"rt":8436.999999999884,"grid":[[1,1,1,1,1]],"target":[0,0],"response":[0,2],"correct":false,"juego":8,"trial_type":"serial-reaction-time-mouse","trial_index":53,"time_elapsed":1050448,"internal_node_id":"0.0-11.0-3.0"},{"rt":14274,"grid":[[1,1,1,1],[1,1,1,1],[1,1,1,1],[1,1,1,1],[1,1,1,1],[1,1,1,1],[1,1,1,1],[1,1,1,1],[1,1,1,1],[1,1,1,1],[1,1,1,1]],"target":[0,0],"response":[9,2],"correct":false,"juego":15,"trial_type":"serial-reaction-time-mouse","trial_index":54,"time_elapsed":1064735,"internal_node_id":"0.0-11.0-4.0"},{"rt":5192,"grid":[[1,1,1,1,1]],"target":[0,0],"response":[0,3],"correct":false,"juego":9,"trial_type":"serial-reaction-time-mouse","trial_index":55,"time_elapsed":1069933,"internal_node_id":"0.0-11.0-5.0"},{"rt":9332,"grid":[[1,1,1,1,1]],"target":[0,0],"response":[0,4],"correct":false,"juego":11,"trial_type":"serial-reaction-time-mouse","trial_index":56,"time_elapsed":1079268,"internal_node_id":"0.0-11.0-6.0"},{"rt":6184,"grid":[[1,1,1,1,1]],"target":[0,0],"response":[0,2],"correct":false,"juego":7,"trial_type":"serial-reaction-time-mouse","trial_index":57,"time_elapsed":1085454,"internal_node_id":"0.0-11.0-7.0"},{"rt":8368,"grid":[[1,1,1,1],[1,1,1,1],[1,1,1,1],[1,1,1,1],[1,1,1,1],[1,1,1,1],[1,1,1,1],[1,1,1,1],[1,1,1,1],[1,1,1,1],[1,1,1,1]],"target":[0,0],"response":[3,2],"correct":false,"juego":14,"trial_type":"serial-reaction-time-mouse","trial_index":58,"time_elapsed":1093836,"internal_node_id":"0.0-11.0-8.0"},{"rt":10190,"grid":[[1,1,1],[1,1,1],[1,1,1],[1,1,1],[1,1,1],[1,1,1],[1,1,1],[1,1,1],[1,1,1],[1,1,1],[1,1,1]],"target":[0,0],"response":[1,0],"correct":false,"juego":10,"trial_type":"serial-reaction-time-mouse","trial_index":59,"time_elapsed":1104037,"internal_node_id":"0.0-11.0-9.0"},{"rt":8653,"grid":[[1,1,1],[1,1,1],[1,1,1],[1,1,1],[1,1,1],[1,1,1],[1,1,1],[1,1,1],[1,1,1],[1,1,1],[1,1,1]],"target":[0,0],"response":[1,1],"correct":false,"juego":6,"trial_type":"serial-reaction-time-mouse","trial_index":60,"time_elapsed":1112701,"internal_node_id":"0.0-11.0-10.0"},{"rt":4794,"grid":[[1],[1],[1],[1],[1]],"target":[0,0],"response":[4,0],"correct":false,"juego":4,"trial_type":"serial-reaction-time-mouse","trial_index":61,"time_elapsed":1117503,"internal_node_id":"0.0-11.0-11.0"},{"rt":11314,"grid":[[1,1,1,1,1]],"target":[0,0],"response":[0,3],"correct":false,"juego":3,"trial_type":"serial-reaction-time-mouse","trial_index":62,"time_elapsed":1128821,"internal_node_id":"0.0-11.0-12.0"},{"rt":9927,"grid":[[1,1,1,1,1]],"target":[0,0],"response":[0,4],"correct":false,"juego":12,"trial_type":"serial-reaction-time-mouse","trial_index":63,"time_elapsed":1138755,"internal_node_id":"0.0-11.0-13.0"},{"rt":5982,"grid":[[1,1,1],[1,1,1],[1,1,1],[1,1,1],[1,1,1],[1,1,1],[1,1,1],[1,1,1],[1,1,1],[1,1,1],[1,1,1]],"target":[0,0],"response":[1,1],"correct":false,"juego":13,"trial_type":"serial-reaction-time-mouse","trial_index":64,"time_elapsed":1144755,"internal_node_id":"0.0-11.0-14.0"},{"rt":9475,"stimulus":"<h1>Último juego</h1><p style=\"font-size: 130%;\">Tienes <span style=\"color:red\">35</span> segundos para recordar los pares de palabras que aparecerán a continuación. <br></p>","response":0,"trial_type":"html-button-response","trial_index":65,"time_elapsed":1154241,"internal_node_id":"0.0-12.0"},{"animation_sequence":[{"stimulus":"imagen_juego_interferencia.jpg","time":518},{"stimulus":"imagen_juego_interferencia.jpg","time":1011},{"stimulus":"imagen_juego_interferencia.jpg","time":1519},{"stimulus":"imagen_juego_interferencia.jpg","time":2011},{"stimulus":"imagen_juego_interferencia.jpg","time":2512},{"stimulus":"imagen_juego_interferencia.jpg","time":3013},{"stimulus":"imagen_juego_interferencia.jpg","time":3524},{"stimulus":"imagen_juego_interferencia.jpg","time":4033},{"stimulus":"imagen_juego_interferencia.jpg","time":4544.000000000233},{"stimulus":"imagen_juego_interferencia.jpg","time":5054},{"stimulus":"imagen_juego_interferencia.jpg","time":5564},{"stimulus":"imagen_juego_interferencia.jpg","time":6074},{"stimulus":"imagen_juego_interferencia.jpg","time":6583},{"stimulus":"imagen_juego_interferencia.jpg","time":7093},{"stimulus":"imagen_juego_interferencia.jpg","time":7604},{"stimulus":"imagen_juego_interferencia.jpg","time":8115},{"stimulus":"imagen_juego_interferencia.jpg","time":8624},{"stimulus":"imagen_juego_interferencia.jpg","time":9134},{"stimulus":"imagen_juego_interferencia.jpg","time":9644},{"stimulus":"imagen_juego_interferencia.jpg","time":10154},{"stimulus":"imagen_juego_interferencia.jpg","time":10664},{"stimulus":"imagen_juego_interferencia.jpg","time":11174},{"stimulus":"imagen_juego_interferencia.jpg","time":11684},{"stimulus":"imagen_juego_interferencia.jpg","time":12193},{"stimulus":"imagen_juego_interferencia.jpg","time":12708},{"stimulus":"imagen_juego_interferencia.jpg","time":13214},{"stimulus":"imagen_juego_interferencia.jpg","time":13724},{"stimulus":"imagen_juego_interferencia.jpg","time":14234},{"stimulus":"imagen_juego_interferencia.jpg","time":14744},{"stimulus":"imagen_juego_interferencia.jpg","time":15258},{"stimulus":"imagen_juego_interferencia.jpg","time":15764},{"stimulus":"imagen_juego_interferencia.jpg","time":16274},{"stimulus":"imagen_juego_interferencia.jpg","time":16784.000000000233},{"stimulus":"imagen_juego_interferencia.jpg","time":17293},{"stimulus":"imagen_juego_interferencia.jpg","time":17804},{"stimulus":"imagen_juego_interferencia.jpg","time":18314},{"stimulus":"imagen_juego_interferencia.jpg","time":18825},{"stimulus":"imagen_juego_interferencia.jpg","time":19334},{"stimulus":"imagen_juego_interferencia.jpg","time":19844},{"stimulus":"imagen_juego_interferencia.jpg","time":20354},{"stimulus":"imagen_juego_interferencia.jpg","time":20864},{"stimulus":"imagen_juego_interferencia.jpg","time":21374},{"stimulus":"imagen_juego_interferencia.jpg","time":21884},{"stimulus":"imagen_juego_interferencia.jpg","time":22394},{"stimulus":"imagen_juego_interferencia.jpg","time":22906},{"stimulus":"imagen_juego_interferencia.jpg","time":23415},{"stimulus":"imagen_juego_interferencia.jpg","time":23923},{"stimulus":"imagen_juego_interferencia.jpg","time":24435},{"stimulus":"imagen_juego_interferencia.jpg","time":24945},{"stimulus":"imagen_juego_interferencia.jpg","time":25456},{"stimulus":"imagen_juego_interferencia.jpg","time":25963},{"stimulus":"imagen_juego_interferencia.jpg","time":26474},{"stimulus":"imagen_juego_interferencia.jpg","time":26984},{"stimulus":"imagen_juego_interferencia.jpg","time":27493},{"stimulus":"imagen_juego_interferencia.jpg","time":28006},{"stimulus":"imagen_juego_interferencia.jpg","time":28514},{"stimulus":"imagen_juego_interferencia.jpg","time":29024},{"stimulus":"imagen_juego_interferencia.jpg","time":29534.000000000233},{"stimulus":"imagen_juego_interferencia.jpg","time":30044.000000000233},{"stimulus":"imagen_juego_interferencia.jpg","time":30555},{"stimulus":"imagen_juego_interferencia.jpg","time":31063.000000000233},{"stimulus":"imagen_juego_interferencia.jpg","time":31574},{"stimulus":"imagen_juego_interferencia.jpg","time":32087},{"stimulus":"imagen_juego_interferencia.jpg","time":32594},{"stimulus":"imagen_juego_interferencia.jpg","time":33105},{"stimulus":"imagen_juego_interferencia.jpg","time":33614},{"stimulus":"imagen_juego_interferencia.jpg","time":34126},{"stimulus":"imagen_juego_interferencia.jpg","time":34634},{"stimulus":"imagen_juego_interferencia.jpg","time":35143},{"stimulus":"imagen_juego_interferencia.jpg","time":35655}],"response":[],"trial_type":"animation","trial_index":66,"time_elapsed":1190410,"internal_node_id":"0.0-13.0"},{"rt":10908,"responses":"{\"pregunta interferencia1\":\"naranja\"}","question_order":"[0]","trial_type":"survey-multi-choice-cuest","trial_index":67,"time_elapsed":1201327,"internal_node_id":"0.0-14.0-0.0"},{"rt":10701,"responses":"{\"pregunta interferencia4\":\"dentista\"}","question_order":"[0]","trial_type":"survey-multi-choice-cuest","trial_index":68,"time_elapsed":1212036,"internal_node_id":"0.0-14.0-1.0"},{"rt":6696,"responses":"{\"pregunta interferencia2\":\"saltamontes\"}","question_order":"[0]","trial_type":"survey-multi-choice-cuest","trial_index":69,"time_elapsed":1218738,"internal_node_id":"0.0-14.0-2.0"},{"rt":5431,"responses":"{\"pregunta interferencia3\":\"plata\"}","question_order":"[0]","trial_type":"survey-multi-choice-cuest","trial_index":70,"time_elapsed":1224174,"internal_node_id":"0.0-14.0-3.0"},{"success":true,"trial_type":"fullscreen","trial_index":71,"time_elapsed":1225179,"internal_node_id":"0.0-15.0"}]