[{"rt":13679.300000011921,"stimulus":"<h1 style=\"color:red; margin-top: 3%;\">¡Bienvenido(a)!</h1><p style=\"text-align:left; justify-content:space-between; margin-right: 5%; margin-left: 5%; margin-top: 5%\"> Antes de empezar el estudio, necesitamos que nos confirmes que estás de acuerdo con participar. Recuerda que tu participación es 100% voluntaria y que lo único que te pedimos es responder lo mejor que puedas. Recuerda también que el estudio incluye:</p><ol style=\"text-align:left; justify-content:space-between; margin-right: 5%; margin-left: 5%;\"><li> un ejercicio de resolución de preguntas de selección múltiple (30’),</li><li>un cuestionario breve (5’),</li><li>un juego muy breve (3’),</li></ol><p style=\"text-align:left; justify-content:space-between; margin-right: 5%; margin-left: 5%;\">Si quieres participar, haz clic en “Acepto” luego de leer lo siguiente:<br></p><p style=\"text-align:left; justify-content:space-between; margin-right: 5%; margin-left: 5%;\">Acepto participar en el estudio “Estrategias de lectura y resolución de preguntas de selección múltiple”, en los términos aquí señalados:<br></p><p style=\"text-align:left; justify-content:space-between; margin-right: 5%; margin-left: 5%;\"><a href=\"http://ciae.uchile.cl/download.php?file=noticias/Asentimiento.pdf\" target=\"_blank\">Link a la hoja de información del Consentimiento.</a></p><p style=\"text-align:left; justify-content:space-between; margin-right: 5%; margin-left: 5%;\">Declaro que he leído (o se me ha leído) y (he) comprendido, las condiciones de mi participación en este estudio. He tenido la oportunidad de hacer preguntas y éstas han sido respondidas. No tengo dudas al respecto.</p>","response":0,"condicion_MCQ":5,"condicion_JUEGO":25,"condicion_INTER":1,"numero_participante":25,"numero_version":1,"dimx":412,"dimy":869,"color_profundidad":24,"pixel_profundidad":24,"Browser":"Google Chrome","dia":18,"mes":5,"hora":14,"minuto":17,"segundo":41,"trial_type":"html-button-response","trial_index":0,"time_elapsed":13683,"internal_node_id":"0.0-0.0"},{"success":true,"trial_type":"fullscreen","trial_index":1,"time_elapsed":20808,"internal_node_id":"0.0-1.0"},{"rt":56185.19999998808,"responses":"{\"Nombres\":\"Italo Andrés \",\"Apellidos\":\"Soto González\",\"Edad\":\"20\",\"Sexo\":\"Hombre\",\"Curso\":\"Seccion 200\",\"Colegio\":\"Universidad andres bello\",\"Contacto\":\"Italo.soto12@gmail.com\"}","trial_type":"survey-text","trial_index":2,"time_elapsed":77008,"internal_node_id":"0.0-2.0"},{"success":true,"timeout":false,"failed_images":[],"failed_audio":[],"failed_video":[],"trial_type":"preload","trial_index":3,"time_elapsed":78815,"internal_node_id":"0.0-3.0"},{"rt":10488.399999976158,"stimulus":"<h1 style:\"margin-top: 5%;\">Ejercicios de Comprensión de Lectura de la Universidad de Chile</h1><p style=\"font-size: 120%;\">En esta actividad, debes responder 20 preguntas de selección múltiple. Cada pregunta presenta 5 respuestas alternativas, pero sólo una de ellas es correcta. Por lo tanto, debes escoger una sola alternativa para cada pregunta. Además, debes reportar qué tan seguro(a) estás de la respuesta que das, con un:</p><ol style=\"font-size: 120%;text-align:left;margin-left: 40%;\"><li>No estoy seguro(a) para nada</li><li>No estoy muy seguro(a)</li><li>Estoy bastante seguro(a)</li><li>Estoy totalmente seguro(a)</li></ol><p style=\"font-size: 120%;\">Por favor lee bien los enunciados antes de responder. ¡Éxito!</p>","response":0,"trial_type":"html-button-response","trial_index":4,"time_elapsed":89306,"internal_node_id":"0.0-4.0"},{"rt":41680.700000047684,"responses":"{\"pregunta13\":\"e) Bomberos debería tener acceso a un seguro médico, al que pueda recurrir en caso de accidente.\"}","question_order":"[0]","trial_type":"survey-multi-choice","trial_index":5,"time_elapsed":130991,"internal_node_id":"0.0-5.0-0.0"},{"rt":2613,"response":{"pregunta13 likert":2},"question_order":[0],"trial_type":"survey-likert","trial_index":6,"time_elapsed":133609,"internal_node_id":"0.0-5.0-1.0"},{"rt":50574.69999998808,"responses":"{\"pregunta17\":\"a) Nuestra economía vivirá un proceso de ajuste a la nueva realidad.\"}","question_order":"[0]","trial_type":"survey-multi-choice","trial_index":7,"time_elapsed":184188,"internal_node_id":"0.0-5.0-2.0"},{"rt":1088.2000000476837,"response":{"pregunta17 likert":2},"question_order":[0],"trial_type":"survey-likert","trial_index":8,"time_elapsed":185280,"internal_node_id":"0.0-5.0-3.0"},{"rt":44555.200000047684,"responses":"{\"pregunta19\":\"a) el jardinero estará muerto al día siguiente.\"}","question_order":"[0]","trial_type":"survey-multi-choice","trial_index":9,"time_elapsed":229838,"internal_node_id":"0.0-5.0-4.0"},{"rt":1948.800000011921,"response":{"pregunta19 likert":3},"question_order":[0],"trial_type":"survey-likert","trial_index":10,"time_elapsed":231790,"internal_node_id":"0.0-5.0-5.0"},{"rt":75844.5,"responses":"{\"pregunta2\":\"b) A la relación entre pensamiento y estructura social.\"}","question_order":"[0]","trial_type":"survey-multi-choice","trial_index":11,"time_elapsed":307638,"internal_node_id":"0.0-5.0-6.0"},{"rt":1576,"response":{"pregunta2 likert":2},"question_order":[0],"trial_type":"survey-likert","trial_index":12,"time_elapsed":309217,"internal_node_id":"0.0-5.0-7.0"},{"rt":54547.69999998808,"responses":"{\"pregunta7\":\"c) ritualistas y obsesivos.\"}","question_order":"[0]","trial_type":"survey-multi-choice","trial_index":13,"time_elapsed":363768,"internal_node_id":"0.0-5.0-8.0"},{"rt":1364.9000000357628,"response":{"pregunta7 likert":3},"question_order":[0],"trial_type":"survey-likert","trial_index":14,"time_elapsed":365136,"internal_node_id":"0.0-5.0-9.0"},{"rt":47269.80000001192,"responses":"{\"pregunta14\":\"a) A la negligencia de la empresa que los traía a Chile.\"}","question_order":"[0]","trial_type":"survey-multi-choice","trial_index":15,"time_elapsed":412409,"internal_node_id":"0.0-5.0-10.0"},{"rt":1073.6000000238419,"response":{"pregunta14 likert":3},"question_order":[0],"trial_type":"survey-likert","trial_index":16,"time_elapsed":413487,"internal_node_id":"0.0-5.0-11.0"},{"rt":38897.5,"responses":"{\"pregunta12\":\"d) el uranio es el elemento natural con el mayor número de protones en el núcleo.\"}","question_order":"[0]","trial_type":"survey-multi-choice","trial_index":17,"time_elapsed":452388,"internal_node_id":"0.0-5.0-12.0"},{"rt":1399.7000000476837,"response":{"pregunta12 likert":3},"question_order":[0],"trial_type":"survey-likert","trial_index":18,"time_elapsed":453792,"internal_node_id":"0.0-5.0-13.0"},{"rt":38908.40000003576,"responses":"{\"pregunta10\":\"b) A la inutilidad de tanto esfuerzo si el objetivo es el reposo.\"}","question_order":"[0]","trial_type":"survey-multi-choice","trial_index":19,"time_elapsed":492704,"internal_node_id":"0.0-5.0-14.0"},{"rt":1645.4000000357628,"response":{"pregunta10 likert":3},"question_order":[0],"trial_type":"survey-likert","trial_index":20,"time_elapsed":494353,"internal_node_id":"0.0-5.0-15.0"},{"rt":74439.5,"responses":"{\"pregunta16\":\"e) sufren dolores de espalda.\"}","question_order":"[0]","trial_type":"survey-multi-choice","trial_index":21,"time_elapsed":568795,"internal_node_id":"0.0-5.0-16.0"},{"rt":1423.3999999761581,"response":{"pregunta16 likert":2},"question_order":[0],"trial_type":"survey-likert","trial_index":22,"time_elapsed":570222,"internal_node_id":"0.0-5.0-17.0"},{"rt":69436.30000001192,"responses":"{\"pregunta15\":\"e) El receptor es habitualmente pasivo frente a la publicidad.\"}","question_order":"[0]","trial_type":"survey-multi-choice","trial_index":23,"time_elapsed":639661,"internal_node_id":"0.0-5.0-18.0"},{"rt":1704.199999988079,"response":{"pregunta15 likert":3},"question_order":[0],"trial_type":"survey-likert","trial_index":24,"time_elapsed":641368,"internal_node_id":"0.0-5.0-19.0"},{"rt":74410.69999998808,"responses":"{\"pregunta11\":\"d) el mejor emperador es el que está muerto.\"}","question_order":"[0]","trial_type":"survey-multi-choice","trial_index":25,"time_elapsed":715781,"internal_node_id":"0.0-5.0-20.0"},{"rt":1030.5999999642372,"response":{"pregunta11 likert":3},"question_order":[0],"trial_type":"survey-likert","trial_index":26,"time_elapsed":716814,"internal_node_id":"0.0-5.0-21.0"},{"rt":38651,"responses":"{\"pregunta4\":\"e) Presentar positivamente las diversas tendencias del diseño de interiores a través de un comentario.\"}","question_order":"[0]","trial_type":"survey-multi-choice","trial_index":27,"time_elapsed":755468,"internal_node_id":"0.0-5.0-22.0"},{"rt":1110.300000011921,"response":{"pregunta4 likert":3},"question_order":[0],"trial_type":"survey-likert","trial_index":28,"time_elapsed":756581,"internal_node_id":"0.0-5.0-23.0"},{"rt":32471.700000047684,"responses":"{\"pregunta1\":\"b) Aportan informaciones con las que se reconstruye el personaje dentro de un relato.\"}","question_order":"[0]","trial_type":"survey-multi-choice","trial_index":29,"time_elapsed":789057,"internal_node_id":"0.0-5.0-24.0"},{"rt":2413.5,"response":{"pregunta1 likert":3},"question_order":[0],"trial_type":"survey-likert","trial_index":30,"time_elapsed":791474,"internal_node_id":"0.0-5.0-25.0"},{"rt":65317.80000001192,"responses":"{\"pregunta3\":\"c) La escritura olvida los momentos insignificantes de los viajes.\"}","question_order":"[0]","trial_type":"survey-multi-choice","trial_index":31,"time_elapsed":856795,"internal_node_id":"0.0-5.0-26.0"},{"rt":1830.1000000238419,"response":{"pregunta3 likert":3},"question_order":[0],"trial_type":"survey-likert","trial_index":32,"time_elapsed":858629,"internal_node_id":"0.0-5.0-27.0"},{"rt":60951.59999996424,"responses":"{\"pregunta6\":\"b) un recuerdo nostálgico.\"}","question_order":"[0]","trial_type":"survey-multi-choice","trial_index":33,"time_elapsed":919584,"internal_node_id":"0.0-5.0-28.0"},{"rt":3148.899999976158,"response":{"pregunta6 likert":2},"question_order":[0],"trial_type":"survey-likert","trial_index":34,"time_elapsed":922735,"internal_node_id":"0.0-5.0-29.0"},{"rt":68460.39999997616,"responses":"{\"pregunta9\":\"d) Homenajear a quienes murieron.\"}","question_order":"[0]","trial_type":"survey-multi-choice","trial_index":35,"time_elapsed":991199,"internal_node_id":"0.0-5.0-30.0"},{"rt":1673,"response":{"pregunta9 likert":3},"question_order":[0],"trial_type":"survey-likert","trial_index":36,"time_elapsed":992875,"internal_node_id":"0.0-5.0-31.0"},{"rt":45024.69999998808,"responses":"{\"pregunta8\":\"c) Provocar el deseo de la adquisición vertiginosa.\"}","question_order":"[0]","trial_type":"survey-multi-choice","trial_index":37,"time_elapsed":1037903,"internal_node_id":"0.0-5.0-32.0"},{"rt":951.6999999880791,"response":{"pregunta8 likert":3},"question_order":[0],"trial_type":"survey-likert","trial_index":38,"time_elapsed":1038858,"internal_node_id":"0.0-5.0-33.0"},{"rt":45662.60000002384,"responses":"{\"pregunta5\":\"c) El ser humano se comporta de acuerdo con las circunstancias.\"}","question_order":"[0]","trial_type":"survey-multi-choice","trial_index":39,"time_elapsed":1084525,"internal_node_id":"0.0-5.0-34.0"},{"rt":1092.800000011921,"response":{"pregunta5 likert":2},"question_order":[0],"trial_type":"survey-likert","trial_index":40,"time_elapsed":1085624,"internal_node_id":"0.0-5.0-35.0"},{"rt":61738.19999998808,"responses":"{\"pregunta18\":\"c) El derecho a informar y el derecho a la privacidad son inconciliables.\"}","question_order":"[0]","trial_type":"survey-multi-choice","trial_index":41,"time_elapsed":1147365,"internal_node_id":"0.0-5.0-36.0"},{"rt":1009.0999999642372,"response":{"pregunta18 likert":2},"question_order":[0],"trial_type":"survey-likert","trial_index":42,"time_elapsed":1148377,"internal_node_id":"0.0-5.0-37.0"},{"rt":28135.5,"responses":"{\"pregunta20\":\"a) para el mexicano, la muerte es cotidiana.\"}","question_order":"[0]","trial_type":"survey-multi-choice","trial_index":43,"time_elapsed":1176516,"internal_node_id":"0.0-5.0-38.0"},{"rt":1081.3999999761581,"response":{"pregunta20 likert":3},"question_order":[0],"trial_type":"survey-likert","trial_index":44,"time_elapsed":1177600,"internal_node_id":"0.0-5.0-39.0"},{"rt":3254.800000011921,"stimulus":"<p style=\"font-size: 120%\">Gracias por completar esta etapa del estudio. Ahora te invitamos a responder el cuestionario.<br><br></p>","response":0,"trial_type":"html-button-response","trial_index":45,"time_elapsed":1180861,"internal_node_id":"0.0-6.0"},{"rt":16839.899999976158,"stimulus":"<h1 style=\"margin-top: 5%\">Cuestionario para la Evaluación de Metas Académicas</h1><p style=\"font-size: 120%; margin-left: 3%; margin-top: 5%\">Este es un cuestionario que permite conocer cuáles son los principales motivos por los que los estudiantes se esfuerzan en su trabajo académico. A continuación, se te presentarán una serie de afirmaciones acerca de los motivos que puedes tener para estudiar.<br>Te pedimos que contestes a dichas afirmaciones reflexionando sobre el contenido de cada una de ellas, que, aunque te parezcan semejantes, en realidad, no lo son.<br>NO HAY RESPUESTAS CORRECTAS o INCORRECTAS, sólo queremos que respondas con la mayor precisión y sinceridad posible a las preguntas que se plantean.","response":0,"trial_type":"html-button-response","trial_index":46,"time_elapsed":1197703,"internal_node_id":"0.0-7.0"},{"rt":106325.09999996424,"response":{"Metas cuestionario pregunta1":3,"Metas cuestionario pregunta2":3,"Metas cuestionario pregunta3":4,"Metas cuestionario pregunta4":2,"Metas cuestionario pregunta5":4,"Metas cuestionario pregunta6":4,"Metas cuestionario pregunta7":3,"Metas cuestionario pregunta8":4,"Metas cuestionario pregunta9":0,"Metas cuestionario pregunta10":0,"Metas cuestionario pregunta11":0,"Metas cuestionario pregunta12":0,"Metas cuestionario pregunta13":0,"Metas cuestionario pregunta14":0,"Metas cuestionario pregunta15":4,"Metas cuestionario pregunta16":4,"Metas cuestionario pregunta17":4,"Metas cuestionario pregunta18":4,"Metas cuestionario pregunta19":4,"Metas cuestionario pregunta20":4},"question_order":[0,1,2,3,4,5,6,7,8,9,10,11,12,13,14,15,16,17,18,19],"trial_type":"survey-likert","trial_index":47,"time_elapsed":1304043,"internal_node_id":"0.0-8.0"},{"rt":3238.2000000476837,"stimulus":"<p style=\"font-size: 120%\">Gracias por responder el cuestionario. Ahora te invitamos a seguir con el juego, que es muy breve.<br><br></p>","response":0,"trial_type":"html-button-response","trial_index":48,"time_elapsed":1307289,"internal_node_id":"0.0-9.0"},{"rt":8042,"stimulus":"<h1>Juego</h1><p style=\"font-size: 120%;\">A continuación se te presentarán 16 pequeñas historias.<br>Por favor lee el texto presentado en cada una de ellas y luego haz click en el objeto de tu elección.<br>Si estás listo(a),<span style=\"color:red;\"> haz click en \"comenzar\"</span>.</p>","response":0,"trial_type":"html-button-response","trial_index":49,"time_elapsed":1315333,"internal_node_id":"0.0-10.0"},{"rt":5353.5,"grid":[[1,1,1,1,1]],"target":[0,0],"response":[0,3],"correct":false,"juego":1,"trial_type":"serial-reaction-time-mouse","trial_index":50,"time_elapsed":1320689,"internal_node_id":"0.0-11.0-0.0"},{"rt":14074,"grid":[[1,1,1,1,1]],"target":[0,0],"response":[0,1],"correct":false,"juego":3,"trial_type":"serial-reaction-time-mouse","trial_index":51,"time_elapsed":1334765,"internal_node_id":"0.0-11.0-1.0"},{"rt":8500.199999988079,"grid":[[1,1,1],[1,1,1],[1,1,1],[1,1,1],[1,1,1],[1,1,1],[1,1,1],[1,1,1],[1,1,1],[1,1,1],[1,1,1]],"target":[0,0],"response":[3,1],"correct":false,"juego":5,"trial_type":"serial-reaction-time-mouse","trial_index":52,"time_elapsed":1343269,"internal_node_id":"0.0-11.0-2.0"},{"rt":21725.299999952316,"grid":[[1,1,1,1,1]],"target":[0,0],"response":[0,1],"correct":false,"juego":12,"trial_type":"serial-reaction-time-mouse","trial_index":53,"time_elapsed":1364997,"internal_node_id":"0.0-11.0-3.0"},{"rt":15259.5,"grid":[[1,1,1,1,1]],"target":[0,0],"response":[0,1],"correct":false,"juego":9,"trial_type":"serial-reaction-time-mouse","trial_index":54,"time_elapsed":1380258,"internal_node_id":"0.0-11.0-4.0"},{"rt":18608.599999964237,"grid":[[1,1,1],[1,1,1],[1,1,1],[1,1,1],[1,1,1],[1,1,1],[1,1,1],[1,1,1],[1,1,1],[1,1,1],[1,1,1]],"target":[0,0],"response":[1,1],"correct":false,"juego":13,"trial_type":"serial-reaction-time-mouse","trial_index":55,"time_elapsed":1398872,"internal_node_id":"0.0-11.0-5.0"},{"rt":15161.300000011921,"grid":[[1,1,1,1],[1,1,1,1],[1,1,1,1],[1,1,1,1],[1,1,1,1],[1,1,1,1],[1,1,1,1],[1,1,1,1],[1,1,1,1],[1,1,1,1],[1,1,1,1]],"target":[0,0],"response":[5,2],"correct":false,"juego":15,"trial_type":"serial-reaction-time-mouse","trial_index":56,"time_elapsed":1414039,"internal_node_id":"0.0-11.0-6.0"},{"rt":5709.299999952316,"grid":[[1,1,1],[1,1,1],[1,1,1],[1,1,1],[1,1,1],[1,1,1],[1,1,1],[1,1,1],[1,1,1],[1,1,1],[1,1,1]],"target":[0,0],"response":[3,1],"correct":false,"juego":6,"trial_type":"serial-reaction-time-mouse","trial_index":57,"time_elapsed":1419752,"internal_node_id":"0.0-11.0-7.0"},{"rt":9694.899999976158,"grid":[[1,1,1,1,1]],"target":[0,0],"response":[0,1],"correct":false,"juego":11,"trial_type":"serial-reaction-time-mouse","trial_index":58,"time_elapsed":1429449,"internal_node_id":"0.0-11.0-8.0"},{"rt":8426.699999988079,"grid":[[1],[1],[1],[1],[1]],"target":[0,0],"response":[0,0],"correct":true,"juego":4,"trial_type":"serial-reaction-time-mouse","trial_index":59,"time_elapsed":1437878,"internal_node_id":"0.0-11.0-9.0"},{"rt":17024.69999998808,"grid":[[1,1,1,1],[1,1,1,1],[1,1,1,1],[1,1,1,1],[1,1,1,1],[1,1,1,1],[1,1,1,1],[1,1,1,1],[1,1,1,1],[1,1,1,1],[1,1,1,1]],"target":[0,0],"response":[3,2],"correct":false,"juego":14,"trial_type":"serial-reaction-time-mouse","trial_index":60,"time_elapsed":1454908,"internal_node_id":"0.0-11.0-10.0"},{"rt":13873.5,"grid":[[1,1,1],[1,1,1],[1,1,1],[1,1,1],[1,1,1],[1,1,1],[1,1,1],[1,1,1],[1,1,1],[1,1,1],[1,1,1]],"target":[0,0],"response":[9,0],"correct":false,"juego":10,"trial_type":"serial-reaction-time-mouse","trial_index":61,"time_elapsed":1468785,"internal_node_id":"0.0-11.0-11.0"},{"rt":9327.200000047684,"grid":[[1,1,1,1,1]],"target":[0,0],"response":[0,3],"correct":false,"juego":7,"trial_type":"serial-reaction-time-mouse","trial_index":62,"time_elapsed":1478115,"internal_node_id":"0.0-11.0-12.0"},{"rt":11721.5,"grid":[[1,1,1,1,1]],"target":[0,0],"response":[0,1],"correct":false,"juego":8,"trial_type":"serial-reaction-time-mouse","trial_index":63,"time_elapsed":1489839,"internal_node_id":"0.0-11.0-13.0"},{"rt":15508,"grid":[[1,1,1,1,1]],"target":[0,0],"response":[0,1],"correct":false,"juego":2,"trial_type":"serial-reaction-time-mouse","trial_index":64,"time_elapsed":1505349,"internal_node_id":"0.0-11.0-14.0"},{"rt":5461,"stimulus":"<h1>Último juego</h1><p style=\"font-size: 130%;\">Tienes <span style=\"color:red\">35</span> segundos para recordar los pares de palabras que aparecerán a continuación. <br></p>","response":0,"trial_type":"html-button-response","trial_index":65,"time_elapsed":1510817,"internal_node_id":"0.0-12.0"},{"animation_sequence":[{"stimulus":"imagen_juego_interferencia.jpg","time":519.8000000119209},{"stimulus":"imagen_juego_interferencia.jpg","time":1001.8999999761581},{"stimulus":"imagen_juego_interferencia.jpg","time":1502.3999999761581},{"stimulus":"imagen_juego_interferencia.jpg","time":2002.3999999761581},{"stimulus":"imagen_juego_interferencia.jpg","time":2501.5},{"stimulus":"imagen_juego_interferencia.jpg","time":3001.300000011921},{"stimulus":"imagen_juego_interferencia.jpg","time":3501.300000011921},{"stimulus":"imagen_juego_interferencia.jpg","time":4001.899999976158},{"stimulus":"imagen_juego_interferencia.jpg","time":4502.5},{"stimulus":"imagen_juego_interferencia.jpg","time":5001.300000011921},{"stimulus":"imagen_juego_interferencia.jpg","time":5501.300000011921},{"stimulus":"imagen_juego_interferencia.jpg","time":6001.600000023842},{"stimulus":"imagen_juego_interferencia.jpg","time":6502},{"stimulus":"imagen_juego_interferencia.jpg","time":7002.600000023842},{"stimulus":"imagen_juego_interferencia.jpg","time":7507.399999976158},{"stimulus":"imagen_juego_interferencia.jpg","time":8001.300000011921},{"stimulus":"imagen_juego_interferencia.jpg","time":8501.600000023842},{"stimulus":"imagen_juego_interferencia.jpg","time":9001.699999988079},{"stimulus":"imagen_juego_interferencia.jpg","time":9502.199999988079},{"stimulus":"imagen_juego_interferencia.jpg","time":10002.100000023842},{"stimulus":"imagen_juego_interferencia.jpg","time":10502.399999976158},{"stimulus":"imagen_juego_interferencia.jpg","time":11001.699999988079},{"stimulus":"imagen_juego_interferencia.jpg","time":11502.199999988079},{"stimulus":"imagen_juego_interferencia.jpg","time":12002},{"stimulus":"imagen_juego_interferencia.jpg","time":12502},{"stimulus":"imagen_juego_interferencia.jpg","time":13001.399999976158},{"stimulus":"imagen_juego_interferencia.jpg","time":13501.800000011921},{"stimulus":"imagen_juego_interferencia.jpg","time":14001.399999976158},{"stimulus":"imagen_juego_interferencia.jpg","time":14501.5},{"stimulus":"imagen_juego_interferencia.jpg","time":15001.600000023842},{"stimulus":"imagen_juego_interferencia.jpg","time":15501.399999976158},{"stimulus":"imagen_juego_interferencia.jpg","time":16001.699999988079},{"stimulus":"imagen_juego_interferencia.jpg","time":16502.100000023842},{"stimulus":"imagen_juego_interferencia.jpg","time":17001.69999998808},{"stimulus":"imagen_juego_interferencia.jpg","time":17501.5},{"stimulus":"imagen_juego_interferencia.jpg","time":18001.80000001192},{"stimulus":"imagen_juego_interferencia.jpg","time":18503.100000023842},{"stimulus":"imagen_juego_interferencia.jpg","time":19001.69999998808},{"stimulus":"imagen_juego_interferencia.jpg","time":19501.399999976158},{"stimulus":"imagen_juego_interferencia.jpg","time":20001.69999998808},{"stimulus":"imagen_juego_interferencia.jpg","time":20501.69999998808},{"stimulus":"imagen_juego_interferencia.jpg","time":21001.80000001192},{"stimulus":"imagen_juego_interferencia.jpg","time":21501.69999998808},{"stimulus":"imagen_juego_interferencia.jpg","time":22001.600000023842},{"stimulus":"imagen_juego_interferencia.jpg","time":22501.80000001192},{"stimulus":"imagen_juego_interferencia.jpg","time":23001.600000023842},{"stimulus":"imagen_juego_interferencia.jpg","time":23501.69999998808},{"stimulus":"imagen_juego_interferencia.jpg","time":24001.5},{"stimulus":"imagen_juego_interferencia.jpg","time":24501.69999998808},{"stimulus":"imagen_juego_interferencia.jpg","time":25001.5},{"stimulus":"imagen_juego_interferencia.jpg","time":25501.600000023842},{"stimulus":"imagen_juego_interferencia.jpg","time":26001.69999998808},{"stimulus":"imagen_juego_interferencia.jpg","time":26501.69999998808},{"stimulus":"imagen_juego_interferencia.jpg","time":27001.899999976158},{"stimulus":"imagen_juego_interferencia.jpg","time":27501.600000023842},{"stimulus":"imagen_juego_interferencia.jpg","time":28001.69999998808},{"stimulus":"imagen_juego_interferencia.jpg","time":28501.600000023842},{"stimulus":"imagen_juego_interferencia.jpg","time":29001.80000001192},{"stimulus":"imagen_juego_interferencia.jpg","time":29501.69999998808},{"stimulus":"imagen_juego_interferencia.jpg","time":30001.69999998808},{"stimulus":"imagen_juego_interferencia.jpg","time":30501.600000023842},{"stimulus":"imagen_juego_interferencia.jpg","time":31003.19999998808},{"stimulus":"imagen_juego_interferencia.jpg","time":31502},{"stimulus":"imagen_juego_interferencia.jpg","time":32001.69999998808},{"stimulus":"imagen_juego_interferencia.jpg","time":32502.399999976158},{"stimulus":"imagen_juego_interferencia.jpg","time":33001.60000002384},{"stimulus":"imagen_juego_interferencia.jpg","time":33501.5},{"stimulus":"imagen_juego_interferencia.jpg","time":34002},{"stimulus":"imagen_juego_interferencia.jpg","time":34501.89999997616},{"stimulus":"imagen_juego_interferencia.jpg","time":35003.30000001192}],"response":[],"trial_type":"animation","trial_index":66,"time_elapsed":1546323,"internal_node_id":"0.0-13.0"},{"rt":11130.599999964237,"responses":"{\"pregunta interferencia3\":\"aluminio\"}","question_order":"[0]","trial_type":"survey-multi-choice-cuest","trial_index":67,"time_elapsed":1557458,"internal_node_id":"0.0-14.0-0.0"},{"rt":3681.800000011921,"responses":"{\"pregunta interferencia2\":\"saltamontes\"}","question_order":"[0]","trial_type":"survey-multi-choice-cuest","trial_index":68,"time_elapsed":1561145,"internal_node_id":"0.0-14.0-1.0"},{"rt":3554.300000011921,"responses":"{\"pregunta interferencia1\":\"naranja\"}","question_order":"[0]","trial_type":"survey-multi-choice-cuest","trial_index":69,"time_elapsed":1564702,"internal_node_id":"0.0-14.0-2.0"},{"rt":5964.100000023842,"responses":"{\"pregunta interferencia4\":\"contador\"}","question_order":"[0]","trial_type":"survey-multi-choice-cuest","trial_index":70,"time_elapsed":1570673,"internal_node_id":"0.0-14.0-3.0"},{"success":true,"trial_type":"fullscreen","trial_index":71,"time_elapsed":1571674,"internal_node_id":"0.0-15.0"},{"rt":26845.400000035763,"responses":"{\"Telefono\":\"Por consiguiente, lo malo es, en un comienzo, aquello por lo cual  uno es amenazado con la pérdida de amor; y es preciso  evitarlo por la angustia frente a esa pérdida. De acuerdo  con ello, importa poco que ya se haya hecho lo malo, o  sólo se lo quiera hacer; en ambos casos, el peligro se cierne  solamente cuando la autoridad lo descubre\"}","trial_type":"survey-text","trial_index":72,"time_elapsed":1598524,"internal_node_id":"0.0-16.0"}]