[{"rt":63718.59999990463,"stimulus":"<h1 style=\"color:red; margin-top: 3%;\">¡Bienvenido(a)!</h1><p style=\"text-align:left; justify-content:space-between; margin-right: 5%; margin-left: 5%; margin-top: 5%\"> Antes de empezar el estudio, necesitamos que nos confirmes que estás de acuerdo con participar. Recuerda que tu participación es 100% voluntaria y que lo único que te pedimos es responder lo mejor que puedas. Recuerda también que el estudio incluye:</p><ol style=\"text-align:left; justify-content:space-between; margin-right: 5%; margin-left: 5%;\"><li> un ejercicio de resolución de preguntas de selección múltiple (30’),</li><li>un cuestionario breve (5’),</li><li>un juego muy breve (3’),</li></ol><p style=\"text-align:left; justify-content:space-between; margin-right: 5%; margin-left: 5%;\">Si quieres participar, haz clic en “Acepto” luego de leer lo siguiente:<br></p><p style=\"text-align:left; justify-content:space-between; margin-right: 5%; margin-left: 5%;\">Acepto participar en el estudio “Estrategias de lectura y resolución de preguntas de selección múltiple”, en los términos aquí señalados:<br></p><p style=\"text-align:left; justify-content:space-between; margin-right: 5%; margin-left: 5%;\"><a href=\"http://ciae.uchile.cl/download.php?file=noticias/Asentimiento.pdf\" target=\"_blank\">Link a la hoja de información del Consentimiento.</a></p><p style=\"text-align:left; justify-content:space-between; margin-right: 5%; margin-left: 5%;\">Declaro que he leído (o se me ha leído) y (he) comprendido, las condiciones de mi participación en este estudio. He tenido la oportunidad de hacer preguntas y éstas han sido respondidas. No tengo dudas al respecto.</p>","response":0,"condicion_MCQ":1,"condicion_JUEGO":61,"condicion_INTER":13,"numero_participante":61,"numero_version":1,"dimx":1366,"dimy":768,"color_profundidad":24,"pixel_profundidad":24,"Browser":"Google Chrome","dia":21,"mes":5,"hora":15,"minuto":18,"segundo":4,"trial_type":"html-button-response","trial_index":0,"time_elapsed":63726,"internal_node_id":"0.0-0.0"},{"success":true,"trial_type":"fullscreen","trial_index":1,"time_elapsed":69557,"internal_node_id":"0.0-1.0"},{"rt":97138.79999995232,"responses":"{\"Nombres\":\"Francisca Natalia\",\"Apellidos\":\"Ugarte Espinosa\",\"Edad\":\"24\",\"Sexo\":\"mujer\",\"Curso\":\"sección 200 \",\"Colegio\":\"Universidad Andrés Bello\",\"Contacto\":\"frannatalia.ugarte@gmail.com\"}","trial_type":"survey-text","trial_index":2,"time_elapsed":166717,"internal_node_id":"0.0-2.0"},{"success":true,"timeout":false,"failed_images":[],"failed_audio":[],"failed_video":[],"trial_type":"preload","trial_index":3,"time_elapsed":169930,"internal_node_id":"0.0-3.0"},{"rt":12906.5,"stimulus":"<h1 style:\"margin-top: 5%;\">Ejercicios de Comprensión de Lectura de la Universidad de Chile</h1><p style=\"font-size: 120%;\">En esta actividad, debes responder 20 preguntas de selección múltiple. Cada pregunta presenta 5 respuestas alternativas, pero sólo una de ellas es correcta. Por lo tanto, debes escoger una sola alternativa para cada pregunta. Además, debes reportar qué tan seguro(a) estás de la respuesta que das, con un:</p><ol style=\"font-size: 120%;text-align:left;margin-left: 40%;\"><li>No estoy seguro(a) para nada</li><li>No estoy muy seguro(a)</li><li>Estoy bastante seguro(a)</li><li>Estoy totalmente seguro(a)</li></ol><p style=\"font-size: 120%;\">Por favor lee bien los enunciados antes de responder. ¡Éxito!</p>","response":0,"trial_type":"html-button-response","trial_index":4,"time_elapsed":182839,"internal_node_id":"0.0-4.0"},{"rt":45584.5,"responses":"{\"pregunta13\":\"d) Bomberos debería tener acceso a un seguro médico, al que pueda recurrir en caso de accidente.\"}","question_order":"[0]","trial_type":"survey-multi-choice","trial_index":5,"time_elapsed":228426,"internal_node_id":"0.0-5.0-0.0"},{"rt":4595.100000023842,"response":{"pregunta13 likert":2},"question_order":[0],"trial_type":"survey-likert","trial_index":6,"time_elapsed":233027,"internal_node_id":"0.0-5.0-1.0"},{"rt":35648.299999952316,"responses":"{\"pregunta18\":\"e) Se necesita un marco legal para delimitar lo público y lo privado en materia informativa.\"}","question_order":"[0]","trial_type":"survey-multi-choice","trial_index":7,"time_elapsed":268682,"internal_node_id":"0.0-5.0-2.0"},{"rt":2127.2999999523163,"response":{"pregunta18 likert":1},"question_order":[0],"trial_type":"survey-likert","trial_index":8,"time_elapsed":270815,"internal_node_id":"0.0-5.0-3.0"},{"rt":87539.5,"responses":"{\"pregunta17\":\"b) El futuro de la economía chilena es incierto.\"}","question_order":"[0]","trial_type":"survey-multi-choice","trial_index":9,"time_elapsed":358359,"internal_node_id":"0.0-5.0-4.0"},{"rt":2627.2000000476837,"response":{"pregunta17 likert":2},"question_order":[0],"trial_type":"survey-likert","trial_index":10,"time_elapsed":360992,"internal_node_id":"0.0-5.0-5.0"},{"rt":68182.5,"responses":"{\"pregunta4\":\"b) Exponer sobre los conceptos de decoración dominantes en nuestro país.\"}","question_order":"[0]","trial_type":"survey-multi-choice","trial_index":11,"time_elapsed":429182,"internal_node_id":"0.0-5.0-6.0"},{"rt":1923.8999999761581,"response":{"pregunta4 likert":2},"question_order":[0],"trial_type":"survey-likert","trial_index":12,"time_elapsed":431112,"internal_node_id":"0.0-5.0-7.0"},{"rt":28076.5,"responses":"{\"pregunta20\":\"d) la muerte es distinta en las grandes ciudades.\"}","question_order":"[0]","trial_type":"survey-multi-choice","trial_index":13,"time_elapsed":459195,"internal_node_id":"0.0-5.0-8.0"},{"rt":3053.600000023842,"response":{"pregunta20 likert":3},"question_order":[0],"trial_type":"survey-likert","trial_index":14,"time_elapsed":462255,"internal_node_id":"0.0-5.0-9.0"},{"rt":50290,"responses":"{\"pregunta1\":\"a) Aportan informaciones con las que se reconstruye el personaje dentro de un relato.\"}","question_order":"[0]","trial_type":"survey-multi-choice","trial_index":15,"time_elapsed":512551,"internal_node_id":"0.0-5.0-10.0"},{"rt":2845.899999976158,"response":{"pregunta1 likert":1},"question_order":[0],"trial_type":"survey-likert","trial_index":16,"time_elapsed":515403,"internal_node_id":"0.0-5.0-11.0"},{"rt":102307.39999997616,"responses":"{\"pregunta14\":\"b) A la inexistencia de un recinto adecuado para el recital.\"}","question_order":"[0]","trial_type":"survey-multi-choice","trial_index":17,"time_elapsed":617716,"internal_node_id":"0.0-5.0-12.0"},{"rt":2116.3000000715256,"response":{"pregunta14 likert":2},"question_order":[0],"trial_type":"survey-likert","trial_index":18,"time_elapsed":619838,"internal_node_id":"0.0-5.0-13.0"},{"rt":42631.60000002384,"responses":"{\"pregunta7\":\"b) ritualistas y obsesivos.\"}","question_order":"[0]","trial_type":"survey-multi-choice","trial_index":19,"time_elapsed":662477,"internal_node_id":"0.0-5.0-14.0"},{"rt":2504.7000000476837,"response":{"pregunta7 likert":3},"question_order":[0],"trial_type":"survey-likert","trial_index":20,"time_elapsed":664987,"internal_node_id":"0.0-5.0-15.0"},{"rt":67310.10000002384,"responses":"{\"pregunta15\":\"d) El receptor es habitualmente pasivo frente a la publicidad.\"}","question_order":"[0]","trial_type":"survey-multi-choice","trial_index":21,"time_elapsed":732303,"internal_node_id":"0.0-5.0-16.0"},{"rt":2554.7000000476837,"response":{"pregunta15 likert":3},"question_order":[0],"trial_type":"survey-likert","trial_index":22,"time_elapsed":734864,"internal_node_id":"0.0-5.0-17.0"},{"rt":95733.59999990463,"responses":"{\"pregunta16\":\"d) sufren dolores de espalda.\"}","question_order":"[0]","trial_type":"survey-multi-choice","trial_index":23,"time_elapsed":830604,"internal_node_id":"0.0-5.0-18.0"},{"rt":3434.5999999046326,"response":{"pregunta16 likert":0},"question_order":[0],"trial_type":"survey-likert","trial_index":24,"time_elapsed":834044,"internal_node_id":"0.0-5.0-19.0"},{"rt":108137.5,"responses":"{\"pregunta19\":\"c) la Muerte vaticina el futuro mediante gestos.\"}","question_order":"[0]","trial_type":"survey-multi-choice","trial_index":25,"time_elapsed":942188,"internal_node_id":"0.0-5.0-20.0"},{"rt":3603.5,"response":{"pregunta19 likert":1},"question_order":[0],"trial_type":"survey-likert","trial_index":26,"time_elapsed":945797,"internal_node_id":"0.0-5.0-21.0"},{"rt":59789.200000047684,"responses":"{\"pregunta6\":\"c) un recuerdo nostálgico.\"}","question_order":"[0]","trial_type":"survey-multi-choice","trial_index":27,"time_elapsed":1005593,"internal_node_id":"0.0-5.0-22.0"},{"rt":2846.8000000715256,"response":{"pregunta6 likert":2},"question_order":[0],"trial_type":"survey-likert","trial_index":28,"time_elapsed":1008446,"internal_node_id":"0.0-5.0-23.0"},{"rt":39987.39999997616,"responses":"{\"pregunta3\":\"a) Los momentos triviales de los viajes, en la escritura se vuelven significativos.\"}","question_order":"[0]","trial_type":"survey-multi-choice","trial_index":29,"time_elapsed":1048440,"internal_node_id":"0.0-5.0-24.0"},{"rt":1774.6000000238419,"response":{"pregunta3 likert":2},"question_order":[0],"trial_type":"survey-likert","trial_index":30,"time_elapsed":1050221,"internal_node_id":"0.0-5.0-25.0"},{"rt":54555.299999952316,"responses":"{\"pregunta12\":\"c) el uranio es el elemento natural con el mayor número de protones en el núcleo.\"}","question_order":"[0]","trial_type":"survey-multi-choice","trial_index":31,"time_elapsed":1104782,"internal_node_id":"0.0-5.0-26.0"},{"rt":2252.2999999523163,"response":{"pregunta12 likert":3},"question_order":[0],"trial_type":"survey-likert","trial_index":32,"time_elapsed":1107040,"internal_node_id":"0.0-5.0-27.0"},{"rt":56105.700000047684,"responses":"{\"pregunta9\":\"c) Homenajear a quienes murieron.\"}","question_order":"[0]","trial_type":"survey-multi-choice","trial_index":33,"time_elapsed":1163151,"internal_node_id":"0.0-5.0-28.0"},{"rt":2482.399999976158,"response":{"pregunta9 likert":3},"question_order":[0],"trial_type":"survey-likert","trial_index":34,"time_elapsed":1165639,"internal_node_id":"0.0-5.0-29.0"},{"rt":42812.5,"responses":"{\"pregunta10\":\"a) A la importancia de optar entre descansar y triunfar.\"}","question_order":"[0]","trial_type":"survey-multi-choice","trial_index":35,"time_elapsed":1208458,"internal_node_id":"0.0-5.0-30.0"},{"rt":1859.6999999284744,"response":{"pregunta10 likert":2},"question_order":[0],"trial_type":"survey-likert","trial_index":36,"time_elapsed":1210325,"internal_node_id":"0.0-5.0-31.0"},{"rt":38722.5,"responses":"{\"pregunta8\":\"e) Deleitar a sus receptores por medio de la belleza y el confort.\"}","question_order":"[0]","trial_type":"survey-multi-choice","trial_index":37,"time_elapsed":1249054,"internal_node_id":"0.0-5.0-32.0"},{"rt":2139.8000000715256,"response":{"pregunta8 likert":2},"question_order":[0],"trial_type":"survey-likert","trial_index":38,"time_elapsed":1251201,"internal_node_id":"0.0-5.0-33.0"},{"rt":48499.10000002384,"responses":"{\"pregunta11\":\"b) el Primer Ministro debía morir por ambicioso.\"}","question_order":"[0]","trial_type":"survey-multi-choice","trial_index":39,"time_elapsed":1299706,"internal_node_id":"0.0-5.0-34.0"},{"rt":3934,"response":{"pregunta11 likert":2},"question_order":[0],"trial_type":"survey-likert","trial_index":40,"time_elapsed":1303646,"internal_node_id":"0.0-5.0-35.0"},{"rt":25454.599999904633,"responses":"{\"pregunta2\":\"a) A la relación entre pensamiento y estructura social.\"}","question_order":"[0]","trial_type":"survey-multi-choice","trial_index":41,"time_elapsed":1329107,"internal_node_id":"0.0-5.0-36.0"},{"rt":2800.2999999523163,"response":{"pregunta2 likert":3},"question_order":[0],"trial_type":"survey-likert","trial_index":42,"time_elapsed":1331913,"internal_node_id":"0.0-5.0-37.0"},{"rt":56842.39999997616,"responses":"{\"pregunta5\":\"b) El ser humano se comporta de acuerdo con las circunstancias.\"}","question_order":"[0]","trial_type":"survey-multi-choice","trial_index":43,"time_elapsed":1388760,"internal_node_id":"0.0-5.0-38.0"},{"rt":1982.7999999523163,"response":{"pregunta5 likert":3},"question_order":[0],"trial_type":"survey-likert","trial_index":44,"time_elapsed":1390748,"internal_node_id":"0.0-5.0-39.0"},{"rt":2393.399999976158,"stimulus":"<p style=\"font-size: 120%\">Gracias por completar esta etapa del estudio. Ahora te invitamos a responder el cuestionario.<br><br></p>","response":0,"trial_type":"html-button-response","trial_index":45,"time_elapsed":1393152,"internal_node_id":"0.0-6.0"},{"rt":11913.5,"stimulus":"<h1 style=\"margin-top: 5%\">Cuestionario para la Evaluación de Metas Académicas</h1><p style=\"font-size: 120%; margin-left: 3%; margin-top: 5%\">Este es un cuestionario que permite conocer cuáles son los principales motivos por los que los estudiantes se esfuerzan en su trabajo académico. A continuación, se te presentarán una serie de afirmaciones acerca de los motivos que puedes tener para estudiar.<br>Te pedimos que contestes a dichas afirmaciones reflexionando sobre el contenido de cada una de ellas, que, aunque te parezcan semejantes, en realidad, no lo son.<br>NO HAY RESPUESTAS CORRECTAS o INCORRECTAS, sólo queremos que respondas con la mayor precisión y sinceridad posible a las preguntas que se plantean.","response":0,"trial_type":"html-button-response","trial_index":46,"time_elapsed":1405067,"internal_node_id":"0.0-7.0"},{"rt":107242.89999997616,"response":{"Metas cuestionario pregunta1":3,"Metas cuestionario pregunta2":4,"Metas cuestionario pregunta3":4,"Metas cuestionario pregunta4":2,"Metas cuestionario pregunta5":2,"Metas cuestionario pregunta6":4,"Metas cuestionario pregunta7":3,"Metas cuestionario pregunta8":3,"Metas cuestionario pregunta9":1,"Metas cuestionario pregunta10":0,"Metas cuestionario pregunta11":0,"Metas cuestionario pregunta12":1,"Metas cuestionario pregunta13":0,"Metas cuestionario pregunta14":0,"Metas cuestionario pregunta15":4,"Metas cuestionario pregunta16":4,"Metas cuestionario pregunta17":4,"Metas cuestionario pregunta18":4,"Metas cuestionario pregunta19":4,"Metas cuestionario pregunta20":2},"question_order":[0,1,2,3,4,5,6,7,8,9,10,11,12,13,14,15,16,17,18,19],"trial_type":"survey-likert","trial_index":47,"time_elapsed":1512317,"internal_node_id":"0.0-8.0"}]