[{"rt":1670146.4849999757,"stimulus":"<h1 style=\"color:red; margin-top: 3%;\">¡Bienvenido(a)!</h1><p style=\"text-align:left; justify-content:space-between; margin-right: 5%; margin-left: 5%; margin-top: 5%\"> Antes de empezar el estudio, necesitamos que nos confirmes que estás de acuerdo con participar. Recuerda que tu participación es 100% voluntaria y que lo único que te pedimos es responder lo mejor que puedas. Recuerda también que el estudio incluye:</p><ol style=\"text-align:left; justify-content:space-between; margin-right: 5%; margin-left: 5%;\"><li> un ejercicio de resolución de preguntas de selección múltiple (30’),</li><li>un cuestionario breve (5’),</li><li>un juego muy breve (3’),</li></ol><p style=\"text-align:left; justify-content:space-between; margin-right: 5%; margin-left: 5%;\">Si quieres participar, haz clic en “Acepto” luego de leer lo siguiente:<br></p><p style=\"text-align:left; justify-content:space-between; margin-right: 5%; margin-left: 5%;\">Acepto participar en el estudio “Estrategias de lectura y resolución de preguntas de selección múltiple”, en los términos aquí señalados:<br></p><p style=\"text-align:left; justify-content:space-between; margin-right: 5%; margin-left: 5%;\"><a href=\"http://ciae.uchile.cl/download.php?file=noticias/Asentimiento.pdf\" target=\"_blank\">Link a la hoja de información del Consentimiento.</a></p><p style=\"text-align:left; justify-content:space-between; margin-right: 5%; margin-left: 5%;\">Declaro que he leído (o se me ha leído) y (he) comprendido, las condiciones de mi participación en este estudio. He tenido la oportunidad de hacer preguntas y éstas han sido respondidas. No tengo dudas al respecto.</p>","response":0,"condicion_MCQ":11,"condicion_JUEGO":71,"condicion_INTER":23,"numero_participante":71,"numero_version":1,"dimx":1366,"dimy":768,"color_profundidad":24,"pixel_profundidad":24,"Browser":"Google Chrome","dia":22,"mes":5,"hora":21,"minuto":47,"segundo":57,"trial_type":"html-button-response","trial_index":0,"time_elapsed":1670163,"internal_node_id":"0.0-0.0"},{"success":true,"trial_type":"fullscreen","trial_index":1,"time_elapsed":1683849,"internal_node_id":"0.0-1.0"},{"rt":218864.89999998594,"responses":"{\"Nombres\":\"Vania Soledad\",\"Apellidos\":\"Muñoz Daza\",\"Edad\":\"24\",\"Sexo\":\"mujer\",\"Curso\":\"seccion 101\",\"Colegio\":\"Andres Bello\",\"Contacto\":\"vania.daza.1@hotmail.com\"}","trial_type":"survey-text","trial_index":2,"time_elapsed":1902746,"internal_node_id":"0.0-2.0"},{"success":true,"timeout":false,"failed_images":[],"failed_audio":[],"failed_video":[],"trial_type":"preload","trial_index":3,"time_elapsed":1905194,"internal_node_id":"0.0-3.0"},{"rt":38347.26499998942,"stimulus":"<h1 style:\"margin-top: 5%;\">Ejercicios de Comprensión de Lectura de la Universidad de Chile</h1><p style=\"font-size: 120%;\">En esta actividad, debes responder 20 preguntas de selección múltiple. Cada pregunta presenta 5 respuestas alternativas, pero sólo una de ellas es correcta. Por lo tanto, debes escoger una sola alternativa para cada pregunta. Además, debes reportar qué tan seguro(a) estás de la respuesta que das, con un:</p><ol style=\"font-size: 120%;text-align:left;margin-left: 40%;\"><li>No estoy seguro(a) para nada</li><li>No estoy muy seguro(a)</li><li>Estoy bastante seguro(a)</li><li>Estoy totalmente seguro(a)</li></ol><p style=\"font-size: 120%;\">Por favor lee bien los enunciados antes de responder. ¡Éxito!</p>","response":0,"trial_type":"html-button-response","trial_index":4,"time_elapsed":1943543,"internal_node_id":"0.0-4.0"},{"rt":77889.80499998434,"responses":"{\"pregunta12\":\"d) a partir de la manipulación del núcleo se han creado elementos químicos naturales.\"}","question_order":"[0]","trial_type":"survey-multi-choice","trial_index":5,"time_elapsed":2021431,"internal_node_id":"0.0-5.0-0.0"},{"rt":3856.1849999823608,"response":{"pregunta12 likert":2},"question_order":[0],"trial_type":"survey-likert","trial_index":6,"time_elapsed":2025291,"internal_node_id":"0.0-5.0-1.0"},{"rt":146982.77000000235,"responses":"{\"pregunta14\":\"a) A la influencia de grupos que rechazaban su música.\"}","question_order":"[0]","trial_type":"survey-multi-choice","trial_index":7,"time_elapsed":2172275,"internal_node_id":"0.0-5.0-2.0"},{"rt":5676.414999994449,"response":{"pregunta14 likert":1},"question_order":[0],"trial_type":"survey-likert","trial_index":8,"time_elapsed":2177955,"internal_node_id":"0.0-5.0-3.0"},{"rt":221564.74499998149,"responses":"{\"pregunta18\":\"b) Se necesita un marco legal para delimitar lo público y lo privado en materia informativa.\"}","question_order":"[0]","trial_type":"survey-multi-choice","trial_index":9,"time_elapsed":2399526,"internal_node_id":"0.0-5.0-4.0"},{"rt":3177.559999981895,"response":{"pregunta18 likert":1},"question_order":[0],"trial_type":"survey-likert","trial_index":10,"time_elapsed":2402705,"internal_node_id":"0.0-5.0-5.0"},{"rt":74882.1750000352,"responses":"{\"pregunta7\":\"e) ritualistas y obsesivos.\"}","question_order":"[0]","trial_type":"survey-multi-choice","trial_index":11,"time_elapsed":2477590,"internal_node_id":"0.0-5.0-6.0"},{"rt":2697.6099999737926,"response":{"pregunta7 likert":2},"question_order":[0],"trial_type":"survey-likert","trial_index":12,"time_elapsed":2480290,"internal_node_id":"0.0-5.0-7.0"},{"rt":65384.19499999145,"responses":"{\"pregunta9\":\"e) Homenajear a quienes murieron.\"}","question_order":"[0]","trial_type":"survey-multi-choice","trial_index":13,"time_elapsed":2545674,"internal_node_id":"0.0-5.0-8.0"},{"rt":2491.8450000113808,"response":{"pregunta9 likert":2},"question_order":[0],"trial_type":"survey-likert","trial_index":14,"time_elapsed":2548167,"internal_node_id":"0.0-5.0-9.0"},{"rt":56023.27000000514,"responses":"{\"pregunta1\":\"c) Aportan informaciones con las que se reconstruye el personaje dentro de un relato.\"}","question_order":"[0]","trial_type":"survey-multi-choice","trial_index":15,"time_elapsed":2604194,"internal_node_id":"0.0-5.0-10.0"},{"rt":2346.330000029411,"response":{"pregunta1 likert":2},"question_order":[0],"trial_type":"survey-likert","trial_index":16,"time_elapsed":2606546,"internal_node_id":"0.0-5.0-11.0"},{"rt":80320.78000000911,"responses":"{\"pregunta4\":\"d) Promover la asistencia a un evento específico de decoración a través de una atractiva descripción.\"}","question_order":"[0]","trial_type":"survey-multi-choice","trial_index":17,"time_elapsed":2686862,"internal_node_id":"0.0-5.0-12.0"},{"rt":2191.7600000160746,"response":{"pregunta4 likert":2},"question_order":[0],"trial_type":"survey-likert","trial_index":18,"time_elapsed":2689056,"internal_node_id":"0.0-5.0-13.0"},{"rt":85544.93000003276,"responses":"{\"pregunta3\":\"a) La escritura plasma los mejores momentos de los viajes.\"}","question_order":"[0]","trial_type":"survey-multi-choice","trial_index":19,"time_elapsed":2774610,"internal_node_id":"0.0-5.0-14.0"},{"rt":2214.4800000241958,"response":{"pregunta3 likert":2},"question_order":[0],"trial_type":"survey-likert","trial_index":20,"time_elapsed":2776826,"internal_node_id":"0.0-5.0-15.0"},{"rt":63059.72499999916,"responses":"{\"pregunta13\":\"d) Por el riesgo que corren diariamente, los bomberos deberían tener mejores condiciones de seguridad.\"}","question_order":"[0]","trial_type":"survey-multi-choice","trial_index":21,"time_elapsed":2839886,"internal_node_id":"0.0-5.0-16.0"},{"rt":3224.8400000389665,"response":{"pregunta13 likert":1},"question_order":[0],"trial_type":"survey-likert","trial_index":22,"time_elapsed":2843113,"internal_node_id":"0.0-5.0-17.0"},{"rt":70628.320000018,"responses":"{\"pregunta20\":\"b) la muerte es distinta en las grandes ciudades.\"}","question_order":"[0]","trial_type":"survey-multi-choice","trial_index":23,"time_elapsed":2913739,"internal_node_id":"0.0-5.0-18.0"},{"rt":1952.350000035949,"response":{"pregunta20 likert":1},"question_order":[0],"trial_type":"survey-likert","trial_index":24,"time_elapsed":2915695,"internal_node_id":"0.0-5.0-19.0"},{"rt":106576.99999999022,"responses":"{\"pregunta17\":\"d) El TLC causará una completa transformación de la economía chilena.\"}","question_order":"[0]","trial_type":"survey-multi-choice","trial_index":25,"time_elapsed":3022281,"internal_node_id":"0.0-5.0-20.0"},{"rt":2443.0699999793433,"response":{"pregunta17 likert":1},"question_order":[0],"trial_type":"survey-likert","trial_index":26,"time_elapsed":3024727,"internal_node_id":"0.0-5.0-21.0"},{"rt":82705.30000003055,"responses":"{\"pregunta6\":\"d) preparar los recuerdos del mañana.\"}","question_order":"[0]","trial_type":"survey-multi-choice","trial_index":27,"time_elapsed":3107434,"internal_node_id":"0.0-5.0-22.0"},{"rt":2558.789999980945,"response":{"pregunta6 likert":1},"question_order":[0],"trial_type":"survey-likert","trial_index":28,"time_elapsed":3109995,"internal_node_id":"0.0-5.0-23.0"},{"rt":69322.59499997599,"responses":"{\"pregunta8\":\"e) Provocar el deseo de la adquisición vertiginosa.\"}","question_order":"[0]","trial_type":"survey-multi-choice","trial_index":29,"time_elapsed":3179314,"internal_node_id":"0.0-5.0-24.0"},{"rt":2074.8350000358187,"response":{"pregunta8 likert":1},"question_order":[0],"trial_type":"survey-likert","trial_index":30,"time_elapsed":3181391,"internal_node_id":"0.0-5.0-25.0"},{"rt":64215.930000005756,"responses":"{\"pregunta10\":\"e) Al premio merecido después de tantos esfuerzos.\"}","question_order":"[0]","trial_type":"survey-multi-choice","trial_index":31,"time_elapsed":3245608,"internal_node_id":"0.0-5.0-26.0"},{"rt":2790.689999994356,"response":{"pregunta10 likert":1},"question_order":[0],"trial_type":"survey-likert","trial_index":32,"time_elapsed":3248402,"internal_node_id":"0.0-5.0-27.0"},{"rt":142429.95999997947,"responses":"{\"pregunta16\":\"b) sufren dolores de espalda.\"}","question_order":"[0]","trial_type":"survey-multi-choice","trial_index":33,"time_elapsed":3390841,"internal_node_id":"0.0-5.0-28.0"},{"rt":2447.504999989178,"response":{"pregunta16 likert":1},"question_order":[0],"trial_type":"survey-likert","trial_index":34,"time_elapsed":3393291,"internal_node_id":"0.0-5.0-29.0"},{"rt":73947.17500003753,"responses":"{\"pregunta11\":\"a) el mejor emperador es el que está muerto.\"}","question_order":"[0]","trial_type":"survey-multi-choice","trial_index":35,"time_elapsed":3467234,"internal_node_id":"0.0-5.0-30.0"},{"rt":2928.5450000315905,"response":{"pregunta11 likert":1},"question_order":[0],"trial_type":"survey-likert","trial_index":36,"time_elapsed":3470165,"internal_node_id":"0.0-5.0-31.0"},{"rt":103468.09999999823,"responses":"{\"pregunta5\":\"d) El ser humano se comporta de acuerdo con las circunstancias.\"}","question_order":"[0]","trial_type":"survey-multi-choice","trial_index":37,"time_elapsed":3573636,"internal_node_id":"0.0-5.0-32.0"},{"rt":3547.915000002831,"response":{"pregunta5 likert":2},"question_order":[0],"trial_type":"survey-likert","trial_index":38,"time_elapsed":3577186,"internal_node_id":"0.0-5.0-33.0"},{"rt":85719.43500003545,"responses":"{\"pregunta2\":\"b) A la relación entre civilización y sociedad.\"}","question_order":"[0]","trial_type":"survey-multi-choice","trial_index":39,"time_elapsed":3662913,"internal_node_id":"0.0-5.0-34.0"},{"rt":2517.809999990277,"response":{"pregunta2 likert":1},"question_order":[0],"trial_type":"survey-likert","trial_index":40,"time_elapsed":3665433,"internal_node_id":"0.0-5.0-35.0"},{"rt":89259.40999999875,"responses":"{\"pregunta19\":\"c) el jardinero estará muerto al día siguiente.\"}","question_order":"[0]","trial_type":"survey-multi-choice","trial_index":41,"time_elapsed":3754692,"internal_node_id":"0.0-5.0-36.0"},{"rt":1728.4550000331365,"response":{"pregunta19 likert":1},"question_order":[0],"trial_type":"survey-likert","trial_index":42,"time_elapsed":3756422,"internal_node_id":"0.0-5.0-37.0"},{"rt":141529.22500000568,"responses":"{\"pregunta15\":\"c) El receptor es el que posee la decisión sobre la publicidad.\"}","question_order":"[0]","trial_type":"survey-multi-choice","trial_index":43,"time_elapsed":3897954,"internal_node_id":"0.0-5.0-38.0"},{"rt":2856.4400000032037,"response":{"pregunta15 likert":1},"question_order":[0],"trial_type":"survey-likert","trial_index":44,"time_elapsed":3900812,"internal_node_id":"0.0-5.0-39.0"}]