[{"rt":8109.20000000298,"stimulus":"<h1 style=\"color:red; margin-top: 3%;\">¡Bienvenido(a)!</h1><p style=\"text-align:left; justify-content:space-between; margin-right: 5%; margin-left: 5%; margin-top: 5%\"> Antes de empezar el estudio, necesitamos que nos confirmes que estás de acuerdo con participar. Recuerda que tu participación es 100% voluntaria y que lo único que te pedimos es responder lo mejor que puedas. Recuerda también que el estudio incluye:</p><ol style=\"text-align:left; justify-content:space-between; margin-right: 5%; margin-left: 5%;\"><li> un ejercicio de resolución de preguntas de selección múltiple (30’),</li><li>un cuestionario breve (5’),</li><li>un juego muy breve (3’),</li></ol><p style=\"text-align:left; justify-content:space-between; margin-right: 5%; margin-left: 5%;\">Si quieres participar, haz clic en “Acepto” luego de leer lo siguiente:<br></p><p style=\"text-align:left; justify-content:space-between; margin-right: 5%; margin-left: 5%;\">Acepto participar en el estudio “Estrategias de lectura y resolución de preguntas de selección múltiple”, en los términos aquí señalados:<br></p><p style=\"text-align:left; justify-content:space-between; margin-right: 5%; margin-left: 5%;\"><a href=\"http://ciae.uchile.cl/download.php?file=noticias/Asentimiento.pdf\" target=\"_blank\">Link a la hoja de información del Consentimiento.</a></p><p style=\"text-align:left; justify-content:space-between; margin-right: 5%; margin-left: 5%;\">Declaro que he leído (o se me ha leído) y (he) comprendido, las condiciones de mi participación en este estudio. He tenido la oportunidad de hacer preguntas y éstas han sido respondidas. No tengo dudas al respecto.</p>","response":0,"condicion_MCQ":18,"condicion_JUEGO":38,"condicion_INTER":14,"numero_participante":38,"numero_version":1,"dimx":1366,"dimy":768,"color_profundidad":24,"pixel_profundidad":24,"Browser":"Google Chrome","dia":18,"mes":5,"hora":20,"minuto":52,"segundo":13,"trial_type":"html-button-response","trial_index":0,"time_elapsed":8113,"internal_node_id":"0.0-0.0"},{"success":true,"trial_type":"fullscreen","trial_index":1,"time_elapsed":18196,"internal_node_id":"0.0-1.0"},{"rt":61816.39999999106,"responses":"{\"Nombres\":\"florencia\",\"Apellidos\":\"fuentes roque\",\"Edad\":\"19\",\"Sexo\":\"mujer\",\"Curso\":\"seccion 1236\",\"Colegio\":\"universidad andres bello\",\"Contacto\":\"f.fuentesroque@uandresbello.edu\"}","trial_type":"survey-text","trial_index":2,"time_elapsed":80019,"internal_node_id":"0.0-2.0"},{"success":true,"timeout":false,"failed_images":[],"failed_audio":[],"failed_video":[],"trial_type":"preload","trial_index":3,"time_elapsed":80976,"internal_node_id":"0.0-3.0"},{"rt":7964.20000000298,"stimulus":"<h1 style:\"margin-top: 5%;\">Ejercicios de Comprensión de Lectura de la Universidad de Chile</h1><p style=\"font-size: 120%;\">En esta actividad, debes responder 20 preguntas de selección múltiple. Cada pregunta presenta 5 respuestas alternativas, pero sólo una de ellas es correcta. Por lo tanto, debes escoger una sola alternativa para cada pregunta. Además, debes reportar qué tan seguro(a) estás de la respuesta que das, con un:</p><ol style=\"font-size: 120%;text-align:left;margin-left: 40%;\"><li>No estoy seguro(a) para nada</li><li>No estoy muy seguro(a)</li><li>Estoy bastante seguro(a)</li><li>Estoy totalmente seguro(a)</li></ol><p style=\"font-size: 120%;\">Por favor lee bien los enunciados antes de responder. ¡Éxito!</p>","response":0,"trial_type":"html-button-response","trial_index":4,"time_elapsed":88941,"internal_node_id":"0.0-4.0"},{"rt":67046.40000000596,"responses":"{\"pregunta19\":\"d) el jardinero estará muerto al día siguiente.\"}","question_order":"[0]","trial_type":"survey-multi-choice","trial_index":5,"time_elapsed":155989,"internal_node_id":"0.0-5.0-0.0"},{"rt":3403.1000000089407,"response":{"pregunta19 likert":1},"question_order":[0],"trial_type":"survey-likert","trial_index":6,"time_elapsed":159394,"internal_node_id":"0.0-5.0-1.0"},{"rt":79794.09999999404,"responses":"{\"pregunta7\":\"e) religiosos y precavidos.\"}","question_order":"[0]","trial_type":"survey-multi-choice","trial_index":7,"time_elapsed":239190,"internal_node_id":"0.0-5.0-2.0"},{"rt":3357.5,"response":{"pregunta7 likert":2},"question_order":[0],"trial_type":"survey-likert","trial_index":8,"time_elapsed":242549,"internal_node_id":"0.0-5.0-3.0"},{"rt":95848.19999998808,"responses":"{\"pregunta11\":\"b) el mejor emperador es el que está muerto.\"}","question_order":"[0]","trial_type":"survey-multi-choice","trial_index":9,"time_elapsed":338399,"internal_node_id":"0.0-5.0-4.0"},{"rt":3048.2999999970198,"response":{"pregunta11 likert":1},"question_order":[0],"trial_type":"survey-likert","trial_index":10,"time_elapsed":341449,"internal_node_id":"0.0-5.0-5.0"},{"rt":57779.09999999404,"responses":"{\"pregunta8\":\"a) Deleitar a sus receptores por medio de la belleza y el confort.\"}","question_order":"[0]","trial_type":"survey-multi-choice","trial_index":11,"time_elapsed":399229,"internal_node_id":"0.0-5.0-6.0"},{"rt":1692.5999999940395,"response":{"pregunta8 likert":2},"question_order":[0],"trial_type":"survey-likert","trial_index":12,"time_elapsed":400923,"internal_node_id":"0.0-5.0-7.0"},{"rt":38568.80000001192,"responses":"{\"pregunta10\":\"d) A la inutilidad de tanto esfuerzo si el objetivo es el reposo.\"}","question_order":"[0]","trial_type":"survey-multi-choice","trial_index":13,"time_elapsed":439493,"internal_node_id":"0.0-5.0-8.0"},{"rt":1976.7000000029802,"response":{"pregunta10 likert":2},"question_order":[0],"trial_type":"survey-likert","trial_index":14,"time_elapsed":441471,"internal_node_id":"0.0-5.0-9.0"},{"rt":42315.90000000596,"responses":"{\"pregunta12\":\"c) el uranio es el elemento natural con el mayor número de protones en el núcleo.\"}","question_order":"[0]","trial_type":"survey-multi-choice","trial_index":15,"time_elapsed":483788,"internal_node_id":"0.0-5.0-10.0"},{"rt":3240.5,"response":{"pregunta12 likert":1},"question_order":[0],"trial_type":"survey-likert","trial_index":16,"time_elapsed":487030,"internal_node_id":"0.0-5.0-11.0"},{"rt":37237.70000000298,"responses":"{\"pregunta1\":\"c) Entregan una característica detallada del personaje, a través de la voz narrativa.\"}","question_order":"[0]","trial_type":"survey-multi-choice","trial_index":17,"time_elapsed":524269,"internal_node_id":"0.0-5.0-12.0"},{"rt":2341.0999999940395,"response":{"pregunta1 likert":2},"question_order":[0],"trial_type":"survey-likert","trial_index":18,"time_elapsed":526611,"internal_node_id":"0.0-5.0-13.0"},{"rt":29237.59999999404,"responses":"{\"pregunta13\":\"b) Por el riesgo que corren diariamente, los bomberos deberían tener mejores condiciones de seguridad.\"}","question_order":"[0]","trial_type":"survey-multi-choice","trial_index":19,"time_elapsed":555850,"internal_node_id":"0.0-5.0-14.0"},{"rt":2036.6000000089407,"response":{"pregunta13 likert":2},"question_order":[0],"trial_type":"survey-likert","trial_index":20,"time_elapsed":557888,"internal_node_id":"0.0-5.0-15.0"},{"rt":41674.29999999702,"responses":"{\"pregunta14\":\"c) A la influencia de grupos que rechazaban su música.\"}","question_order":"[0]","trial_type":"survey-multi-choice","trial_index":21,"time_elapsed":599564,"internal_node_id":"0.0-5.0-16.0"},{"rt":2373.7999999970198,"response":{"pregunta14 likert":2},"question_order":[0],"trial_type":"survey-likert","trial_index":22,"time_elapsed":601939,"internal_node_id":"0.0-5.0-17.0"},{"rt":88578.59999999404,"responses":"{\"pregunta16\":\"a) llevan un control grupal de su embarazo.\"}","question_order":"[0]","trial_type":"survey-multi-choice","trial_index":23,"time_elapsed":690520,"internal_node_id":"0.0-5.0-18.0"},{"rt":2462.9000000059605,"response":{"pregunta16 likert":0},"question_order":[0],"trial_type":"survey-likert","trial_index":24,"time_elapsed":692985,"internal_node_id":"0.0-5.0-19.0"},{"rt":39512,"responses":"{\"pregunta18\":\"c) El derecho a informar y el derecho a la privacidad son inconciliables.\"}","question_order":"[0]","trial_type":"survey-multi-choice","trial_index":25,"time_elapsed":732498,"internal_node_id":"0.0-5.0-20.0"},{"rt":1977.7999999970198,"response":{"pregunta18 likert":1},"question_order":[0],"trial_type":"survey-likert","trial_index":26,"time_elapsed":734477,"internal_node_id":"0.0-5.0-21.0"},{"rt":49691.70000000298,"responses":"{\"pregunta2\":\"c) A la relación entre sociedad y constitución social.\"}","question_order":"[0]","trial_type":"survey-multi-choice","trial_index":27,"time_elapsed":784170,"internal_node_id":"0.0-5.0-22.0"},{"rt":1959.5,"response":{"pregunta2 likert":2},"question_order":[0],"trial_type":"survey-likert","trial_index":28,"time_elapsed":786131,"internal_node_id":"0.0-5.0-23.0"},{"rt":9978.89999999106,"responses":"{\"pregunta9\":\"b) Homenajear a quienes murieron.\"}","question_order":"[0]","trial_type":"survey-multi-choice","trial_index":29,"time_elapsed":796111,"internal_node_id":"0.0-5.0-24.0"},{"rt":2551.5,"response":{"pregunta9 likert":2},"question_order":[0],"trial_type":"survey-likert","trial_index":30,"time_elapsed":798664,"internal_node_id":"0.0-5.0-25.0"},{"rt":62938.40000000596,"responses":"{\"pregunta17\":\"c) El TLC puede traer más dificultades que progresos.\"}","question_order":"[0]","trial_type":"survey-multi-choice","trial_index":31,"time_elapsed":861603,"internal_node_id":"0.0-5.0-26.0"},{"rt":3248.1000000089407,"response":{"pregunta17 likert":1},"question_order":[0],"trial_type":"survey-likert","trial_index":32,"time_elapsed":864853,"internal_node_id":"0.0-5.0-27.0"},{"rt":118504.19999998808,"responses":"{\"pregunta3\":\"e) Los momentos triviales de los viajes, en la escritura se vuelven significativos.\"}","question_order":"[0]","trial_type":"survey-multi-choice","trial_index":33,"time_elapsed":983359,"internal_node_id":"0.0-5.0-28.0"},{"rt":3081.7999999970198,"response":{"pregunta3 likert":2},"question_order":[0],"trial_type":"survey-likert","trial_index":34,"time_elapsed":986442,"internal_node_id":"0.0-5.0-29.0"},{"rt":21943.5,"responses":"{\"pregunta20\":\"a) la muerte es distinta en las grandes ciudades.\"}","question_order":"[0]","trial_type":"survey-multi-choice","trial_index":35,"time_elapsed":1008386,"internal_node_id":"0.0-5.0-30.0"},{"rt":3081.7000000029802,"response":{"pregunta20 likert":2},"question_order":[0],"trial_type":"survey-likert","trial_index":36,"time_elapsed":1011469,"internal_node_id":"0.0-5.0-31.0"},{"rt":46953.90000000596,"responses":"{\"pregunta6\":\"d) un recuerdo nostálgico.\"}","question_order":"[0]","trial_type":"survey-multi-choice","trial_index":37,"time_elapsed":1058425,"internal_node_id":"0.0-5.0-32.0"},{"rt":3397.5999999940395,"response":{"pregunta6 likert":2},"question_order":[0],"trial_type":"survey-likert","trial_index":38,"time_elapsed":1061824,"internal_node_id":"0.0-5.0-33.0"},{"rt":56834.90000000596,"responses":"{\"pregunta4\":\"a) Promover la asistencia a un evento específico de decoración a través de una atractiva descripción.\"}","question_order":"[0]","trial_type":"survey-multi-choice","trial_index":39,"time_elapsed":1118660,"internal_node_id":"0.0-5.0-34.0"},{"rt":5329.899999991059,"response":{"pregunta4 likert":0},"question_order":[0],"trial_type":"survey-likert","trial_index":40,"time_elapsed":1123992,"internal_node_id":"0.0-5.0-35.0"},{"rt":16695.70000000298,"responses":"{\"pregunta15\":\"d) La publicidad se encuentra principalmente en la televisión.\"}","question_order":"[0]","trial_type":"survey-multi-choice","trial_index":41,"time_elapsed":1140689,"internal_node_id":"0.0-5.0-36.0"},{"rt":2381.1000000089407,"response":{"pregunta15 likert":1},"question_order":[0],"trial_type":"survey-likert","trial_index":42,"time_elapsed":1143071,"internal_node_id":"0.0-5.0-37.0"},{"rt":60867.59999999404,"responses":"{\"pregunta5\":\"c) El concepto de normalidad es diferente para un psiquiatra que para nosotros.\"}","question_order":"[0]","trial_type":"survey-multi-choice","trial_index":43,"time_elapsed":1203940,"internal_node_id":"0.0-5.0-38.0"},{"rt":2396.9000000059605,"response":{"pregunta5 likert":1},"question_order":[0],"trial_type":"survey-likert","trial_index":44,"time_elapsed":1206339,"internal_node_id":"0.0-5.0-39.0"},{"rt":4047.7000000029802,"stimulus":"<p style=\"font-size: 120%\">Gracias por completar esta etapa del estudio. Ahora te invitamos a responder el cuestionario.<br><br></p>","response":0,"trial_type":"html-button-response","trial_index":45,"time_elapsed":1210389,"internal_node_id":"0.0-6.0"},{"rt":4031.1000000089407,"stimulus":"<h1 style=\"margin-top: 5%\">Cuestionario para la Evaluación de Metas Académicas</h1><p style=\"font-size: 120%; margin-left: 3%; margin-top: 5%\">Este es un cuestionario que permite conocer cuáles son los principales motivos por los que los estudiantes se esfuerzan en su trabajo académico. A continuación, se te presentarán una serie de afirmaciones acerca de los motivos que puedes tener para estudiar.<br>Te pedimos que contestes a dichas afirmaciones reflexionando sobre el contenido de cada una de ellas, que, aunque te parezcan semejantes, en realidad, no lo son.<br>NO HAY RESPUESTAS CORRECTAS o INCORRECTAS, sólo queremos que respondas con la mayor precisión y sinceridad posible a las preguntas que se plantean.","response":0,"trial_type":"html-button-response","trial_index":46,"time_elapsed":1214421,"internal_node_id":"0.0-7.0"},{"rt":128186.20000000298,"response":{"Metas cuestionario pregunta1":4,"Metas cuestionario pregunta2":3,"Metas cuestionario pregunta3":3,"Metas cuestionario pregunta4":3,"Metas cuestionario pregunta5":4,"Metas cuestionario pregunta6":2,"Metas cuestionario pregunta7":3,"Metas cuestionario pregunta8":4,"Metas cuestionario pregunta9":1,"Metas cuestionario pregunta10":0,"Metas cuestionario pregunta11":0,"Metas cuestionario pregunta12":0,"Metas cuestionario pregunta13":3,"Metas cuestionario pregunta14":2,"Metas cuestionario pregunta15":3,"Metas cuestionario pregunta16":3,"Metas cuestionario pregunta17":3,"Metas cuestionario pregunta18":3,"Metas cuestionario pregunta19":4,"Metas cuestionario pregunta20":3},"question_order":[0,1,2,3,4,5,6,7,8,9,10,11,12,13,14,15,16,17,18,19],"trial_type":"survey-likert","trial_index":47,"time_elapsed":1342611,"internal_node_id":"0.0-8.0"}]