[{"rt":19210.599999904633,"stimulus":"<h1 style=\"color:red; margin-top: 3%;\">¡Bienvenido(a)!</h1><p style=\"text-align:left; justify-content:space-between; margin-right: 5%; margin-left: 5%; margin-top: 5%\"> Antes de empezar el estudio, necesitamos que nos confirmes que estás de acuerdo con participar. Recuerda que tu participación es 100% voluntaria y que lo único que te pedimos es responder lo mejor que puedas. Recuerda también que el estudio incluye:</p><ol style=\"text-align:left; justify-content:space-between; margin-right: 5%; margin-left: 5%;\"><li> un ejercicio de resolución de preguntas de selección múltiple (30’),</li><li>un cuestionario breve (5’),</li><li>un juego muy breve (3’),</li></ol><p style=\"text-align:left; justify-content:space-between; margin-right: 5%; margin-left: 5%;\">Si quieres participar, haz clic en “Acepto” luego de leer lo siguiente:<br></p><p style=\"text-align:left; justify-content:space-between; margin-right: 5%; margin-left: 5%;\">Acepto participar en el estudio “Estrategias de lectura y resolución de preguntas de selección múltiple”, en los términos aquí señalados:<br></p><p style=\"text-align:left; justify-content:space-between; margin-right: 5%; margin-left: 5%;\"><a href=\"http://ciae.uchile.cl/download.php?file=noticias/Asentimiento.pdf\" target=\"_blank\">Link a la hoja de información del Consentimiento.</a></p><p style=\"text-align:left; justify-content:space-between; margin-right: 5%; margin-left: 5%;\">Declaro que he leído (o se me ha leído) y (he) comprendido, las condiciones de mi participación en este estudio. He tenido la oportunidad de hacer preguntas y éstas han sido respondidas. No tengo dudas al respecto.</p>","response":0,"condicion_MCQ":2,"condicion_JUEGO":102,"condicion_INTER":6,"numero_participante":102,"numero_version":1,"dimx":1366,"dimy":768,"color_profundidad":24,"pixel_profundidad":24,"Browser":"Google Chrome","dia":26,"mes":5,"hora":13,"minuto":44,"segundo":39,"trial_type":"html-button-response","trial_index":0,"time_elapsed":19576,"internal_node_id":"0.0-0.0"},{"success":true,"trial_type":"fullscreen","trial_index":1,"time_elapsed":30334,"internal_node_id":"0.0-1.0"},{"rt":91031.70000004768,"responses":"{\"Nombres\":\"Rayén Andrea\",\"Apellidos\":\"Madrid Lazo\",\"Edad\":\"18\",\"Sexo\":\"Mujer\",\"Curso\":\"201\",\"Colegio\":\"universidad\",\"Contacto\":\"r.madridlazo@uandresbello.edu\"}","trial_type":"survey-text","trial_index":2,"time_elapsed":121390,"internal_node_id":"0.0-2.0"},{"success":true,"timeout":false,"failed_images":[],"failed_audio":[],"failed_video":[],"trial_type":"preload","trial_index":3,"time_elapsed":123063,"internal_node_id":"0.0-3.0"},{"rt":22178.10000014305,"stimulus":"<h1 style:\"margin-top: 5%;\">Ejercicios de Comprensión de Lectura de la Universidad de Chile</h1><p style=\"font-size: 120%;\">En esta actividad, debes responder 20 preguntas de selección múltiple. Cada pregunta presenta 5 respuestas alternativas, pero sólo una de ellas es correcta. Por lo tanto, debes escoger una sola alternativa para cada pregunta. Además, debes reportar qué tan seguro(a) estás de la respuesta que das, con un:</p><ol style=\"font-size: 120%;text-align:left;margin-left: 40%;\"><li>No estoy seguro(a) para nada</li><li>No estoy muy seguro(a)</li><li>Estoy bastante seguro(a)</li><li>Estoy totalmente seguro(a)</li></ol><p style=\"font-size: 120%;\">Por favor lee bien los enunciados antes de responder. ¡Éxito!</p>","response":0,"trial_type":"html-button-response","trial_index":4,"time_elapsed":145243,"internal_node_id":"0.0-4.0"},{"rt":57305.40000009537,"responses":"{\"pregunta14\":\"d) A la influencia de grupos que rechazaban su música.\"}","question_order":"[0]","trial_type":"survey-multi-choice","trial_index":5,"time_elapsed":202552,"internal_node_id":"0.0-5.0-0.0"},{"rt":3771.2999999523163,"response":{"pregunta14 likert":2},"question_order":[0],"trial_type":"survey-likert","trial_index":6,"time_elapsed":206330,"internal_node_id":"0.0-5.0-1.0"},{"rt":37996.59999990463,"responses":"{\"pregunta13\":\"b) Por el riesgo que corren diariamente, los bomberos deberían tener mejores condiciones de seguridad.\"}","question_order":"[0]","trial_type":"survey-multi-choice","trial_index":7,"time_elapsed":244331,"internal_node_id":"0.0-5.0-2.0"},{"rt":2552.699999809265,"response":{"pregunta13 likert":2},"question_order":[0],"trial_type":"survey-likert","trial_index":8,"time_elapsed":246889,"internal_node_id":"0.0-5.0-3.0"},{"rt":57932.299999952316,"responses":"{\"pregunta8\":\"c) Provocar el deseo de la adquisición vertiginosa.\"}","question_order":"[0]","trial_type":"survey-multi-choice","trial_index":9,"time_elapsed":304827,"internal_node_id":"0.0-5.0-4.0"},{"rt":3962.0999999046326,"response":{"pregunta8 likert":1},"question_order":[0],"trial_type":"survey-likert","trial_index":10,"time_elapsed":308793,"internal_node_id":"0.0-5.0-5.0"},{"rt":81966.79999995232,"responses":"{\"pregunta11\":\"e) la muerte de Wu Ti fue una bendición.\"}","question_order":"[0]","trial_type":"survey-multi-choice","trial_index":11,"time_elapsed":390766,"internal_node_id":"0.0-5.0-6.0"},{"rt":3359.2000000476837,"response":{"pregunta11 likert":1},"question_order":[0],"trial_type":"survey-likert","trial_index":12,"time_elapsed":394129,"internal_node_id":"0.0-5.0-7.0"},{"rt":50780.90000009537,"responses":"{\"pregunta17\":\"e) Nuestra economía vivirá un proceso de ajuste a la nueva realidad.\"}","question_order":"[0]","trial_type":"survey-multi-choice","trial_index":13,"time_elapsed":444916,"internal_node_id":"0.0-5.0-8.0"},{"rt":2898.9000000953674,"response":{"pregunta17 likert":2},"question_order":[0],"trial_type":"survey-likert","trial_index":14,"time_elapsed":447821,"internal_node_id":"0.0-5.0-9.0"},{"rt":74232.29999995232,"responses":"{\"pregunta6\":\"e) la persistencia de la melancolía y la desesperanza.\"}","question_order":"[0]","trial_type":"survey-multi-choice","trial_index":15,"time_elapsed":522060,"internal_node_id":"0.0-5.0-10.0"},{"rt":2904.0999999046326,"response":{"pregunta6 likert":2},"question_order":[0],"trial_type":"survey-likert","trial_index":16,"time_elapsed":524971,"internal_node_id":"0.0-5.0-11.0"},{"rt":42036.200000047684,"responses":"{\"pregunta10\":\"c) Al premio merecido después de tantos esfuerzos.\"}","question_order":"[0]","trial_type":"survey-multi-choice","trial_index":17,"time_elapsed":567015,"internal_node_id":"0.0-5.0-12.0"},{"rt":3796.5,"response":{"pregunta10 likert":1},"question_order":[0],"trial_type":"survey-likert","trial_index":18,"time_elapsed":570819,"internal_node_id":"0.0-5.0-13.0"},{"rt":58642,"responses":"{\"pregunta7\":\"b) ritualistas y obsesivos.\"}","question_order":"[0]","trial_type":"survey-multi-choice","trial_index":19,"time_elapsed":629467,"internal_node_id":"0.0-5.0-14.0"},{"rt":1927,"response":{"pregunta7 likert":1},"question_order":[0],"trial_type":"survey-likert","trial_index":20,"time_elapsed":631399,"internal_node_id":"0.0-5.0-15.0"},{"rt":76496.5,"responses":"{\"pregunta12\":\"b) todos los elementos químicos tienen más de noventa y dos protones en su núcleo.\"}","question_order":"[0]","trial_type":"survey-multi-choice","trial_index":21,"time_elapsed":707899,"internal_node_id":"0.0-5.0-16.0"},{"rt":2387.7999999523163,"response":{"pregunta12 likert":0},"question_order":[0],"trial_type":"survey-likert","trial_index":22,"time_elapsed":710293,"internal_node_id":"0.0-5.0-17.0"},{"rt":33341.800000190735,"responses":"{\"pregunta20\":\"a) para el mexicano, la muerte es cotidiana.\"}","question_order":"[0]","trial_type":"survey-multi-choice","trial_index":23,"time_elapsed":743642,"internal_node_id":"0.0-5.0-18.0"},{"rt":2159.2000000476837,"response":{"pregunta20 likert":2},"question_order":[0],"trial_type":"survey-likert","trial_index":24,"time_elapsed":745806,"internal_node_id":"0.0-5.0-19.0"},{"rt":36538.700000047684,"responses":"{\"pregunta4\":\"c) Exponer sobre los conceptos de decoración dominantes en nuestro país.\"}","question_order":"[0]","trial_type":"survey-multi-choice","trial_index":25,"time_elapsed":782351,"internal_node_id":"0.0-5.0-20.0"},{"rt":2797.5,"response":{"pregunta4 likert":2},"question_order":[0],"trial_type":"survey-likert","trial_index":26,"time_elapsed":785154,"internal_node_id":"0.0-5.0-21.0"},{"rt":59078.5,"responses":"{\"pregunta3\":\"e) La escritura plasma los mejores momentos de los viajes.\"}","question_order":"[0]","trial_type":"survey-multi-choice","trial_index":27,"time_elapsed":844240,"internal_node_id":"0.0-5.0-22.0"},{"rt":2617.5,"response":{"pregunta3 likert":2},"question_order":[0],"trial_type":"survey-likert","trial_index":28,"time_elapsed":846863,"internal_node_id":"0.0-5.0-23.0"},{"rt":53018.299999952316,"responses":"{\"pregunta1\":\"d) Entregan una característica detallada del personaje, a través de la voz narrativa.\"}","question_order":"[0]","trial_type":"survey-multi-choice","trial_index":29,"time_elapsed":899889,"internal_node_id":"0.0-5.0-24.0"},{"rt":1929.8999998569489,"response":{"pregunta1 likert":2},"question_order":[0],"trial_type":"survey-likert","trial_index":30,"time_elapsed":901825,"internal_node_id":"0.0-5.0-25.0"},{"rt":61204.699999809265,"responses":"{\"pregunta16\":\"e) sufren dolores de espalda.\"}","question_order":"[0]","trial_type":"survey-multi-choice","trial_index":31,"time_elapsed":963037,"internal_node_id":"0.0-5.0-26.0"},{"rt":1935.2000000476837,"response":{"pregunta16 likert":2},"question_order":[0],"trial_type":"survey-likert","trial_index":32,"time_elapsed":964978,"internal_node_id":"0.0-5.0-27.0"},{"rt":89632,"responses":"{\"pregunta9\":\"c) Homenajear a quienes murieron.\"}","question_order":"[0]","trial_type":"survey-multi-choice","trial_index":33,"time_elapsed":1054616,"internal_node_id":"0.0-5.0-28.0"},{"rt":2497.7999999523163,"response":{"pregunta9 likert":2},"question_order":[0],"trial_type":"survey-likert","trial_index":34,"time_elapsed":1057119,"internal_node_id":"0.0-5.0-29.0"},{"rt":45180.59999990463,"responses":"{\"pregunta19\":\"d) la Muerte vaticina el futuro mediante gestos.\"}","question_order":"[0]","trial_type":"survey-multi-choice","trial_index":35,"time_elapsed":1102306,"internal_node_id":"0.0-5.0-30.0"},{"rt":2808.2000000476837,"response":{"pregunta19 likert":1},"question_order":[0],"trial_type":"survey-likert","trial_index":36,"time_elapsed":1105120,"internal_node_id":"0.0-5.0-31.0"},{"rt":23555.5,"responses":"{\"pregunta2\":\"a) A la relación entre pensamiento y estructura social.\"}","question_order":"[0]","trial_type":"survey-multi-choice","trial_index":37,"time_elapsed":1128683,"internal_node_id":"0.0-5.0-32.0"},{"rt":4210.799999952316,"response":{"pregunta2 likert":1},"question_order":[0],"trial_type":"survey-likert","trial_index":38,"time_elapsed":1132899,"internal_node_id":"0.0-5.0-33.0"},{"rt":44548.299999952316,"responses":"{\"pregunta18\":\"e) Se necesita un marco legal para delimitar lo público y lo privado en materia informativa.\"}","question_order":"[0]","trial_type":"survey-multi-choice","trial_index":39,"time_elapsed":1177455,"internal_node_id":"0.0-5.0-34.0"},{"rt":4516.900000095367,"response":{"pregunta18 likert":1},"question_order":[0],"trial_type":"survey-likert","trial_index":40,"time_elapsed":1181979,"internal_node_id":"0.0-5.0-35.0"},{"rt":44125.700000047684,"responses":"{\"pregunta5\":\"d) Un asilo y un campo de concentración son instituciones similares.\"}","question_order":"[0]","trial_type":"survey-multi-choice","trial_index":41,"time_elapsed":1226111,"internal_node_id":"0.0-5.0-36.0"},{"rt":2536.800000190735,"response":{"pregunta5 likert":0},"question_order":[0],"trial_type":"survey-likert","trial_index":42,"time_elapsed":1228654,"internal_node_id":"0.0-5.0-37.0"},{"rt":61602.59999990463,"responses":"{\"pregunta15\":\"d) El receptor es habitualmente pasivo frente a la publicidad.\"}","question_order":"[0]","trial_type":"survey-multi-choice","trial_index":43,"time_elapsed":1290264,"internal_node_id":"0.0-5.0-38.0"},{"rt":2256.9000000953674,"response":{"pregunta15 likert":1},"question_order":[0],"trial_type":"survey-likert","trial_index":44,"time_elapsed":1292527,"internal_node_id":"0.0-5.0-39.0"}]