[{"rt":20045.400000095367,"stimulus":"<h1 style=\"color:red; margin-top: 3%;\">¡Bienvenido(a)!</h1><p style=\"text-align:left; justify-content:space-between; margin-right: 5%; margin-left: 5%; margin-top: 5%\"> Antes de empezar el estudio, necesitamos que nos confirmes que estás de acuerdo con participar. Recuerda que tu participación es 100% voluntaria y que lo único que te pedimos es responder lo mejor que puedas. Recuerda también que el estudio incluye:</p><ol style=\"text-align:left; justify-content:space-between; margin-right: 5%; margin-left: 5%;\"><li> un ejercicio de resolución de preguntas de selección múltiple (30’),</li><li>un cuestionario breve (5’),</li><li>un juego muy breve (3’),</li></ol><p style=\"text-align:left; justify-content:space-between; margin-right: 5%; margin-left: 5%;\">Si quieres participar, haz clic en “Acepto” luego de leer lo siguiente:<br></p><p style=\"text-align:left; justify-content:space-between; margin-right: 5%; margin-left: 5%;\">Acepto participar en el estudio “Estrategias de lectura y resolución de preguntas de selección múltiple”, en los términos aquí señalados:<br></p><p style=\"text-align:left; justify-content:space-between; margin-right: 5%; margin-left: 5%;\"><a href=\"http://ciae.uchile.cl/download.php?file=noticias/Asentimiento.pdf\" target=\"_blank\">Link a la hoja de información del Consentimiento.</a></p><p style=\"text-align:left; justify-content:space-between; margin-right: 5%; margin-left: 5%;\">Declaro que he leído (o se me ha leído) y (he) comprendido, las condiciones de mi participación en este estudio. He tenido la oportunidad de hacer preguntas y éstas han sido respondidas. No tengo dudas al respecto.</p>","response":0,"condicion_MCQ":1,"condicion_JUEGO":41,"condicion_INTER":17,"numero_participante":41,"numero_version":1,"dimx":360,"dimy":780,"color_profundidad":24,"pixel_profundidad":24,"Browser":"Google Chrome","dia":19,"mes":5,"hora":11,"minuto":17,"segundo":50,"trial_type":"html-button-response","trial_index":0,"time_elapsed":20060,"internal_node_id":"0.0-0.0"},{"success":true,"trial_type":"fullscreen","trial_index":1,"time_elapsed":22496,"internal_node_id":"0.0-1.0"},{"rt":225160.90000009537,"responses":"{\"Nombres\":\"Fiorella valentina \",\"Apellidos\":\"Romanini dallorso \",\"Edad\":\"20\",\"Sexo\":\"Mujer\",\"Curso\":\"1236 \",\"Colegio\":\"Universidad Andrés Bello \",\"Contacto\":\"Fiorella.roda@gmail.com \"}","trial_type":"survey-text","trial_index":2,"time_elapsed":247695,"internal_node_id":"0.0-2.0"},{"success":true,"timeout":false,"failed_images":[],"failed_audio":[],"failed_video":[],"trial_type":"preload","trial_index":3,"time_elapsed":249914,"internal_node_id":"0.0-3.0"},{"rt":11497.799999952316,"stimulus":"<h1 style:\"margin-top: 5%;\">Ejercicios de Comprensión de Lectura de la Universidad de Chile</h1><p style=\"font-size: 120%;\">En esta actividad, debes responder 20 preguntas de selección múltiple. Cada pregunta presenta 5 respuestas alternativas, pero sólo una de ellas es correcta. Por lo tanto, debes escoger una sola alternativa para cada pregunta. Además, debes reportar qué tan seguro(a) estás de la respuesta que das, con un:</p><ol style=\"font-size: 120%;text-align:left;margin-left: 40%;\"><li>No estoy seguro(a) para nada</li><li>No estoy muy seguro(a)</li><li>Estoy bastante seguro(a)</li><li>Estoy totalmente seguro(a)</li></ol><p style=\"font-size: 120%;\">Por favor lee bien los enunciados antes de responder. ¡Éxito!</p>","response":0,"trial_type":"html-button-response","trial_index":4,"time_elapsed":261418,"internal_node_id":"0.0-4.0"},{"rt":55257.40000009537,"responses":"{\"pregunta11\":\"d) la muerte de Wu Ti fue una bendición.\"}","question_order":"[0]","trial_type":"survey-multi-choice","trial_index":5,"time_elapsed":316687,"internal_node_id":"0.0-5.0-0.0"},{"rt":4094.699999809265,"response":{"pregunta11 likert":2},"question_order":[0],"trial_type":"survey-likert","trial_index":6,"time_elapsed":320791,"internal_node_id":"0.0-5.0-1.0"},{"rt":34790.5,"responses":"{\"pregunta18\":\"e) Se necesita un marco legal para delimitar lo público y lo privado en materia informativa.\"}","question_order":"[0]","trial_type":"survey-multi-choice","trial_index":7,"time_elapsed":355586,"internal_node_id":"0.0-5.0-2.0"},{"rt":2299.7999999523163,"response":{"pregunta18 likert":3},"question_order":[0],"trial_type":"survey-likert","trial_index":8,"time_elapsed":357890,"internal_node_id":"0.0-5.0-3.0"},{"rt":26676.5,"responses":"{\"pregunta20\":\"d) la muerte es distinta en las grandes ciudades.\"}","question_order":"[0]","trial_type":"survey-multi-choice","trial_index":9,"time_elapsed":384571,"internal_node_id":"0.0-5.0-4.0"},{"rt":2142,"response":{"pregunta20 likert":2},"question_order":[0],"trial_type":"survey-likert","trial_index":10,"time_elapsed":386718,"internal_node_id":"0.0-5.0-5.0"},{"rt":53368.90000009537,"responses":"{\"pregunta14\":\"d) A la influencia de grupos que rechazaban su música.\"}","question_order":"[0]","trial_type":"survey-multi-choice","trial_index":11,"time_elapsed":440092,"internal_node_id":"0.0-5.0-6.0"},{"rt":2318.7000000476837,"response":{"pregunta14 likert":3},"question_order":[0],"trial_type":"survey-likert","trial_index":12,"time_elapsed":442415,"internal_node_id":"0.0-5.0-7.0"},{"rt":37043.799999952316,"responses":"{\"pregunta15\":\"d) El receptor es habitualmente pasivo frente a la publicidad.\"}","question_order":"[0]","trial_type":"survey-multi-choice","trial_index":13,"time_elapsed":479465,"internal_node_id":"0.0-5.0-8.0"},{"rt":1854.2000000476837,"response":{"pregunta15 likert":2},"question_order":[0],"trial_type":"survey-likert","trial_index":14,"time_elapsed":481324,"internal_node_id":"0.0-5.0-9.0"},{"rt":21019.299999952316,"responses":"{\"pregunta13\":\"a) Por el riesgo que corren diariamente, los bomberos deberían tener mejores condiciones de seguridad.\"}","question_order":"[0]","trial_type":"survey-multi-choice","trial_index":15,"time_elapsed":502348,"internal_node_id":"0.0-5.0-10.0"},{"rt":1520.6999998092651,"response":{"pregunta13 likert":3},"question_order":[0],"trial_type":"survey-likert","trial_index":16,"time_elapsed":503874,"internal_node_id":"0.0-5.0-11.0"},{"rt":45512.200000047684,"responses":"{\"pregunta2\":\"e) A la relación entre hechos capitales y parámetros del pensamiento.\"}","question_order":"[0]","trial_type":"survey-multi-choice","trial_index":17,"time_elapsed":549392,"internal_node_id":"0.0-5.0-12.0"},{"rt":2545.5,"response":{"pregunta2 likert":2},"question_order":[0],"trial_type":"survey-likert","trial_index":18,"time_elapsed":551942,"internal_node_id":"0.0-5.0-13.0"},{"rt":43781.299999952316,"responses":"{\"pregunta3\":\"a) Los momentos triviales de los viajes, en la escritura se vuelven significativos.\"}","question_order":"[0]","trial_type":"survey-multi-choice","trial_index":19,"time_elapsed":595729,"internal_node_id":"0.0-5.0-14.0"},{"rt":3284.399999856949,"response":{"pregunta3 likert":2},"question_order":[0],"trial_type":"survey-likert","trial_index":20,"time_elapsed":599018,"internal_node_id":"0.0-5.0-15.0"},{"rt":22673.89999985695,"responses":"{\"pregunta16\":\"d) sufren dolores de espalda.\"}","question_order":"[0]","trial_type":"survey-multi-choice","trial_index":21,"time_elapsed":621696,"internal_node_id":"0.0-5.0-16.0"},{"rt":1535.9000000953674,"response":{"pregunta16 likert":3},"question_order":[0],"trial_type":"survey-likert","trial_index":22,"time_elapsed":623237,"internal_node_id":"0.0-5.0-17.0"},{"rt":142591.90000009537,"responses":"{\"pregunta6\":\"d) una constante espera.\"}","question_order":"[0]","trial_type":"survey-multi-choice","trial_index":23,"time_elapsed":820891,"internal_node_id":"0.0-5.0-18.0"},{"rt":2266.4000000953674,"response":{"pregunta6 likert":1},"question_order":[0],"trial_type":"survey-likert","trial_index":24,"time_elapsed":823165,"internal_node_id":"0.0-5.0-19.0"},{"rt":64233.89999985695,"responses":"{\"pregunta12\":\"e) la creación de elementos químicos artificiales ha resultado de la manipulación del uranio.\"}","question_order":"[0]","trial_type":"survey-multi-choice","trial_index":25,"time_elapsed":887403,"internal_node_id":"0.0-5.0-20.0"},{"rt":2486.4000000953674,"response":{"pregunta12 likert":1},"question_order":[0],"trial_type":"survey-likert","trial_index":26,"time_elapsed":889894,"internal_node_id":"0.0-5.0-21.0"},{"rt":79582.90000009537,"responses":"{\"pregunta8\":\"e) Deleitar a sus receptores por medio de la belleza y el confort.\"}","question_order":"[0]","trial_type":"survey-multi-choice","trial_index":27,"time_elapsed":969482,"internal_node_id":"0.0-5.0-22.0"},{"rt":1109.6000001430511,"response":{"pregunta8 likert":3},"question_order":[0],"trial_type":"survey-likert","trial_index":28,"time_elapsed":970596,"internal_node_id":"0.0-5.0-23.0"},{"rt":39609.799999952316,"responses":"{\"pregunta19\":\"c) la Muerte vaticina el futuro mediante gestos.\"}","question_order":"[0]","trial_type":"survey-multi-choice","trial_index":29,"time_elapsed":1010210,"internal_node_id":"0.0-5.0-24.0"},{"rt":1286.5,"response":{"pregunta19 likert":3},"question_order":[0],"trial_type":"survey-likert","trial_index":30,"time_elapsed":1011500,"internal_node_id":"0.0-5.0-25.0"},{"rt":7007.600000143051,"responses":"{\"pregunta4\":\"c) Criticar la mezcla de estilos que se puede observar en la muestra que exhibe Casa Mater.\"}","question_order":"[0]","trial_type":"survey-multi-choice","trial_index":31,"time_elapsed":1018513,"internal_node_id":"0.0-5.0-26.0"},{"rt":1568.5,"response":{"pregunta4 likert":1},"question_order":[0],"trial_type":"survey-likert","trial_index":32,"time_elapsed":1020086,"internal_node_id":"0.0-5.0-27.0"},{"rt":38237.799999952316,"responses":"{\"pregunta10\":\"b) A la inutilidad de tanto esfuerzo si el objetivo es el reposo.\"}","question_order":"[0]","trial_type":"survey-multi-choice","trial_index":33,"time_elapsed":1058328,"internal_node_id":"0.0-5.0-28.0"},{"rt":2231.7999999523163,"response":{"pregunta10 likert":2},"question_order":[0],"trial_type":"survey-likert","trial_index":34,"time_elapsed":1060588,"internal_node_id":"0.0-5.0-29.0"},{"rt":55122.299999952316,"responses":"{\"pregunta7\":\"b) ritualistas y obsesivos.\"}","question_order":"[0]","trial_type":"survey-multi-choice","trial_index":35,"time_elapsed":1115718,"internal_node_id":"0.0-5.0-30.0"},{"rt":1721,"response":{"pregunta7 likert":3},"question_order":[0],"trial_type":"survey-likert","trial_index":36,"time_elapsed":1117447,"internal_node_id":"0.0-5.0-31.0"},{"rt":3597,"responses":"{\"pregunta17\":\"c) El TLC puede traer más dificultades que progresos.\"}","question_order":"[0]","trial_type":"survey-multi-choice","trial_index":37,"time_elapsed":1121054,"internal_node_id":"0.0-5.0-32.0"},{"rt":2442.7000000476837,"response":{"pregunta17 likert":1},"question_order":[0],"trial_type":"survey-likert","trial_index":38,"time_elapsed":1123502,"internal_node_id":"0.0-5.0-33.0"},{"rt":14168.599999904633,"responses":"{\"pregunta9\":\"a) Atraer a los turistas.\"}","question_order":"[0]","trial_type":"survey-multi-choice","trial_index":39,"time_elapsed":1137681,"internal_node_id":"0.0-5.0-34.0"},{"rt":1367.7999999523163,"response":{"pregunta9 likert":3},"question_order":[0],"trial_type":"survey-likert","trial_index":40,"time_elapsed":1139055,"internal_node_id":"0.0-5.0-35.0"},{"rt":21007.700000047684,"responses":"{\"pregunta5\":\"b) El ser humano se comporta de acuerdo con las circunstancias.\"}","question_order":"[0]","trial_type":"survey-multi-choice","trial_index":41,"time_elapsed":1160067,"internal_node_id":"0.0-5.0-36.0"},{"rt":3662,"response":{"pregunta5 likert":3},"question_order":[0],"trial_type":"survey-likert","trial_index":42,"time_elapsed":1163734,"internal_node_id":"0.0-5.0-37.0"},{"rt":22968.400000095367,"responses":"{\"pregunta1\":\"a) Aportan informaciones con las que se reconstruye el personaje dentro de un relato.\"}","question_order":"[0]","trial_type":"survey-multi-choice","trial_index":43,"time_elapsed":1186706,"internal_node_id":"0.0-5.0-38.0"},{"rt":1307.4000000953674,"response":{"pregunta1 likert":3},"question_order":[0],"trial_type":"survey-likert","trial_index":44,"time_elapsed":1188020,"internal_node_id":"0.0-5.0-39.0"},{"rt":1570.4000000953674,"stimulus":"<p style=\"font-size: 120%\">Gracias por completar esta etapa del estudio. Ahora te invitamos a responder el cuestionario.<br><br></p>","response":0,"trial_type":"html-button-response","trial_index":45,"time_elapsed":1189619,"internal_node_id":"0.0-6.0"},{"rt":3082.4000000953674,"stimulus":"<h1 style=\"margin-top: 5%\">Cuestionario para la Evaluación de Metas Académicas</h1><p style=\"font-size: 120%; margin-left: 3%; margin-top: 5%\">Este es un cuestionario que permite conocer cuáles son los principales motivos por los que los estudiantes se esfuerzan en su trabajo académico. A continuación, se te presentarán una serie de afirmaciones acerca de los motivos que puedes tener para estudiar.<br>Te pedimos que contestes a dichas afirmaciones reflexionando sobre el contenido de cada una de ellas, que, aunque te parezcan semejantes, en realidad, no lo son.<br>NO HAY RESPUESTAS CORRECTAS o INCORRECTAS, sólo queremos que respondas con la mayor precisión y sinceridad posible a las preguntas que se plantean.","response":0,"trial_type":"html-button-response","trial_index":46,"time_elapsed":1192704,"internal_node_id":"0.0-7.0"},{"rt":52956.799999952316,"response":{"Metas cuestionario pregunta1":3,"Metas cuestionario pregunta2":4,"Metas cuestionario pregunta3":3,"Metas cuestionario pregunta4":2,"Metas cuestionario pregunta5":4,"Metas cuestionario pregunta6":3,"Metas cuestionario pregunta7":4,"Metas cuestionario pregunta8":3,"Metas cuestionario pregunta9":4,"Metas cuestionario pregunta10":4,"Metas cuestionario pregunta11":4,"Metas cuestionario pregunta12":4,"Metas cuestionario pregunta13":4,"Metas cuestionario pregunta14":3,"Metas cuestionario pregunta15":4,"Metas cuestionario pregunta16":4,"Metas cuestionario pregunta17":4,"Metas cuestionario pregunta18":4,"Metas cuestionario pregunta19":4,"Metas cuestionario pregunta20":4},"question_order":[0,1,2,3,4,5,6,7,8,9,10,11,12,13,14,15,16,17,18,19],"trial_type":"survey-likert","trial_index":47,"time_elapsed":1245677,"internal_node_id":"0.0-8.0"}]