[{"rt":18335.5,"stimulus":"<h1 style=\"color:red; margin-top: 3%;\">¡Bienvenido(a)!</h1><p style=\"text-align:left; justify-content:space-between; margin-right: 5%; margin-left: 5%; margin-top: 5%\"> Antes de empezar el estudio, necesitamos que nos confirmes que estás de acuerdo con participar. Recuerda que tu participación es 100% voluntaria y que lo único que te pedimos es responder lo mejor que puedas. Recuerda también que el estudio incluye:</p><ol style=\"text-align:left; justify-content:space-between; margin-right: 5%; margin-left: 5%;\"><li> un ejercicio de resolución de preguntas de selección múltiple (30’),</li><li>un cuestionario breve (5’),</li><li>un juego muy breve (3’),</li></ol><p style=\"text-align:left; justify-content:space-between; margin-right: 5%; margin-left: 5%;\">Si quieres participar, haz clic en “Acepto” luego de leer lo siguiente:<br></p><p style=\"text-align:left; justify-content:space-between; margin-right: 5%; margin-left: 5%;\">Acepto participar en el estudio “Estrategias de lectura y resolución de preguntas de selección múltiple”, en los términos aquí señalados:<br></p><p style=\"text-align:left; justify-content:space-between; margin-right: 5%; margin-left: 5%;\"><a href=\"http://ciae.uchile.cl/download.php?file=noticias/Asentimiento.pdf\" target=\"_blank\">Link a la hoja de información del Consentimiento.</a></p><p style=\"text-align:left; justify-content:space-between; margin-right: 5%; margin-left: 5%;\">Declaro que he leído (o se me ha leído) y (he) comprendido, las condiciones de mi participación en este estudio. He tenido la oportunidad de hacer preguntas y éstas han sido respondidas. No tengo dudas al respecto.</p>","response":0,"condicion_MCQ":12,"condicion_JUEGO":112,"condicion_INTER":16,"numero_participante":112,"numero_version":2,"dimx":412,"dimy":892,"color_profundidad":24,"pixel_profundidad":24,"Browser":"Google Chrome","dia":1,"mes":6,"hora":22,"minuto":2,"segundo":37,"trial_type":"html-button-response","trial_index":0,"time_elapsed":18352,"internal_node_id":"0.0-0.0"},{"success":true,"trial_type":"fullscreen","trial_index":1,"time_elapsed":21703,"internal_node_id":"0.0-1.0"},{"rt":41474.59999999963,"responses":"{\"Nombres\":\"Constanza melisa\",\"Apellidos\":\"Castro faundez\",\"Edad\":\"26\",\"Sexo\":\"Mujer\",\"Curso\":\"Psicología vespertino curso neurocientífico \",\"Colegio\":\"Universidad Andrés bello\",\"Contacto\":\"Concff@gmail.com \"}","trial_type":"survey-text","trial_index":2,"time_elapsed":63244,"internal_node_id":"0.0-2.0"},{"success":true,"timeout":false,"failed_images":[],"failed_audio":[],"failed_video":[],"trial_type":"preload","trial_index":3,"time_elapsed":63427,"internal_node_id":"0.0-3.0"},{"rt":4755.4000000003725,"stimulus":"<h1 style:\"margin-top: 5%;\">Ejercicios de Comprensión de Lectura de la Universidad de Chile</h1><p style=\"font-size: 120%;\">En esta actividad, debes responder 20 preguntas de selección múltiple. Cada pregunta presenta 5 respuestas alternativas, pero sólo una de ellas es correcta. Por lo tanto, debes escoger una sola alternativa para cada pregunta. Además, debes reportar qué tan seguro(a) estás de la respuesta que das, con un:</p><ol style=\"font-size: 120%;text-align:left;margin-left: 40%;\"><li>No estoy seguro(a) para nada</li><li>No estoy muy seguro(a)</li><li>Estoy bastante seguro(a)</li><li>Estoy totalmente seguro(a)</li></ol><p style=\"font-size: 120%;\">Por favor lee bien los enunciados antes de responder. ¡Éxito!</p>","response":0,"trial_type":"html-button-response","trial_index":4,"time_elapsed":68187,"internal_node_id":"0.0-4.0"},{"rt":5698.200000000186,"responses":"{\"pregunta11\":\"a) el mejor emperador es el que está muerto.\"}","question_order":"[0]","trial_type":"survey-multi-choice","trial_index":5,"time_elapsed":73892,"internal_node_id":"0.0-5.0-0.0"},{"rt":2497.2000000001863,"response":{"pregunta11 likert":2},"question_order":[0],"trial_type":"survey-likert","trial_index":6,"time_elapsed":76399,"internal_node_id":"0.0-5.0-1.0"},{"rt":12332.600000000559,"responses":"{\"pregunta5\":\"d) El ser humano se comporta de acuerdo con las circunstancias.\"}","question_order":"[0]","trial_type":"survey-multi-choice","trial_index":7,"time_elapsed":88738,"internal_node_id":"0.0-5.0-2.0"},{"rt":2131,"response":{"pregunta5 likert":2},"question_order":[0],"trial_type":"survey-likert","trial_index":8,"time_elapsed":90876,"internal_node_id":"0.0-5.0-3.0"},{"rt":10718.799999999814,"responses":"{\"pregunta19\":\"c) el jardinero estará muerto al día siguiente.\"}","question_order":"[0]","trial_type":"survey-multi-choice","trial_index":9,"time_elapsed":101602,"internal_node_id":"0.0-5.0-4.0"},{"rt":1736.5,"response":{"pregunta19 likert":3},"question_order":[0],"trial_type":"survey-likert","trial_index":10,"time_elapsed":103345,"internal_node_id":"0.0-5.0-5.0"},{"rt":8254.899999999441,"responses":"{\"pregunta20\":\"c) para el mexicano, la muerte es cotidiana.\"}","question_order":"[0]","trial_type":"survey-multi-choice","trial_index":11,"time_elapsed":111607,"internal_node_id":"0.0-5.0-6.0"},{"rt":1554,"response":{"pregunta20 likert":3},"question_order":[0],"trial_type":"survey-likert","trial_index":12,"time_elapsed":113168,"internal_node_id":"0.0-5.0-7.0"},{"rt":15380.200000000186,"responses":"{\"pregunta15\":\"c) La publicidad es dañina para sus receptores.\"}","question_order":"[0]","trial_type":"survey-multi-choice","trial_index":13,"time_elapsed":128554,"internal_node_id":"0.0-5.0-8.0"},{"rt":1826.2999999998137,"response":{"pregunta15 likert":2},"question_order":[0],"trial_type":"survey-likert","trial_index":14,"time_elapsed":130386,"internal_node_id":"0.0-5.0-9.0"},{"rt":24309.400000000373,"responses":"{\"pregunta2\":\"c) A la relación entre civilización y sociedad.\"}","question_order":"[0]","trial_type":"survey-multi-choice","trial_index":15,"time_elapsed":154702,"internal_node_id":"0.0-5.0-10.0"},{"rt":1938.3999999994412,"response":{"pregunta2 likert":1},"question_order":[0],"trial_type":"survey-likert","trial_index":16,"time_elapsed":156647,"internal_node_id":"0.0-5.0-11.0"},{"rt":9884.700000000186,"responses":"{\"pregunta7\":\"b) religiosos y precavidos.\"}","question_order":"[0]","trial_type":"survey-multi-choice","trial_index":17,"time_elapsed":166539,"internal_node_id":"0.0-5.0-12.0"},{"rt":1867.0999999996275,"response":{"pregunta7 likert":3},"question_order":[0],"trial_type":"survey-likert","trial_index":18,"time_elapsed":168413,"internal_node_id":"0.0-5.0-13.0"},{"rt":13954.599999999627,"responses":"{\"pregunta4\":\"d) Promover la asistencia a un evento específico de decoración a través de una atractiva descripción.\"}","question_order":"[0]","trial_type":"survey-multi-choice","trial_index":19,"time_elapsed":182376,"internal_node_id":"0.0-5.0-14.0"},{"rt":1668.2999999998137,"response":{"pregunta4 likert":2},"question_order":[0],"trial_type":"survey-likert","trial_index":20,"time_elapsed":184051,"internal_node_id":"0.0-5.0-15.0"},{"rt":13421.900000000373,"responses":"{\"pregunta17\":\"b) Nuestra economía vivirá un proceso de ajuste a la nueva realidad.\"}","question_order":"[0]","trial_type":"survey-multi-choice","trial_index":21,"time_elapsed":197482,"internal_node_id":"0.0-5.0-16.0"},{"rt":1695.7000000001863,"response":{"pregunta17 likert":3},"question_order":[0],"trial_type":"survey-likert","trial_index":22,"time_elapsed":199185,"internal_node_id":"0.0-5.0-17.0"},{"rt":9746.700000000186,"responses":"{\"pregunta18\":\"c) Se necesita un marco legal para delimitar lo público y lo privado en materia informativa.\"}","question_order":"[0]","trial_type":"survey-multi-choice","trial_index":23,"time_elapsed":208939,"internal_node_id":"0.0-5.0-18.0"},{"rt":5107.5,"response":{"pregunta18 likert":3},"question_order":[0],"trial_type":"survey-likert","trial_index":24,"time_elapsed":214053,"internal_node_id":"0.0-5.0-19.0"},{"rt":64108.700000000186,"responses":"{\"pregunta16\":\"b) sufren dolores de espalda.\"}","question_order":"[0]","trial_type":"survey-multi-choice","trial_index":25,"time_elapsed":278169,"internal_node_id":"0.0-5.0-20.0"},{"rt":1819.6000000005588,"response":{"pregunta16 likert":3},"question_order":[0],"trial_type":"survey-likert","trial_index":26,"time_elapsed":279996,"internal_node_id":"0.0-5.0-21.0"},{"rt":7826,"responses":"{\"pregunta9\":\"e) Homenajear a quienes murieron.\"}","question_order":"[0]","trial_type":"survey-multi-choice","trial_index":27,"time_elapsed":287829,"internal_node_id":"0.0-5.0-22.0"},{"rt":1495.5,"response":{"pregunta9 likert":3},"question_order":[0],"trial_type":"survey-likert","trial_index":28,"time_elapsed":289331,"internal_node_id":"0.0-5.0-23.0"},{"rt":14325.5,"responses":"{\"pregunta14\":\"b) A la influencia de grupos que rechazaban su música.\"}","question_order":"[0]","trial_type":"survey-multi-choice","trial_index":29,"time_elapsed":303663,"internal_node_id":"0.0-5.0-24.0"},{"rt":1458.8999999994412,"response":{"pregunta14 likert":3},"question_order":[0],"trial_type":"survey-likert","trial_index":30,"time_elapsed":305129,"internal_node_id":"0.0-5.0-25.0"},{"rt":20688.700000000186,"responses":"{\"pregunta3\":\"d) Los momentos triviales de los viajes, en la escritura se vuelven significativos.\"}","question_order":"[0]","trial_type":"survey-multi-choice","trial_index":31,"time_elapsed":325825,"internal_node_id":"0.0-5.0-26.0"},{"rt":1736,"response":{"pregunta3 likert":1},"question_order":[0],"trial_type":"survey-likert","trial_index":32,"time_elapsed":327568,"internal_node_id":"0.0-5.0-27.0"},{"rt":35521.40000000037,"responses":"{\"pregunta1\":\"c) Aportan informaciones con las que se reconstruye el personaje dentro de un relato.\"}","question_order":"[0]","trial_type":"survey-multi-choice","trial_index":33,"time_elapsed":363097,"internal_node_id":"0.0-5.0-28.0"},{"rt":1501.5,"response":{"pregunta1 likert":3},"question_order":[0],"trial_type":"survey-likert","trial_index":34,"time_elapsed":364606,"internal_node_id":"0.0-5.0-29.0"},{"rt":5787.600000000559,"responses":"{\"pregunta13\":\"a) Bomberos debería tener acceso a un seguro médico, al que pueda recurrir en caso de accidente.\"}","question_order":"[0]","trial_type":"survey-multi-choice","trial_index":35,"time_elapsed":370401,"internal_node_id":"0.0-5.0-30.0"},{"rt":1536,"response":{"pregunta13 likert":2},"question_order":[0],"trial_type":"survey-likert","trial_index":36,"time_elapsed":371946,"internal_node_id":"0.0-5.0-31.0"},{"rt":18839.799999999814,"responses":"{\"pregunta8\":\"e) Provocar el deseo de la adquisición vertiginosa.\"}","question_order":"[0]","trial_type":"survey-multi-choice","trial_index":37,"time_elapsed":390793,"internal_node_id":"0.0-5.0-32.0"},{"rt":1863.1000000005588,"response":{"pregunta8 likert":2},"question_order":[0],"trial_type":"survey-likert","trial_index":38,"time_elapsed":392665,"internal_node_id":"0.0-5.0-33.0"},{"rt":12810.799999999814,"responses":"{\"pregunta6\":\"a) un recuerdo nostálgico.\"}","question_order":"[0]","trial_type":"survey-multi-choice","trial_index":39,"time_elapsed":405483,"internal_node_id":"0.0-5.0-34.0"},{"rt":2947.4000000003725,"response":{"pregunta6 likert":1},"question_order":[0],"trial_type":"survey-likert","trial_index":40,"time_elapsed":408438,"internal_node_id":"0.0-5.0-35.0"},{"rt":17330.5,"responses":"{\"pregunta10\":\"a) Al premio merecido después de tantos esfuerzos.\"}","question_order":"[0]","trial_type":"survey-multi-choice","trial_index":41,"time_elapsed":425776,"internal_node_id":"0.0-5.0-36.0"},{"rt":1568,"response":{"pregunta10 likert":2},"question_order":[0],"trial_type":"survey-likert","trial_index":42,"time_elapsed":427352,"internal_node_id":"0.0-5.0-37.0"},{"rt":23133.89999999944,"responses":"{\"pregunta12\":\"d) la creación de elementos químicos artificiales ha resultado de la manipulación del uranio.\"}","question_order":"[0]","trial_type":"survey-multi-choice","trial_index":43,"time_elapsed":450493,"internal_node_id":"0.0-5.0-38.0"},{"rt":1552,"response":{"pregunta12 likert":3},"question_order":[0],"trial_type":"survey-likert","trial_index":44,"time_elapsed":452052,"internal_node_id":"0.0-5.0-39.0"},{"rt":1059.7000000001863,"stimulus":"<p style=\"font-size: 120%\">Gracias por completar esta etapa del estudio. Ahora te invitamos a responder el cuestionario.<br><br></p>","response":0,"trial_type":"html-button-response","trial_index":45,"time_elapsed":453124,"internal_node_id":"0.0-6.0"},{"rt":4973.399999999441,"stimulus":"<h1 style=\"margin-top: 5%\">Cuestionario para la Evaluación de Metas Académicas</h1><p style=\"font-size: 120%; margin-left: 3%; margin-top: 5%\">Este es un cuestionario que permite conocer cuáles son los principales motivos por los que los estudiantes se esfuerzan en su trabajo académico. A continuación, se te presentarán una serie de afirmaciones acerca de los motivos que puedes tener para estudiar.<br>Te pedimos que contestes a dichas afirmaciones reflexionando sobre el contenido de cada una de ellas, que, aunque te parezcan semejantes, en realidad, no lo son.<br>NO HAY RESPUESTAS CORRECTAS o INCORRECTAS, sólo queremos que respondas con la mayor precisión y sinceridad posible a las preguntas que se plantean.","response":0,"trial_type":"html-button-response","trial_index":46,"time_elapsed":458102,"internal_node_id":"0.0-7.0"},{"rt":81728.40000000037,"response":{"Metas cuestionario pregunta1":3,"Metas cuestionario pregunta2":2,"Metas cuestionario pregunta3":4,"Metas cuestionario pregunta4":2,"Metas cuestionario pregunta5":1,"Metas cuestionario pregunta6":4,"Metas cuestionario pregunta7":3,"Metas cuestionario pregunta8":2,"Metas cuestionario pregunta9":0,"Metas cuestionario pregunta10":0,"Metas cuestionario pregunta11":0,"Metas cuestionario pregunta12":0,"Metas cuestionario pregunta13":0,"Metas cuestionario pregunta14":0,"Metas cuestionario pregunta15":4,"Metas cuestionario pregunta16":2,"Metas cuestionario pregunta17":4,"Metas cuestionario pregunta18":4,"Metas cuestionario pregunta19":4,"Metas cuestionario pregunta20":0},"question_order":[0,1,2,3,4,5,6,7,8,9,10,11,12,13,14,15,16,17,18,19],"trial_type":"survey-likert","trial_index":47,"time_elapsed":539870,"internal_node_id":"0.0-8.0"},{"rt":1076.2999999998137,"stimulus":"<p style=\"font-size: 120%\">Gracias por responder el cuestionario. Ahora te invitamos a seguir con el juego, que es muy breve.<br><br></p>","response":0,"trial_type":"html-button-response","trial_index":48,"time_elapsed":540956,"internal_node_id":"0.0-9.0"},{"rt":862.5999999996275,"stimulus":"<h1>Juego</h1><p style=\"font-size: 120%;\">A continuación se te presentarán 16 pequeñas historias.<br>Por favor lee el texto presentado en cada una de ellas y luego haz click en el objeto de tu elección.<br>Si estás listo(a),<span style=\"color:red;\"> haz click en \"comenzar\"</span>.</p>","response":0,"trial_type":"html-button-response","trial_index":49,"time_elapsed":541823,"internal_node_id":"0.0-10.0"},{"rt":9017.599999999627,"grid":[[1,1,1,1,1]],"target":[0,0],"response":[0,3],"correct":false,"juego":11,"trial_type":"serial-reaction-time-mouse","trial_index":50,"time_elapsed":550848,"internal_node_id":"0.0-11.0-0.0"},{"rt":3952.7000000001863,"grid":[[1,1,1],[1,1,1],[1,1,1],[1,1,1],[1,1,1],[1,1,1],[1,1,1],[1,1,1],[1,1,1],[1,1,1],[1,1,1]],"target":[0,0],"response":[1,1],"correct":false,"juego":6,"trial_type":"serial-reaction-time-mouse","trial_index":51,"time_elapsed":554811,"internal_node_id":"0.0-11.0-1.0"},{"rt":13026.200000000186,"grid":[[1,1,1,1,1]],"target":[0,0],"response":[0,3],"correct":false,"juego":9,"trial_type":"serial-reaction-time-mouse","trial_index":52,"time_elapsed":567842,"internal_node_id":"0.0-11.0-2.0"},{"rt":13545.200000000186,"grid":[[1,1,1],[1,1,1],[1,1,1],[1,1,1],[1,1,1],[1,1,1],[1,1,1],[1,1,1],[1,1,1],[1,1,1],[1,1,1]],"target":[0,0],"response":[9,1],"correct":false,"juego":13,"trial_type":"serial-reaction-time-mouse","trial_index":53,"time_elapsed":581398,"internal_node_id":"0.0-11.0-3.0"},{"rt":14543.799999999814,"grid":[[1,1,1,1],[1,1,1,1],[1,1,1,1],[1,1,1,1],[1,1,1,1],[1,1,1,1],[1,1,1,1],[1,1,1,1],[1,1,1,1],[1,1,1,1],[1,1,1,1]],"target":[0,0],"response":[7,2],"correct":false,"juego":15,"trial_type":"serial-reaction-time-mouse","trial_index":54,"time_elapsed":595954,"internal_node_id":"0.0-11.0-4.0"},{"rt":9869.900000000373,"grid":[[1,1,1],[1,1,1],[1,1,1],[1,1,1],[1,1,1],[1,1,1],[1,1,1],[1,1,1],[1,1,1],[1,1,1],[1,1,1]],"target":[0,0],"response":[3,1],"correct":false,"juego":5,"trial_type":"serial-reaction-time-mouse","trial_index":55,"time_elapsed":605832,"internal_node_id":"0.0-11.0-5.0"},{"rt":16070,"grid":[[1,1,1,1,1]],"target":[0,0],"response":[0,2],"correct":false,"juego":12,"trial_type":"serial-reaction-time-mouse","trial_index":56,"time_elapsed":621906,"internal_node_id":"0.0-11.0-6.0"},{"rt":6004.0999999996275,"grid":[[1],[1],[1],[1],[1]],"target":[0,0],"response":[2,0],"correct":false,"juego":4,"trial_type":"serial-reaction-time-mouse","trial_index":57,"time_elapsed":627914,"internal_node_id":"0.0-11.0-7.0"},{"rt":1227.300000000745,"grid":[[1,1,1,1,1]],"target":[0,0],"response":[0,2],"correct":false,"juego":1,"trial_type":"serial-reaction-time-mouse","trial_index":58,"time_elapsed":629145,"internal_node_id":"0.0-11.0-8.0"},{"rt":11262.300000000745,"grid":[[1,1,1],[1,1,1],[1,1,1],[1,1,1],[1,1,1],[1,1,1],[1,1,1],[1,1,1],[1,1,1],[1,1,1],[1,1,1]],"target":[0,0],"response":[1,0],"correct":false,"juego":10,"trial_type":"serial-reaction-time-mouse","trial_index":59,"time_elapsed":640416,"internal_node_id":"0.0-11.0-9.0"},{"rt":9408.599999999627,"grid":[[1,1,1,1,1]],"target":[0,0],"response":[0,4],"correct":false,"juego":8,"trial_type":"serial-reaction-time-mouse","trial_index":60,"time_elapsed":649829,"internal_node_id":"0.0-11.0-10.0"},{"rt":6174.5,"grid":[[1,1,1,1,1]],"target":[0,0],"response":[0,4],"correct":false,"juego":7,"trial_type":"serial-reaction-time-mouse","trial_index":61,"time_elapsed":656007,"internal_node_id":"0.0-11.0-11.0"},{"rt":5524,"grid":[[1,1,1,1,1]],"target":[0,0],"response":[0,0],"correct":true,"juego":3,"trial_type":"serial-reaction-time-mouse","trial_index":62,"time_elapsed":661535,"internal_node_id":"0.0-11.0-12.0"},{"rt":11296.299999999814,"grid":[[1,1,1,1,1]],"target":[0,0],"response":[0,2],"correct":false,"juego":2,"trial_type":"serial-reaction-time-mouse","trial_index":63,"time_elapsed":672835,"internal_node_id":"0.0-11.0-13.0"},{"rt":7847.4000000003725,"grid":[[1,1,1,1],[1,1,1,1],[1,1,1,1],[1,1,1,1],[1,1,1,1],[1,1,1,1],[1,1,1,1],[1,1,1,1],[1,1,1,1],[1,1,1,1],[1,1,1,1]],"target":[0,0],"response":[9,2],"correct":false,"juego":14,"trial_type":"serial-reaction-time-mouse","trial_index":64,"time_elapsed":680691,"internal_node_id":"0.0-11.0-14.0"}]