[{"rt":18956,"stimulus":"<h1 style=\"color:red; margin-top: 3%;\">¡Bienvenido(a)!</h1><p style=\"text-align:left; justify-content:space-between; margin-right: 5%; margin-left: 5%; margin-top: 5%\"> Antes de empezar el estudio, necesitamos que nos confirmes que estás de acuerdo con participar. Recuerda que tu participación es 100% voluntaria y que lo único que te pedimos es responder lo mejor que puedas. Recuerda también que el estudio incluye:</p><ol style=\"text-align:left; justify-content:space-between; margin-right: 5%; margin-left: 5%;\"><li> un ejercicio de resolución de preguntas de selección múltiple (30’),</li><li>un cuestionario breve (5’),</li><li>un juego muy breve (3’),</li></ol><p style=\"text-align:left; justify-content:space-between; margin-right: 5%; margin-left: 5%;\">Si quieres participar, haz clic en “Acepto” luego de leer lo siguiente:<br></p><p style=\"text-align:left; justify-content:space-between; margin-right: 5%; margin-left: 5%;\">Acepto participar en el estudio “Estrategias de lectura y resolución de preguntas de selección múltiple”, en los términos aquí señalados:<br></p><p style=\"text-align:left; justify-content:space-between; margin-right: 5%; margin-left: 5%;\"><a href=\"http://ciae.uchile.cl/download.php?file=noticias/Asentimiento.pdf\" target=\"_blank\">Link a la hoja de información del Consentimiento.</a></p><p style=\"text-align:left; justify-content:space-between; margin-right: 5%; margin-left: 5%;\">Declaro que he leído (o se me ha leído) y (he) comprendido, las condiciones de mi participación en este estudio. He tenido la oportunidad de hacer preguntas y éstas han sido respondidas. No tengo dudas al respecto.</p>","response":0,"condicion_MCQ":6,"condicion_JUEGO":106,"condicion_INTER":10,"numero_participante":106,"numero_version":1,"dimx":1366,"dimy":768,"color_profundidad":24,"pixel_profundidad":24,"Browser":"Mozilla Firefox","dia":27,"mes":5,"hora":21,"minuto":51,"segundo":37,"trial_type":"html-button-response","trial_index":0,"time_elapsed":18960,"internal_node_id":"0.0-0.0"},{"success":true,"trial_type":"fullscreen","trial_index":1,"time_elapsed":28171,"internal_node_id":"0.0-1.0"},{"rt":121770,"responses":"{\"Nombres\":\"Fabiola Alejandra \",\"Apellidos\":\"Rojas Hernandez\",\"Edad\":\"33\",\"Sexo\":\"mujer\",\"Curso\":\"Psicologia 1er Año Vespertino \",\"Colegio\":\"Universidad Andres Bello\",\"Contacto\":\"alejandra.rojas1288@hotmail.com\"}","trial_type":"survey-text","trial_index":2,"time_elapsed":149949,"internal_node_id":"0.0-2.0"},{"success":true,"timeout":false,"failed_images":[],"failed_audio":[],"failed_video":[],"trial_type":"preload","trial_index":3,"time_elapsed":152246,"internal_node_id":"0.0-3.0"},{"rt":24966,"stimulus":"<h1 style:\"margin-top: 5%;\">Ejercicios de Comprensión de Lectura de la Universidad de Chile</h1><p style=\"font-size: 120%;\">En esta actividad, debes responder 20 preguntas de selección múltiple. Cada pregunta presenta 5 respuestas alternativas, pero sólo una de ellas es correcta. Por lo tanto, debes escoger una sola alternativa para cada pregunta. Además, debes reportar qué tan seguro(a) estás de la respuesta que das, con un:</p><ol style=\"font-size: 120%;text-align:left;margin-left: 40%;\"><li>No estoy seguro(a) para nada</li><li>No estoy muy seguro(a)</li><li>Estoy bastante seguro(a)</li><li>Estoy totalmente seguro(a)</li></ol><p style=\"font-size: 120%;\">Por favor lee bien los enunciados antes de responder. ¡Éxito!</p>","response":0,"trial_type":"html-button-response","trial_index":4,"time_elapsed":177214,"internal_node_id":"0.0-4.0"},{"rt":56222,"responses":"{\"pregunta17\":\"c) El TLC causará una completa transformación de la economía chilena.\"}","question_order":"[0]","trial_type":"survey-multi-choice","trial_index":5,"time_elapsed":233439,"internal_node_id":"0.0-5.0-0.0"},{"rt":7278,"response":{"pregunta17 likert":1},"question_order":[0],"trial_type":"survey-likert","trial_index":6,"time_elapsed":240718,"internal_node_id":"0.0-5.0-1.0"},{"rt":77958,"responses":"{\"pregunta18\":\"b) El interés público debe prevalecer sobre la defensa de la privacidad.\"}","question_order":"[0]","trial_type":"survey-multi-choice","trial_index":7,"time_elapsed":318679,"internal_node_id":"0.0-5.0-2.0"},{"rt":4965,"response":{"pregunta18 likert":2},"question_order":[0],"trial_type":"survey-likert","trial_index":8,"time_elapsed":323646,"internal_node_id":"0.0-5.0-3.0"},{"rt":206365,"responses":"{\"pregunta5\":\"c) El ser humano se comporta de acuerdo con las circunstancias.\"}","question_order":"[0]","trial_type":"survey-multi-choice","trial_index":9,"time_elapsed":530014,"internal_node_id":"0.0-5.0-4.0"},{"rt":2279,"response":{"pregunta5 likert":1},"question_order":[0],"trial_type":"survey-likert","trial_index":10,"time_elapsed":532295,"internal_node_id":"0.0-5.0-5.0"},{"rt":281390,"responses":"{\"pregunta10\":\"a) A la importancia de optar entre descansar y triunfar.\"}","question_order":"[0]","trial_type":"survey-multi-choice","trial_index":11,"time_elapsed":813688,"internal_node_id":"0.0-5.0-6.0"},{"rt":10149,"response":{"pregunta10 likert":1},"question_order":[0],"trial_type":"survey-likert","trial_index":12,"time_elapsed":823839,"internal_node_id":"0.0-5.0-7.0"},{"rt":252349,"responses":"{\"pregunta19\":\"b) la Muerte acostumbraba a aparecer en Ispahán.\"}","question_order":"[0]","trial_type":"survey-multi-choice","trial_index":13,"time_elapsed":1076190,"internal_node_id":"0.0-5.0-8.0"},{"rt":7294,"response":{"pregunta19 likert":1},"question_order":[0],"trial_type":"survey-likert","trial_index":14,"time_elapsed":1083486,"internal_node_id":"0.0-5.0-9.0"},{"rt":32214,"responses":"{\"pregunta2\":\"a) A la relación entre sociología y sociedad.\"}","question_order":"[0]","trial_type":"survey-multi-choice","trial_index":15,"time_elapsed":1115702,"internal_node_id":"0.0-5.0-10.0"},{"rt":3566,"response":{"pregunta2 likert":2},"question_order":[0],"trial_type":"survey-likert","trial_index":16,"time_elapsed":1119269,"internal_node_id":"0.0-5.0-11.0"},{"rt":441702,"responses":"{\"pregunta4\":\"a) Presentar positivamente las diversas tendencias del diseño de interiores a través de un comentario.\"}","question_order":"[0]","trial_type":"survey-multi-choice","trial_index":17,"time_elapsed":1560973,"internal_node_id":"0.0-5.0-12.0"},{"rt":2581,"response":{"pregunta4 likert":1},"question_order":[0],"trial_type":"survey-likert","trial_index":18,"time_elapsed":1563556,"internal_node_id":"0.0-5.0-13.0"},{"rt":67735,"responses":"{\"pregunta15\":\"a) El receptor es el que posee la decisión sobre la publicidad.\"}","question_order":"[0]","trial_type":"survey-multi-choice","trial_index":19,"time_elapsed":1631294,"internal_node_id":"0.0-5.0-14.0"},{"rt":2669,"response":{"pregunta15 likert":1},"question_order":[0],"trial_type":"survey-likert","trial_index":20,"time_elapsed":1633964,"internal_node_id":"0.0-5.0-15.0"},{"rt":64279,"responses":"{\"pregunta3\":\"a) Los viajes son siempre propicios para el acto escritural.\"}","question_order":"[0]","trial_type":"survey-multi-choice","trial_index":21,"time_elapsed":1698244,"internal_node_id":"0.0-5.0-16.0"},{"rt":4374,"response":{"pregunta3 likert":1},"question_order":[0],"trial_type":"survey-likert","trial_index":22,"time_elapsed":1702621,"internal_node_id":"0.0-5.0-17.0"},{"rt":8823,"responses":"{\"pregunta11\":\"c) sólo las leyes bastan para gobernarse.\"}","question_order":"[0]","trial_type":"survey-multi-choice","trial_index":23,"time_elapsed":1711446,"internal_node_id":"0.0-5.0-18.0"},{"rt":2949,"response":{"pregunta11 likert":1},"question_order":[0],"trial_type":"survey-likert","trial_index":24,"time_elapsed":1714397,"internal_node_id":"0.0-5.0-19.0"},{"rt":16335,"responses":"{\"pregunta1\":\"a) Manifiestan la importancia de que el personaje tenga independencia en el relato.\"}","question_order":"[0]","trial_type":"survey-multi-choice","trial_index":25,"time_elapsed":1730733,"internal_node_id":"0.0-5.0-20.0"},{"rt":2142,"response":{"pregunta1 likert":1},"question_order":[0],"trial_type":"survey-likert","trial_index":26,"time_elapsed":1732877,"internal_node_id":"0.0-5.0-21.0"},{"rt":4238,"responses":"{\"pregunta8\":\"c) Mostrar personajes bellos y poderosos.\"}","question_order":"[0]","trial_type":"survey-multi-choice","trial_index":27,"time_elapsed":1737116,"internal_node_id":"0.0-5.0-22.0"},{"rt":2254,"response":{"pregunta8 likert":1},"question_order":[0],"trial_type":"survey-likert","trial_index":28,"time_elapsed":1739372,"internal_node_id":"0.0-5.0-23.0"},{"rt":14142,"responses":"{\"pregunta20\":\"a) la muerte es distinta en las grandes ciudades.\"}","question_order":"[0]","trial_type":"survey-multi-choice","trial_index":29,"time_elapsed":1753516,"internal_node_id":"0.0-5.0-24.0"},{"rt":3213,"response":{"pregunta20 likert":1},"question_order":[0],"trial_type":"survey-likert","trial_index":30,"time_elapsed":1756733,"internal_node_id":"0.0-5.0-25.0"},{"rt":4423,"responses":"{\"pregunta16\":\"c) tienen mayores niveles de relaxín.\"}","question_order":"[0]","trial_type":"survey-multi-choice","trial_index":31,"time_elapsed":1761158,"internal_node_id":"0.0-5.0-26.0"},{"rt":2597,"response":{"pregunta16 likert":1},"question_order":[0],"trial_type":"survey-likert","trial_index":32,"time_elapsed":1763756,"internal_node_id":"0.0-5.0-27.0"},{"rt":4941,"responses":"{\"pregunta12\":\"c) a partir de la manipulación del núcleo se han creado elementos químicos naturales.\"}","question_order":"[0]","trial_type":"survey-multi-choice","trial_index":33,"time_elapsed":1768700,"internal_node_id":"0.0-5.0-28.0"},{"rt":2446,"response":{"pregunta12 likert":1},"question_order":[0],"trial_type":"survey-likert","trial_index":34,"time_elapsed":1771148,"internal_node_id":"0.0-5.0-29.0"},{"rt":17182,"responses":"{\"pregunta7\":\"b) pacientes y misteriosos.\"}","question_order":"[0]","trial_type":"survey-multi-choice","trial_index":35,"time_elapsed":1788333,"internal_node_id":"0.0-5.0-30.0"},{"rt":2455,"response":{"pregunta7 likert":1},"question_order":[0],"trial_type":"survey-likert","trial_index":36,"time_elapsed":1790789,"internal_node_id":"0.0-5.0-31.0"},{"rt":11142,"responses":"{\"pregunta9\":\"a) Revivir un periodo histórico.\"}","question_order":"[0]","trial_type":"survey-multi-choice","trial_index":37,"time_elapsed":1801932,"internal_node_id":"0.0-5.0-32.0"},{"rt":2455,"response":{"pregunta9 likert":1},"question_order":[0],"trial_type":"survey-likert","trial_index":38,"time_elapsed":1804389,"internal_node_id":"0.0-5.0-33.0"},{"rt":12518,"responses":"{\"pregunta13\":\"a) Los seguros médicos deberían considerar el ingreso de Bomberos, pues son los que más los necesitan.\"}","question_order":"[0]","trial_type":"survey-multi-choice","trial_index":39,"time_elapsed":1816909,"internal_node_id":"0.0-5.0-34.0"},{"rt":1734,"response":{"pregunta13 likert":1},"question_order":[0],"trial_type":"survey-likert","trial_index":40,"time_elapsed":1818645,"internal_node_id":"0.0-5.0-35.0"},{"rt":10294,"responses":"{\"pregunta6\":\"a) un conjunto de imágenes de recuerdos gratos.\"}","question_order":"[0]","trial_type":"survey-multi-choice","trial_index":41,"time_elapsed":1828941,"internal_node_id":"0.0-5.0-36.0"},{"rt":2103,"response":{"pregunta6 likert":1},"question_order":[0],"trial_type":"survey-likert","trial_index":42,"time_elapsed":1831044,"internal_node_id":"0.0-5.0-37.0"},{"rt":6958,"responses":"{\"pregunta14\":\"a) A la negligencia de la empresa que los traía a Chile.\"}","question_order":"[0]","trial_type":"survey-multi-choice","trial_index":43,"time_elapsed":1838004,"internal_node_id":"0.0-5.0-38.0"},{"rt":2647,"response":{"pregunta14 likert":1},"question_order":[0],"trial_type":"survey-likert","trial_index":44,"time_elapsed":1840652,"internal_node_id":"0.0-5.0-39.0"},{"rt":2140,"stimulus":"<p style=\"font-size: 120%\">Gracias por completar esta etapa del estudio. Ahora te invitamos a responder el cuestionario.<br><br></p>","response":0,"trial_type":"html-button-response","trial_index":45,"time_elapsed":1842796,"internal_node_id":"0.0-6.0"},{"rt":6238,"stimulus":"<h1 style=\"margin-top: 5%\">Cuestionario para la Evaluación de Metas Académicas</h1><p style=\"font-size: 120%; margin-left: 3%; margin-top: 5%\">Este es un cuestionario que permite conocer cuáles son los principales motivos por los que los estudiantes se esfuerzan en su trabajo académico. A continuación, se te presentarán una serie de afirmaciones acerca de los motivos que puedes tener para estudiar.<br>Te pedimos que contestes a dichas afirmaciones reflexionando sobre el contenido de cada una de ellas, que, aunque te parezcan semejantes, en realidad, no lo son.<br>NO HAY RESPUESTAS CORRECTAS o INCORRECTAS, sólo queremos que respondas con la mayor precisión y sinceridad posible a las preguntas que se plantean.","response":0,"trial_type":"html-button-response","trial_index":46,"time_elapsed":1849036,"internal_node_id":"0.0-7.0"},{"rt":329651,"response":{"Metas cuestionario pregunta1":4,"Metas cuestionario pregunta2":4,"Metas cuestionario pregunta3":3,"Metas cuestionario pregunta4":3,"Metas cuestionario pregunta5":3,"Metas cuestionario pregunta6":3,"Metas cuestionario pregunta7":3,"Metas cuestionario pregunta8":3,"Metas cuestionario pregunta9":0,"Metas cuestionario pregunta10":0,"Metas cuestionario pregunta11":0,"Metas cuestionario pregunta12":0,"Metas cuestionario pregunta13":0,"Metas cuestionario pregunta14":0,"Metas cuestionario pregunta15":4,"Metas cuestionario pregunta16":4,"Metas cuestionario pregunta17":4,"Metas cuestionario pregunta18":4,"Metas cuestionario pregunta19":4,"Metas cuestionario pregunta20":4},"question_order":[0,1,2,3,4,5,6,7,8,9,10,11,12,13,14,15,16,17,18,19],"trial_type":"survey-likert","trial_index":47,"time_elapsed":2178693,"internal_node_id":"0.0-8.0"}]