[{"rt":23503.80000001192,"stimulus":"<h1 style=\"color:red; margin-top: 3%;\">¡Bienvenido(a)!</h1><p style=\"text-align:left; justify-content:space-between; margin-right: 5%; margin-left: 5%; margin-top: 5%\"> Antes de empezar el estudio, necesitamos que nos confirmes que estás de acuerdo con participar. Recuerda que tu participación es 100% voluntaria y que lo único que te pedimos es responder lo mejor que puedas. Recuerda también que el estudio incluye:</p><ol style=\"text-align:left; justify-content:space-between; margin-right: 5%; margin-left: 5%;\"><li> un ejercicio de resolución de preguntas de selección múltiple (30’),</li><li>un cuestionario breve (5’),</li><li>un juego muy breve (3’),</li></ol><p style=\"text-align:left; justify-content:space-between; margin-right: 5%; margin-left: 5%;\">Si quieres participar, haz clic en “Acepto” luego de leer lo siguiente:<br></p><p style=\"text-align:left; justify-content:space-between; margin-right: 5%; margin-left: 5%;\">Acepto participar en el estudio “Estrategias de lectura y resolución de preguntas de selección múltiple”, en los términos aquí señalados:<br></p><p style=\"text-align:left; justify-content:space-between; margin-right: 5%; margin-left: 5%;\"><a href=\"http://ciae.uchile.cl/download.php?file=noticias/Asentimiento.pdf\" target=\"_blank\">Link a la hoja de información del Consentimiento.</a></p><p style=\"text-align:left; justify-content:space-between; margin-right: 5%; margin-left: 5%;\">Declaro que he leído (o se me ha leído) y (he) comprendido, las condiciones de mi participación en este estudio. He tenido la oportunidad de hacer preguntas y éstas han sido respondidas. No tengo dudas al respecto.</p>","response":0,"condicion_MCQ":9,"condicion_JUEGO":9,"condicion_INTER":9,"numero_participante":9,"numero_version":1,"dimx":1280,"dimy":720,"color_profundidad":24,"pixel_profundidad":24,"Browser":"Google Chrome","dia":17,"mes":5,"hora":18,"minuto":7,"segundo":26,"trial_type":"html-button-response","trial_index":0,"time_elapsed":23509,"internal_node_id":"0.0-0.0"},{"success":true,"trial_type":"fullscreen","trial_index":1,"time_elapsed":35064,"internal_node_id":"0.0-1.0"},{"rt":77445.80000001192,"responses":"{\"Nombres\":\"Ignacio Valentín\",\"Apellidos\":\"Jaque Rioja\",\"Edad\":\"24\",\"Sexo\":\"Hombre\",\"Curso\":\"Sección 101 Tópicos de Neurobiología Psicología Vespertino \",\"Colegio\":\"Universidad Andrés Bello\",\"Contacto\":\"ignaciojaquerr@gmail.com\"}","trial_type":"survey-text","trial_index":2,"time_elapsed":112524,"internal_node_id":"0.0-2.0"},{"success":true,"timeout":false,"failed_images":[],"failed_audio":[],"failed_video":[],"trial_type":"preload","trial_index":3,"time_elapsed":113294,"internal_node_id":"0.0-3.0"},{"rt":34417.80000001192,"stimulus":"<h1 style:\"margin-top: 5%;\">Ejercicios de Comprensión de Lectura de la Universidad de Chile</h1><p style=\"font-size: 120%;\">En esta actividad, debes responder 20 preguntas de selección múltiple. Cada pregunta presenta 5 respuestas alternativas, pero sólo una de ellas es correcta. Por lo tanto, debes escoger una sola alternativa para cada pregunta. Además, debes reportar qué tan seguro(a) estás de la respuesta que das, con un:</p><ol style=\"font-size: 120%;text-align:left;margin-left: 40%;\"><li>No estoy seguro(a) para nada</li><li>No estoy muy seguro(a)</li><li>Estoy bastante seguro(a)</li><li>Estoy totalmente seguro(a)</li></ol><p style=\"font-size: 120%;\">Por favor lee bien los enunciados antes de responder. ¡Éxito!</p>","response":0,"trial_type":"html-button-response","trial_index":4,"time_elapsed":147713,"internal_node_id":"0.0-4.0"},{"rt":81632.80000001192,"responses":"{\"pregunta16\":\"a) sufren dolores de espalda.\"}","question_order":"[0]","trial_type":"survey-multi-choice","trial_index":5,"time_elapsed":229349,"internal_node_id":"0.0-5.0-0.0"},{"rt":4333.800000011921,"response":{"pregunta16 likert":2},"question_order":[0],"trial_type":"survey-likert","trial_index":6,"time_elapsed":233686,"internal_node_id":"0.0-5.0-1.0"},{"rt":79552.5,"responses":"{\"pregunta4\":\"c) Promover la asistencia a un evento específico de decoración a través de una atractiva descripción.\"}","question_order":"[0]","trial_type":"survey-multi-choice","trial_index":7,"time_elapsed":313243,"internal_node_id":"0.0-5.0-2.0"},{"rt":2424.899999976158,"response":{"pregunta4 likert":3},"question_order":[0],"trial_type":"survey-likert","trial_index":8,"time_elapsed":315670,"internal_node_id":"0.0-5.0-3.0"},{"rt":95277.09999996424,"responses":"{\"pregunta5\":\"d) El ser humano se comporta de acuerdo con las circunstancias.\"}","question_order":"[0]","trial_type":"survey-multi-choice","trial_index":9,"time_elapsed":410949,"internal_node_id":"0.0-5.0-4.0"},{"rt":3608.899999976158,"response":{"pregunta5 likert":1},"question_order":[0],"trial_type":"survey-likert","trial_index":10,"time_elapsed":414561,"internal_node_id":"0.0-5.0-5.0"},{"rt":94384.79999995232,"responses":"{\"pregunta14\":\"b) A la negligencia de la empresa que los traía a Chile.\"}","question_order":"[0]","trial_type":"survey-multi-choice","trial_index":11,"time_elapsed":508949,"internal_node_id":"0.0-5.0-6.0"},{"rt":2576.5,"response":{"pregunta14 likert":1},"question_order":[0],"trial_type":"survey-likert","trial_index":12,"time_elapsed":511528,"internal_node_id":"0.0-5.0-7.0"},{"rt":43783.89999997616,"responses":"{\"pregunta18\":\"b) Se necesita un marco legal para delimitar lo público y lo privado en materia informativa.\"}","question_order":"[0]","trial_type":"survey-multi-choice","trial_index":13,"time_elapsed":555313,"internal_node_id":"0.0-5.0-8.0"},{"rt":2539.5,"response":{"pregunta18 likert":2},"question_order":[0],"trial_type":"survey-likert","trial_index":14,"time_elapsed":557856,"internal_node_id":"0.0-5.0-9.0"},{"rt":80123.80000001192,"responses":"{\"pregunta6\":\"d) preparar los recuerdos del mañana.\"}","question_order":"[0]","trial_type":"survey-multi-choice","trial_index":15,"time_elapsed":637984,"internal_node_id":"0.0-5.0-10.0"},{"rt":2907.600000023842,"response":{"pregunta6 likert":1},"question_order":[0],"trial_type":"survey-likert","trial_index":16,"time_elapsed":640894,"internal_node_id":"0.0-5.0-11.0"},{"rt":55096,"responses":"{\"pregunta7\":\"d) ritualistas y obsesivos.\"}","question_order":"[0]","trial_type":"survey-multi-choice","trial_index":17,"time_elapsed":695993,"internal_node_id":"0.0-5.0-12.0"},{"rt":2078.600000023842,"response":{"pregunta7 likert":2},"question_order":[0],"trial_type":"survey-likert","trial_index":18,"time_elapsed":698074,"internal_node_id":"0.0-5.0-13.0"},{"rt":102927.40000003576,"responses":"{\"pregunta17\":\"b) Nuestra economía vivirá un proceso de ajuste a la nueva realidad.\"}","question_order":"[0]","trial_type":"survey-multi-choice","trial_index":19,"time_elapsed":801004,"internal_node_id":"0.0-5.0-14.0"},{"rt":1678.699999988079,"response":{"pregunta17 likert":2},"question_order":[0],"trial_type":"survey-likert","trial_index":20,"time_elapsed":802685,"internal_node_id":"0.0-5.0-15.0"},{"rt":94053.30000001192,"responses":"{\"pregunta10\":\"e) Al premio merecido después de tantos esfuerzos.\"}","question_order":"[0]","trial_type":"survey-multi-choice","trial_index":21,"time_elapsed":896741,"internal_node_id":"0.0-5.0-16.0"},{"rt":2041,"response":{"pregunta10 likert":2},"question_order":[0],"trial_type":"survey-likert","trial_index":22,"time_elapsed":898785,"internal_node_id":"0.0-5.0-17.0"},{"rt":56894.80000001192,"responses":"{\"pregunta13\":\"a) Bomberos debería tener acceso a un seguro médico, al que pueda recurrir en caso de accidente.\"}","question_order":"[0]","trial_type":"survey-multi-choice","trial_index":23,"time_elapsed":955682,"internal_node_id":"0.0-5.0-18.0"},{"rt":1995,"response":{"pregunta13 likert":2},"question_order":[0],"trial_type":"survey-likert","trial_index":24,"time_elapsed":957680,"internal_node_id":"0.0-5.0-19.0"},{"rt":91875.19999998808,"responses":"{\"pregunta8\":\"e) Deleitar a sus receptores por medio de la belleza y el confort.\"}","question_order":"[0]","trial_type":"survey-multi-choice","trial_index":25,"time_elapsed":1049558,"internal_node_id":"0.0-5.0-20.0"},{"rt":3363.800000011921,"response":{"pregunta8 likert":1},"question_order":[0],"trial_type":"survey-likert","trial_index":26,"time_elapsed":1052925,"internal_node_id":"0.0-5.0-21.0"},{"rt":91193.10000002384,"responses":"{\"pregunta1\":\"c) Aportan informaciones con las que se reconstruye el personaje dentro de un relato.\"}","question_order":"[0]","trial_type":"survey-multi-choice","trial_index":27,"time_elapsed":1144124,"internal_node_id":"0.0-5.0-22.0"},{"rt":2212.599999964237,"response":{"pregunta1 likert":1},"question_order":[0],"trial_type":"survey-likert","trial_index":28,"time_elapsed":1146340,"internal_node_id":"0.0-5.0-23.0"},{"rt":52491.10000002384,"responses":"{\"pregunta12\":\"b) a partir de la manipulación del núcleo se han creado elementos químicos naturales.\"}","question_order":"[0]","trial_type":"survey-multi-choice","trial_index":29,"time_elapsed":1198836,"internal_node_id":"0.0-5.0-24.0"},{"rt":2547.399999976158,"response":{"pregunta12 likert":1},"question_order":[0],"trial_type":"survey-likert","trial_index":30,"time_elapsed":1201387,"internal_node_id":"0.0-5.0-25.0"},{"rt":94568.89999997616,"responses":"{\"pregunta15\":\"a) El receptor es habitualmente pasivo frente a la publicidad.\"}","question_order":"[0]","trial_type":"survey-multi-choice","trial_index":31,"time_elapsed":1295959,"internal_node_id":"0.0-5.0-26.0"},{"rt":3353.600000023842,"response":{"pregunta15 likert":1},"question_order":[0],"trial_type":"survey-likert","trial_index":32,"time_elapsed":1299315,"internal_node_id":"0.0-5.0-27.0"},{"rt":130321.19999998808,"responses":"{\"pregunta11\":\"e) el mejor emperador es el que está muerto.\"}","question_order":"[0]","trial_type":"survey-multi-choice","trial_index":33,"time_elapsed":1429639,"internal_node_id":"0.0-5.0-28.0"},{"rt":2106,"response":{"pregunta11 likert":1},"question_order":[0],"trial_type":"survey-likert","trial_index":34,"time_elapsed":1431748,"internal_node_id":"0.0-5.0-29.0"},{"rt":92897.69999998808,"responses":"{\"pregunta9\":\"e) Homenajear a quienes murieron.\"}","question_order":"[0]","trial_type":"survey-multi-choice","trial_index":35,"time_elapsed":1524649,"internal_node_id":"0.0-5.0-30.0"},{"rt":3760.5,"response":{"pregunta9 likert":2},"question_order":[0],"trial_type":"survey-likert","trial_index":36,"time_elapsed":1528413,"internal_node_id":"0.0-5.0-31.0"},{"rt":19642.19999998808,"responses":"{\"pregunta2\":\"c) A la relación entre pensamiento y estructura social.\"}","question_order":"[0]","trial_type":"survey-multi-choice","trial_index":37,"time_elapsed":1548059,"internal_node_id":"0.0-5.0-32.0"},{"rt":1767.9000000357628,"response":{"pregunta2 likert":1},"question_order":[0],"trial_type":"survey-likert","trial_index":38,"time_elapsed":1549829,"internal_node_id":"0.0-5.0-33.0"},{"rt":114285.89999997616,"responses":"{\"pregunta3\":\"c) Los momentos triviales de los viajes, en la escritura se vuelven significativos.\"}","question_order":"[0]","trial_type":"survey-multi-choice","trial_index":39,"time_elapsed":1664117,"internal_node_id":"0.0-5.0-34.0"},{"rt":2777.5,"response":{"pregunta3 likert":1},"question_order":[0],"trial_type":"survey-likert","trial_index":40,"time_elapsed":1666898,"internal_node_id":"0.0-5.0-35.0"},{"rt":32258.200000047684,"responses":"{\"pregunta20\":\"b) para el mexicano, la muerte es cotidiana.\"}","question_order":"[0]","trial_type":"survey-multi-choice","trial_index":41,"time_elapsed":1699159,"internal_node_id":"0.0-5.0-36.0"},{"rt":8261.900000035763,"response":{"pregunta20 likert":1},"question_order":[0],"trial_type":"survey-likert","trial_index":42,"time_elapsed":1707424,"internal_node_id":"0.0-5.0-37.0"},{"rt":53967.90000003576,"responses":"{\"pregunta19\":\"d) la Muerte vaticina el futuro mediante gestos.\"}","question_order":"[0]","trial_type":"survey-multi-choice","trial_index":43,"time_elapsed":1761395,"internal_node_id":"0.0-5.0-38.0"},{"rt":2042.8999999761581,"response":{"pregunta19 likert":1},"question_order":[0],"trial_type":"survey-likert","trial_index":44,"time_elapsed":1763442,"internal_node_id":"0.0-5.0-39.0"},{"rt":3226,"stimulus":"<p style=\"font-size: 120%\">Gracias por completar esta etapa del estudio. Ahora te invitamos a responder el cuestionario.<br><br></p>","response":0,"trial_type":"html-button-response","trial_index":45,"time_elapsed":1766677,"internal_node_id":"0.0-6.0"},{"rt":18934.80000001192,"stimulus":"<h1 style=\"margin-top: 5%\">Cuestionario para la Evaluación de Metas Académicas</h1><p style=\"font-size: 120%; margin-left: 3%; margin-top: 5%\">Este es un cuestionario que permite conocer cuáles son los principales motivos por los que los estudiantes se esfuerzan en su trabajo académico. A continuación, se te presentarán una serie de afirmaciones acerca de los motivos que puedes tener para estudiar.<br>Te pedimos que contestes a dichas afirmaciones reflexionando sobre el contenido de cada una de ellas, que, aunque te parezcan semejantes, en realidad, no lo son.<br>NO HAY RESPUESTAS CORRECTAS o INCORRECTAS, sólo queremos que respondas con la mayor precisión y sinceridad posible a las preguntas que se plantean.","response":0,"trial_type":"html-button-response","trial_index":46,"time_elapsed":1785615,"internal_node_id":"0.0-7.0"},{"rt":148087.39999997616,"response":{"Metas cuestionario pregunta1":3,"Metas cuestionario pregunta2":3,"Metas cuestionario pregunta3":4,"Metas cuestionario pregunta4":3,"Metas cuestionario pregunta5":3,"Metas cuestionario pregunta6":4,"Metas cuestionario pregunta7":4,"Metas cuestionario pregunta8":3,"Metas cuestionario pregunta9":2,"Metas cuestionario pregunta10":2,"Metas cuestionario pregunta11":2,"Metas cuestionario pregunta12":3,"Metas cuestionario pregunta13":3,"Metas cuestionario pregunta14":3,"Metas cuestionario pregunta15":3,"Metas cuestionario pregunta16":3,"Metas cuestionario pregunta17":4,"Metas cuestionario pregunta18":4,"Metas cuestionario pregunta19":4,"Metas cuestionario pregunta20":4},"question_order":[0,1,2,3,4,5,6,7,8,9,10,11,12,13,14,15,16,17,18,19],"trial_type":"survey-likert","trial_index":47,"time_elapsed":1933716,"internal_node_id":"0.0-8.0"}]