[{"rt":310604.3999999999,"stimulus":"<h1 style=\"color:red; margin-top: 3%;\">¡Bienvenido(a)!</h1><p style=\"text-align:left; justify-content:space-between; margin-right: 5%; margin-left: 5%; margin-top: 5%\"> Antes de empezar el estudio, necesitamos que nos confirmes que estás de acuerdo con participar. Recuerda que tu participación es 100% voluntaria y que lo único que te pedimos es responder lo mejor que puedas. Recuerda también que el estudio incluye:</p><ol style=\"text-align:left; justify-content:space-between; margin-right: 5%; margin-left: 5%;\"><li> un ejercicio de resolución de preguntas de selección múltiple (30’),</li><li>un cuestionario breve (5’),</li><li>un juego muy breve (3’),</li></ol><p style=\"text-align:left; justify-content:space-between; margin-right: 5%; margin-left: 5%;\">Si quieres participar, haz clic en “Acepto” luego de leer lo siguiente:<br></p><p style=\"text-align:left; justify-content:space-between; margin-right: 5%; margin-left: 5%;\">Acepto participar en el estudio “Estrategias de lectura y resolución de preguntas de selección múltiple”, en los términos aquí señalados:<br></p><p style=\"text-align:left; justify-content:space-between; margin-right: 5%; margin-left: 5%;\"><a href=\"http://ciae.uchile.cl/download.php?file=noticias/Asentimiento.pdf\" target=\"_blank\">Link a la hoja de información del Consentimiento.</a></p><p style=\"text-align:left; justify-content:space-between; margin-right: 5%; margin-left: 5%;\">Declaro que he leído (o se me ha leído) y (he) comprendido, las condiciones de mi participación en este estudio. He tenido la oportunidad de hacer preguntas y éstas han sido respondidas. No tengo dudas al respecto.</p>","response":0,"condicion_MCQ":2,"condicion_JUEGO":42,"condicion_INTER":18,"numero_participante":42,"numero_version":1,"dimx":1440,"dimy":900,"color_profundidad":24,"pixel_profundidad":24,"Browser":"Google Chrome","dia":19,"mes":5,"hora":11,"minuto":38,"segundo":51,"trial_type":"html-button-response","trial_index":0,"time_elapsed":310617,"internal_node_id":"0.0-0.0"},{"success":true,"trial_type":"fullscreen","trial_index":1,"time_elapsed":338970,"internal_node_id":"0.0-1.0"},{"rt":75495.5,"responses":"{\"Nombres\":\"Valeria Ignacia\",\"Apellidos\":\"Rodríguez Faúndez\",\"Edad\":\"26\",\"Sexo\":\"mujer\",\"Curso\":\"sección 1236\",\"Colegio\":\"Universidad Andrés Bello\",\"Contacto\":\"v.rodrguezfandez@uandresbello.edu\"}","trial_type":"survey-text","trial_index":2,"time_elapsed":414476,"internal_node_id":"0.0-2.0"},{"success":true,"timeout":false,"failed_images":[],"failed_audio":[],"failed_video":[],"trial_type":"preload","trial_index":3,"time_elapsed":415829,"internal_node_id":"0.0-3.0"},{"rt":17676.5,"stimulus":"<h1 style:\"margin-top: 5%;\">Ejercicios de Comprensión de Lectura de la Universidad de Chile</h1><p style=\"font-size: 120%;\">En esta actividad, debes responder 20 preguntas de selección múltiple. Cada pregunta presenta 5 respuestas alternativas, pero sólo una de ellas es correcta. Por lo tanto, debes escoger una sola alternativa para cada pregunta. Además, debes reportar qué tan seguro(a) estás de la respuesta que das, con un:</p><ol style=\"font-size: 120%;text-align:left;margin-left: 40%;\"><li>No estoy seguro(a) para nada</li><li>No estoy muy seguro(a)</li><li>Estoy bastante seguro(a)</li><li>Estoy totalmente seguro(a)</li></ol><p style=\"font-size: 120%;\">Por favor lee bien los enunciados antes de responder. ¡Éxito!</p>","response":0,"trial_type":"html-button-response","trial_index":4,"time_elapsed":433508,"internal_node_id":"0.0-4.0"},{"rt":74518.5,"responses":"{\"pregunta18\":\"e) Se necesita un marco legal para delimitar lo público y lo privado en materia informativa.\"}","question_order":"[0]","trial_type":"survey-multi-choice","trial_index":5,"time_elapsed":508031,"internal_node_id":"0.0-5.0-0.0"},{"rt":3719.600000000093,"response":{"pregunta18 likert":2},"question_order":[0],"trial_type":"survey-likert","trial_index":6,"time_elapsed":511754,"internal_node_id":"0.0-5.0-1.0"},{"rt":128167.79999999981,"responses":"{\"pregunta9\":\"c) Homenajear a quienes murieron.\"}","question_order":"[0]","trial_type":"survey-multi-choice","trial_index":7,"time_elapsed":639949,"internal_node_id":"0.0-5.0-2.0"},{"rt":1616,"response":{"pregunta9 likert":2},"question_order":[0],"trial_type":"survey-likert","trial_index":8,"time_elapsed":641568,"internal_node_id":"0.0-5.0-3.0"},{"rt":57865.799999999814,"responses":"{\"pregunta5\":\"b) El ser humano se comporta de acuerdo con las circunstancias.\"}","question_order":"[0]","trial_type":"survey-multi-choice","trial_index":9,"time_elapsed":699439,"internal_node_id":"0.0-5.0-4.0"},{"rt":1559.7000000001863,"response":{"pregunta5 likert":3},"question_order":[0],"trial_type":"survey-likert","trial_index":10,"time_elapsed":701001,"internal_node_id":"0.0-5.0-5.0"},{"rt":81718.6000000001,"responses":"{\"pregunta6\":\"b) preparar los recuerdos del mañana.\"}","question_order":"[0]","trial_type":"survey-multi-choice","trial_index":11,"time_elapsed":782725,"internal_node_id":"0.0-5.0-6.0"},{"rt":2000.6999999997206,"response":{"pregunta6 likert":2},"question_order":[0],"trial_type":"survey-likert","trial_index":12,"time_elapsed":784729,"internal_node_id":"0.0-5.0-7.0"},{"rt":75073.1000000001,"responses":"{\"pregunta11\":\"a) la prosperidad del imperio se debió al Primer Ministro.\"}","question_order":"[0]","trial_type":"survey-multi-choice","trial_index":13,"time_elapsed":859807,"internal_node_id":"0.0-5.0-8.0"},{"rt":1744.8000000002794,"response":{"pregunta11 likert":1},"question_order":[0],"trial_type":"survey-likert","trial_index":14,"time_elapsed":861554,"internal_node_id":"0.0-5.0-9.0"},{"rt":75660.40000000037,"responses":"{\"pregunta8\":\"c) Provocar el deseo de la adquisición vertiginosa.\"}","question_order":"[0]","trial_type":"survey-multi-choice","trial_index":15,"time_elapsed":937219,"internal_node_id":"0.0-5.0-10.0"},{"rt":2004.9000000003725,"response":{"pregunta8 likert":2},"question_order":[0],"trial_type":"survey-likert","trial_index":16,"time_elapsed":939226,"internal_node_id":"0.0-5.0-11.0"},{"rt":50837.39999999991,"responses":"{\"pregunta17\":\"e) Nuestra economía vivirá un proceso de ajuste a la nueva realidad.\"}","question_order":"[0]","trial_type":"survey-multi-choice","trial_index":17,"time_elapsed":990067,"internal_node_id":"0.0-5.0-12.0"},{"rt":2113.3000000002794,"response":{"pregunta17 likert":3},"question_order":[0],"trial_type":"survey-likert","trial_index":18,"time_elapsed":992183,"internal_node_id":"0.0-5.0-13.0"},{"rt":49983.700000000186,"responses":"{\"pregunta13\":\"d) Bomberos debería tener acceso a un seguro médico, al que pueda recurrir en caso de accidente.\"}","question_order":"[0]","trial_type":"survey-multi-choice","trial_index":19,"time_elapsed":1042170,"internal_node_id":"0.0-5.0-14.0"},{"rt":1672.3000000002794,"response":{"pregunta13 likert":2},"question_order":[0],"trial_type":"survey-likert","trial_index":20,"time_elapsed":1043845,"internal_node_id":"0.0-5.0-15.0"},{"rt":122305.5,"responses":"{\"pregunta12\":\"d) el uranio es el elemento natural con el mayor número de protones en el núcleo.\"}","question_order":"[0]","trial_type":"survey-multi-choice","trial_index":21,"time_elapsed":1166157,"internal_node_id":"0.0-5.0-16.0"},{"rt":3182,"response":{"pregunta12 likert":0},"question_order":[0],"trial_type":"survey-likert","trial_index":22,"time_elapsed":1169341,"internal_node_id":"0.0-5.0-17.0"},{"rt":60842.19999999972,"responses":"{\"pregunta15\":\"d) El receptor es habitualmente pasivo frente a la publicidad.\"}","question_order":"[0]","trial_type":"survey-multi-choice","trial_index":23,"time_elapsed":1230187,"internal_node_id":"0.0-5.0-18.0"},{"rt":2237.5,"response":{"pregunta15 likert":3},"question_order":[0],"trial_type":"survey-likert","trial_index":24,"time_elapsed":1232427,"internal_node_id":"0.0-5.0-19.0"},{"rt":116594,"responses":"{\"pregunta1\":\"a) Aportan informaciones con las que se reconstruye el personaje dentro de un relato.\"}","question_order":"[0]","trial_type":"survey-multi-choice","trial_index":25,"time_elapsed":1349027,"internal_node_id":"0.0-5.0-20.0"},{"rt":1507.8999999999069,"response":{"pregunta1 likert":2},"question_order":[0],"trial_type":"survey-likert","trial_index":26,"time_elapsed":1350538,"internal_node_id":"0.0-5.0-21.0"},{"rt":114707.59999999963,"responses":"{\"pregunta3\":\"d) En los viajes es esencial el momento mismo de la escritura.\"}","question_order":"[0]","trial_type":"survey-multi-choice","trial_index":27,"time_elapsed":1465270,"internal_node_id":"0.0-5.0-22.0"},{"rt":1591.7999999998137,"response":{"pregunta3 likert":2},"question_order":[0],"trial_type":"survey-likert","trial_index":28,"time_elapsed":1466864,"internal_node_id":"0.0-5.0-23.0"},{"rt":67194.40000000037,"responses":"{\"pregunta20\":\"a) para el mexicano, la muerte es cotidiana.\"}","question_order":"[0]","trial_type":"survey-multi-choice","trial_index":29,"time_elapsed":1534064,"internal_node_id":"0.0-5.0-24.0"},{"rt":1953,"response":{"pregunta20 likert":1},"question_order":[0],"trial_type":"survey-likert","trial_index":30,"time_elapsed":1536020,"internal_node_id":"0.0-5.0-25.0"},{"rt":60242.700000000186,"responses":"{\"pregunta10\":\"b) A la conveniencia de no postergar el descanso personal.\"}","question_order":"[0]","trial_type":"survey-multi-choice","trial_index":31,"time_elapsed":1596267,"internal_node_id":"0.0-5.0-26.0"},{"rt":2574.2999999998137,"response":{"pregunta10 likert":1},"question_order":[0],"trial_type":"survey-likert","trial_index":32,"time_elapsed":1598844,"internal_node_id":"0.0-5.0-27.0"},{"rt":69723,"responses":"{\"pregunta7\":\"e) religiosos y precavidos.\"}","question_order":"[0]","trial_type":"survey-multi-choice","trial_index":33,"time_elapsed":1668572,"internal_node_id":"0.0-5.0-28.0"},{"rt":2277.8000000002794,"response":{"pregunta7 likert":1},"question_order":[0],"trial_type":"survey-likert","trial_index":34,"time_elapsed":1670852,"internal_node_id":"0.0-5.0-29.0"},{"rt":77822.5,"responses":"{\"pregunta19\":\"d) la Muerte vaticina el futuro mediante gestos.\"}","question_order":"[0]","trial_type":"survey-multi-choice","trial_index":35,"time_elapsed":1748679,"internal_node_id":"0.0-5.0-30.0"},{"rt":2004.6999999997206,"response":{"pregunta19 likert":2},"question_order":[0],"trial_type":"survey-likert","trial_index":36,"time_elapsed":1750686,"internal_node_id":"0.0-5.0-31.0"},{"rt":109516.70000000019,"responses":"{\"pregunta16\":\"e) sufren dolores de espalda.\"}","question_order":"[0]","trial_type":"survey-multi-choice","trial_index":37,"time_elapsed":1860208,"internal_node_id":"0.0-5.0-32.0"},{"rt":2025.3999999999069,"response":{"pregunta16 likert":2},"question_order":[0],"trial_type":"survey-likert","trial_index":38,"time_elapsed":1862236,"internal_node_id":"0.0-5.0-33.0"},{"rt":50789.90000000037,"responses":"{\"pregunta2\":\"b) A la relación entre sociología y sociedad.\"}","question_order":"[0]","trial_type":"survey-multi-choice","trial_index":39,"time_elapsed":1913029,"internal_node_id":"0.0-5.0-34.0"},{"rt":1696.5,"response":{"pregunta2 likert":2},"question_order":[0],"trial_type":"survey-likert","trial_index":40,"time_elapsed":1914728,"internal_node_id":"0.0-5.0-35.0"},{"rt":47727.80000000028,"responses":"{\"pregunta4\":\"b) Promover la asistencia a un evento específico de decoración a través de una atractiva descripción.\"}","question_order":"[0]","trial_type":"survey-multi-choice","trial_index":41,"time_elapsed":1962459,"internal_node_id":"0.0-5.0-36.0"},{"rt":2057.5,"response":{"pregunta4 likert":3},"question_order":[0],"trial_type":"survey-likert","trial_index":42,"time_elapsed":1964519,"internal_node_id":"0.0-5.0-37.0"},{"rt":56783.30000000028,"responses":"{\"pregunta14\":\"d) A la influencia de grupos que rechazaban su música.\"}","question_order":"[0]","trial_type":"survey-multi-choice","trial_index":43,"time_elapsed":2021306,"internal_node_id":"0.0-5.0-38.0"},{"rt":3431.5999999996275,"response":{"pregunta14 likert":2},"question_order":[0],"trial_type":"survey-likert","trial_index":44,"time_elapsed":2024740,"internal_node_id":"0.0-5.0-39.0"},{"rt":2419,"stimulus":"<p style=\"font-size: 120%\">Gracias por completar esta etapa del estudio. Ahora te invitamos a responder el cuestionario.<br><br></p>","response":0,"trial_type":"html-button-response","trial_index":45,"time_elapsed":2027165,"internal_node_id":"0.0-6.0"},{"rt":29966.10000000056,"stimulus":"<h1 style=\"margin-top: 5%\">Cuestionario para la Evaluación de Metas Académicas</h1><p style=\"font-size: 120%; margin-left: 3%; margin-top: 5%\">Este es un cuestionario que permite conocer cuáles son los principales motivos por los que los estudiantes se esfuerzan en su trabajo académico. A continuación, se te presentarán una serie de afirmaciones acerca de los motivos que puedes tener para estudiar.<br>Te pedimos que contestes a dichas afirmaciones reflexionando sobre el contenido de cada una de ellas, que, aunque te parezcan semejantes, en realidad, no lo son.<br>NO HAY RESPUESTAS CORRECTAS o INCORRECTAS, sólo queremos que respondas con la mayor precisión y sinceridad posible a las preguntas que se plantean.","response":0,"trial_type":"html-button-response","trial_index":46,"time_elapsed":2057133,"internal_node_id":"0.0-7.0"},{"rt":115328.60000000056,"response":{"Metas cuestionario pregunta1":3,"Metas cuestionario pregunta2":4,"Metas cuestionario pregunta3":4,"Metas cuestionario pregunta4":3,"Metas cuestionario pregunta5":4,"Metas cuestionario pregunta6":3,"Metas cuestionario pregunta7":3,"Metas cuestionario pregunta8":3,"Metas cuestionario pregunta9":3,"Metas cuestionario pregunta10":1,"Metas cuestionario pregunta11":1,"Metas cuestionario pregunta12":1,"Metas cuestionario pregunta13":2,"Metas cuestionario pregunta14":2,"Metas cuestionario pregunta15":4,"Metas cuestionario pregunta16":4,"Metas cuestionario pregunta17":4,"Metas cuestionario pregunta18":4,"Metas cuestionario pregunta19":4,"Metas cuestionario pregunta20":4},"question_order":[0,1,2,3,4,5,6,7,8,9,10,11,12,13,14,15,16,17,18,19],"trial_type":"survey-likert","trial_index":47,"time_elapsed":2172474,"internal_node_id":"0.0-8.0"},{"rt":2301.7000000001863,"stimulus":"<p style=\"font-size: 120%\">Gracias por responder el cuestionario. Ahora te invitamos a seguir con el juego, que es muy breve.<br><br></p>","response":0,"trial_type":"html-button-response","trial_index":48,"time_elapsed":2174780,"internal_node_id":"0.0-9.0"},{"rt":12543.5,"stimulus":"<h1>Juego</h1><p style=\"font-size: 120%;\">A continuación se te presentarán 16 pequeñas historias.<br>Por favor lee el texto presentado en cada una de ellas y luego haz click en el objeto de tu elección.<br>Si estás listo(a),<span style=\"color:red;\"> haz click en \"comenzar\"</span>.</p>","response":0,"trial_type":"html-button-response","trial_index":49,"time_elapsed":2187326,"internal_node_id":"0.0-10.0"},{"rt":18467.400000000373,"grid":[[1,1,1,1,1]],"target":[0,0],"response":[0,2],"correct":false,"juego":9,"trial_type":"serial-reaction-time-mouse","trial_index":50,"time_elapsed":2205797,"internal_node_id":"0.0-11.0-0.0"},{"rt":6616,"grid":[[1,1,1,1,1]],"target":[0,0],"response":[0,1],"correct":false,"juego":2,"trial_type":"serial-reaction-time-mouse","trial_index":51,"time_elapsed":2212415,"internal_node_id":"0.0-11.0-1.0"},{"rt":9013.799999999814,"grid":[[1,1,1,1,1]],"target":[0,0],"response":[0,3],"correct":false,"juego":1,"trial_type":"serial-reaction-time-mouse","trial_index":52,"time_elapsed":2221431,"internal_node_id":"0.0-11.0-2.0"},{"rt":21784.799999999814,"grid":[[1,1,1,1],[1,1,1,1],[1,1,1,1],[1,1,1,1],[1,1,1,1],[1,1,1,1],[1,1,1,1],[1,1,1,1],[1,1,1,1],[1,1,1,1],[1,1,1,1]],"target":[0,0],"response":[9,2],"correct":false,"juego":15,"trial_type":"serial-reaction-time-mouse","trial_index":53,"time_elapsed":2243221,"internal_node_id":"0.0-11.0-3.0"},{"rt":20495.299999999814,"grid":[[1,1,1],[1,1,1],[1,1,1],[1,1,1],[1,1,1],[1,1,1],[1,1,1],[1,1,1],[1,1,1],[1,1,1],[1,1,1]],"target":[0,0],"response":[1,1],"correct":false,"juego":13,"trial_type":"serial-reaction-time-mouse","trial_index":54,"time_elapsed":2263720,"internal_node_id":"0.0-11.0-4.0"},{"rt":8785.099999999627,"grid":[[1,1,1],[1,1,1],[1,1,1],[1,1,1],[1,1,1],[1,1,1],[1,1,1],[1,1,1],[1,1,1],[1,1,1],[1,1,1]],"target":[0,0],"response":[3,1],"correct":false,"juego":5,"trial_type":"serial-reaction-time-mouse","trial_index":55,"time_elapsed":2272509,"internal_node_id":"0.0-11.0-5.0"},{"rt":9844.099999999627,"grid":[[1,1,1,1,1]],"target":[0,0],"response":[0,1],"correct":false,"juego":3,"trial_type":"serial-reaction-time-mouse","trial_index":56,"time_elapsed":2282356,"internal_node_id":"0.0-11.0-6.0"},{"rt":7656.700000000186,"grid":[[1,1,1],[1,1,1],[1,1,1],[1,1,1],[1,1,1],[1,1,1],[1,1,1],[1,1,1],[1,1,1],[1,1,1],[1,1,1]],"target":[0,0],"response":[7,1],"correct":false,"juego":6,"trial_type":"serial-reaction-time-mouse","trial_index":57,"time_elapsed":2290018,"internal_node_id":"0.0-11.0-7.0"},{"rt":10680.099999999627,"grid":[[1,1,1,1,1]],"target":[0,0],"response":[0,2],"correct":false,"juego":11,"trial_type":"serial-reaction-time-mouse","trial_index":58,"time_elapsed":2300701,"internal_node_id":"0.0-11.0-8.0"},{"rt":28053.900000000373,"grid":[[1,1,1],[1,1,1],[1,1,1],[1,1,1],[1,1,1],[1,1,1],[1,1,1],[1,1,1],[1,1,1],[1,1,1],[1,1,1]],"target":[0,0],"response":[1,0],"correct":false,"juego":10,"trial_type":"serial-reaction-time-mouse","trial_index":59,"time_elapsed":2328759,"internal_node_id":"0.0-11.0-9.0"},{"rt":12022,"grid":[[1,1,1,1,1]],"target":[0,0],"response":[0,1],"correct":false,"juego":12,"trial_type":"serial-reaction-time-mouse","trial_index":60,"time_elapsed":2340790,"internal_node_id":"0.0-11.0-10.0"},{"rt":6962,"grid":[[1,1,1,1,1]],"target":[0,0],"response":[0,1],"correct":false,"juego":8,"trial_type":"serial-reaction-time-mouse","trial_index":61,"time_elapsed":2347758,"internal_node_id":"0.0-11.0-11.0"},{"rt":8039.200000000186,"grid":[[1,1,1,1,1]],"target":[0,0],"response":[0,3],"correct":false,"juego":7,"trial_type":"serial-reaction-time-mouse","trial_index":62,"time_elapsed":2355803,"internal_node_id":"0.0-11.0-12.0"},{"rt":3816.399999999441,"grid":[[1],[1],[1],[1],[1]],"target":[0,0],"response":[0,0],"correct":true,"juego":4,"trial_type":"serial-reaction-time-mouse","trial_index":63,"time_elapsed":2359621,"internal_node_id":"0.0-11.0-13.0"},{"rt":7421.299999999814,"grid":[[1,1,1,1],[1,1,1,1],[1,1,1,1],[1,1,1,1],[1,1,1,1],[1,1,1,1],[1,1,1,1],[1,1,1,1],[1,1,1,1],[1,1,1,1],[1,1,1,1]],"target":[0,0],"response":[5,2],"correct":false,"juego":14,"trial_type":"serial-reaction-time-mouse","trial_index":64,"time_elapsed":2367047,"internal_node_id":"0.0-11.0-14.0"}]