[{"rt":23528.100000023842,"stimulus":"<h1 style=\"color:red; margin-top: 3%;\">¡Bienvenido(a)!</h1><p style=\"text-align:left; justify-content:space-between; margin-right: 5%; margin-left: 5%; margin-top: 5%\"> Antes de empezar el estudio, necesitamos que nos confirmes que estás de acuerdo con participar. Recuerda que tu participación es 100% voluntaria y que lo único que te pedimos es responder lo mejor que puedas. Recuerda también que el estudio incluye:</p><ol style=\"text-align:left; justify-content:space-between; margin-right: 5%; margin-left: 5%;\"><li> un ejercicio de resolución de preguntas de selección múltiple (30’),</li><li>un cuestionario breve (5’),</li><li>un juego muy breve (3’),</li></ol><p style=\"text-align:left; justify-content:space-between; margin-right: 5%; margin-left: 5%;\">Si quieres participar, haz clic en “Acepto” luego de leer lo siguiente:<br></p><p style=\"text-align:left; justify-content:space-between; margin-right: 5%; margin-left: 5%;\">Acepto participar en el estudio “Estrategias de lectura y resolución de preguntas de selección múltiple”, en los términos aquí señalados:<br></p><p style=\"text-align:left; justify-content:space-between; margin-right: 5%; margin-left: 5%;\"><a href=\"http://ciae.uchile.cl/download.php?file=noticias/Asentimiento.pdf\" target=\"_blank\">Link a la hoja de información del Consentimiento.</a></p><p style=\"text-align:left; justify-content:space-between; margin-right: 5%; margin-left: 5%;\">Declaro que he leído (o se me ha leído) y (he) comprendido, las condiciones de mi participación en este estudio. He tenido la oportunidad de hacer preguntas y éstas han sido respondidas. No tengo dudas al respecto.</p>","response":0,"condicion_MCQ":5,"condicion_JUEGO":85,"condicion_INTER":13,"numero_participante":85,"numero_version":1,"dimx":1600,"dimy":900,"color_profundidad":24,"pixel_profundidad":24,"Browser":"Google Chrome","dia":23,"mes":5,"hora":16,"minuto":2,"segundo":10,"trial_type":"html-button-response","trial_index":0,"time_elapsed":23539,"internal_node_id":"0.0-0.0"},{"success":true,"trial_type":"fullscreen","trial_index":1,"time_elapsed":27712,"internal_node_id":"0.0-1.0"},{"rt":1829808.2000000477,"responses":"{\"Nombres\":\"Maybi Abigail\",\"Apellidos\":\"Tandaypan Sanchez\",\"Edad\":\"21\",\"Sexo\":\"mujer\",\"Curso\":\"101\",\"Colegio\":\"Andres Bello\",\"Contacto\":\"tandaypansanchez29\"}","trial_type":"survey-text","trial_index":2,"time_elapsed":1857537,"internal_node_id":"0.0-2.0"},{"success":true,"timeout":false,"failed_images":[],"failed_audio":[],"failed_video":[],"trial_type":"preload","trial_index":3,"time_elapsed":1875827,"internal_node_id":"0.0-3.0"},{"rt":122524,"stimulus":"<h1 style:\"margin-top: 5%;\">Ejercicios de Comprensión de Lectura de la Universidad de Chile</h1><p style=\"font-size: 120%;\">En esta actividad, debes responder 20 preguntas de selección múltiple. Cada pregunta presenta 5 respuestas alternativas, pero sólo una de ellas es correcta. Por lo tanto, debes escoger una sola alternativa para cada pregunta. Además, debes reportar qué tan seguro(a) estás de la respuesta que das, con un:</p><ol style=\"font-size: 120%;text-align:left;margin-left: 40%;\"><li>No estoy seguro(a) para nada</li><li>No estoy muy seguro(a)</li><li>Estoy bastante seguro(a)</li><li>Estoy totalmente seguro(a)</li></ol><p style=\"font-size: 120%;\">Por favor lee bien los enunciados antes de responder. ¡Éxito!</p>","response":0,"trial_type":"html-button-response","trial_index":4,"time_elapsed":1998355,"internal_node_id":"0.0-4.0"},{"rt":124653.19999992847,"responses":"{\"pregunta17\":\"b) El TLC causará una completa transformación de la economía chilena.\"}","question_order":"[0]","trial_type":"survey-multi-choice","trial_index":5,"time_elapsed":2123014,"internal_node_id":"0.0-5.0-0.0"},{"rt":4637.799999952316,"response":{"pregunta17 likert":2},"question_order":[0],"trial_type":"survey-likert","trial_index":6,"time_elapsed":2127659,"internal_node_id":"0.0-5.0-1.0"},{"rt":159620.80000007153,"responses":"{\"pregunta15\":\"c) La publicidad es dañina para sus receptores.\"}","question_order":"[0]","trial_type":"survey-multi-choice","trial_index":7,"time_elapsed":2287285,"internal_node_id":"0.0-5.0-2.0"},{"rt":2996.5,"response":{"pregunta15 likert":3},"question_order":[0],"trial_type":"survey-likert","trial_index":8,"time_elapsed":2290287,"internal_node_id":"0.0-5.0-3.0"},{"rt":48871.299999952316,"responses":"{\"pregunta11\":\"d) el mejor emperador es el que está muerto.\"}","question_order":"[0]","trial_type":"survey-multi-choice","trial_index":9,"time_elapsed":2339163,"internal_node_id":"0.0-5.0-4.0"},{"rt":1979.8999999761581,"response":{"pregunta11 likert":3},"question_order":[0],"trial_type":"survey-likert","trial_index":10,"time_elapsed":2341147,"internal_node_id":"0.0-5.0-5.0"},{"rt":120384.60000002384,"responses":"{\"pregunta20\":\"e) la muerte es distinta en las grandes ciudades.\"}","question_order":"[0]","trial_type":"survey-multi-choice","trial_index":11,"time_elapsed":2461537,"internal_node_id":"0.0-5.0-6.0"},{"rt":2967.0999999046326,"response":{"pregunta20 likert":2},"question_order":[0],"trial_type":"survey-likert","trial_index":12,"time_elapsed":2464509,"internal_node_id":"0.0-5.0-7.0"},{"rt":89963.79999995232,"responses":"{\"pregunta18\":\"a) Se necesita un marco legal para delimitar lo público y lo privado en materia informativa.\"}","question_order":"[0]","trial_type":"survey-multi-choice","trial_index":13,"time_elapsed":2554478,"internal_node_id":"0.0-5.0-8.0"},{"rt":1870.7000000476837,"response":{"pregunta18 likert":3},"question_order":[0],"trial_type":"survey-likert","trial_index":14,"time_elapsed":2556354,"internal_node_id":"0.0-5.0-9.0"},{"rt":104462,"responses":"{\"pregunta3\":\"b) Los momentos triviales de los viajes, en la escritura se vuelven significativos.\"}","question_order":"[0]","trial_type":"survey-multi-choice","trial_index":15,"time_elapsed":2660822,"internal_node_id":"0.0-5.0-10.0"},{"rt":2934.7999999523163,"response":{"pregunta3 likert":3},"question_order":[0],"trial_type":"survey-likert","trial_index":16,"time_elapsed":2663762,"internal_node_id":"0.0-5.0-11.0"},{"rt":540587.2000000477,"responses":"{\"pregunta19\":\"a) el jardinero estará muerto al día siguiente.\"}","question_order":"[0]","trial_type":"survey-multi-choice","trial_index":17,"time_elapsed":3204355,"internal_node_id":"0.0-5.0-12.0"},{"rt":2906.100000023842,"response":{"pregunta19 likert":3},"question_order":[0],"trial_type":"survey-likert","trial_index":18,"time_elapsed":3207267,"internal_node_id":"0.0-5.0-13.0"},{"rt":91989.60000002384,"responses":"{\"pregunta10\":\"d) Al premio merecido después de tantos esfuerzos.\"}","question_order":"[0]","trial_type":"survey-multi-choice","trial_index":19,"time_elapsed":3299262,"internal_node_id":"0.0-5.0-14.0"},{"rt":1897.9000000953674,"response":{"pregunta10 likert":3},"question_order":[0],"trial_type":"survey-likert","trial_index":20,"time_elapsed":3301164,"internal_node_id":"0.0-5.0-15.0"},{"rt":136931.39999997616,"responses":"{\"pregunta14\":\"a) A la negligencia de la empresa que los traía a Chile.\"}","question_order":"[0]","trial_type":"survey-multi-choice","trial_index":21,"time_elapsed":3438100,"internal_node_id":"0.0-5.0-16.0"},{"rt":1783.9000000953674,"response":{"pregunta14 likert":3},"question_order":[0],"trial_type":"survey-likert","trial_index":22,"time_elapsed":3439889,"internal_node_id":"0.0-5.0-17.0"},{"rt":603782.1000000238,"responses":"{\"pregunta12\":\"b) a partir de la manipulación del núcleo se han creado elementos químicos naturales.\"}","question_order":"[0]","trial_type":"survey-multi-choice","trial_index":23,"time_elapsed":4043681,"internal_node_id":"0.0-5.0-18.0"},{"rt":4722.099999904633,"response":{"pregunta12 likert":1},"question_order":[0],"trial_type":"survey-likert","trial_index":24,"time_elapsed":4048408,"internal_node_id":"0.0-5.0-19.0"},{"rt":161512.5,"responses":"{\"pregunta5\":\"d) Un asilo y un campo de concentración son instituciones similares.\"}","question_order":"[0]","trial_type":"survey-multi-choice","trial_index":25,"time_elapsed":4209926,"internal_node_id":"0.0-5.0-20.0"},{"rt":1611.7000000476837,"response":{"pregunta5 likert":2},"question_order":[0],"trial_type":"survey-likert","trial_index":26,"time_elapsed":4211544,"internal_node_id":"0.0-5.0-21.0"},{"rt":194812.80000007153,"responses":"{\"pregunta9\":\"b) Revivir un periodo histórico.\"}","question_order":"[0]","trial_type":"survey-multi-choice","trial_index":27,"time_elapsed":4406362,"internal_node_id":"0.0-5.0-22.0"},{"rt":1543.8999999761581,"response":{"pregunta9 likert":3},"question_order":[0],"trial_type":"survey-likert","trial_index":28,"time_elapsed":4407911,"internal_node_id":"0.0-5.0-23.0"},{"rt":1570129.5,"responses":"{\"pregunta8\":\"c) Provocar el deseo de la adquisición vertiginosa.\"}","question_order":"[0]","trial_type":"survey-multi-choice","trial_index":29,"time_elapsed":5978045,"internal_node_id":"0.0-5.0-24.0"},{"rt":2951.2000000476837,"response":{"pregunta8 likert":1},"question_order":[0],"trial_type":"survey-likert","trial_index":30,"time_elapsed":5981002,"internal_node_id":"0.0-5.0-25.0"},{"rt":1240005.3000000715,"responses":"{\"pregunta7\":\"d) religiosos y precavidos.\"}","question_order":"[0]","trial_type":"survey-multi-choice","trial_index":31,"time_elapsed":7221018,"internal_node_id":"0.0-5.0-26.0"},{"rt":3324.399999976158,"response":{"pregunta7 likert":1},"question_order":[0],"trial_type":"survey-likert","trial_index":32,"time_elapsed":7224356,"internal_node_id":"0.0-5.0-27.0"},{"rt":827264.2999999523,"responses":"{\"pregunta1\":\"c) Manifiestan la importancia de que el personaje tenga independencia en el relato.\"}","question_order":"[0]","trial_type":"survey-multi-choice","trial_index":33,"time_elapsed":8051627,"internal_node_id":"0.0-5.0-28.0"},{"rt":1894.6000000238419,"response":{"pregunta1 likert":3},"question_order":[0],"trial_type":"survey-likert","trial_index":34,"time_elapsed":8053532,"internal_node_id":"0.0-5.0-29.0"},{"rt":6159494.3000000715,"responses":"{\"pregunta4\":\"d) Orientar la opción estética de un grupo de personas en lo que se refiere a la decoración de interiores.\"}","question_order":"[0]","trial_type":"survey-multi-choice","trial_index":35,"time_elapsed":14213037,"internal_node_id":"0.0-5.0-30.0"},{"rt":2579.8000000715256,"response":{"pregunta4 likert":0},"question_order":[0],"trial_type":"survey-likert","trial_index":36,"time_elapsed":14215632,"internal_node_id":"0.0-5.0-31.0"},{"rt":2680776.5999999046,"responses":"{\"pregunta13\":\"e) Bomberos debería tener acceso a un seguro médico, al que pueda recurrir en caso de accidente.\"}","question_order":"[0]","trial_type":"survey-multi-choice","trial_index":37,"time_elapsed":16896409,"internal_node_id":"0.0-5.0-32.0"},{"rt":3474.1999999284744,"response":{"pregunta13 likert":3},"question_order":[0],"trial_type":"survey-likert","trial_index":38,"time_elapsed":16899907,"internal_node_id":"0.0-5.0-33.0"},{"rt":239493.20000004768,"responses":"{\"pregunta2\":\"e) A la relación entre hechos capitales y parámetros del pensamiento.\"}","question_order":"[0]","trial_type":"survey-multi-choice","trial_index":39,"time_elapsed":17139408,"internal_node_id":"0.0-5.0-34.0"},{"rt":2018.6999999284744,"response":{"pregunta2 likert":3},"question_order":[0],"trial_type":"survey-likert","trial_index":40,"time_elapsed":17141432,"internal_node_id":"0.0-5.0-35.0"},{"rt":41586.300000071526,"responses":"{\"pregunta6\":\"e) la persistencia de la melancolía y la desesperanza.\"}","question_order":"[0]","trial_type":"survey-multi-choice","trial_index":41,"time_elapsed":17183024,"internal_node_id":"0.0-5.0-36.0"},{"rt":1788.8999999761581,"response":{"pregunta6 likert":3},"question_order":[0],"trial_type":"survey-likert","trial_index":42,"time_elapsed":17184818,"internal_node_id":"0.0-5.0-37.0"},{"rt":4455396.299999952,"responses":"{\"pregunta16\":\"d) llevan un control grupal de su embarazo.\"}","question_order":"[0]","trial_type":"survey-multi-choice","trial_index":43,"time_elapsed":21640224,"internal_node_id":"0.0-5.0-38.0"},{"rt":3530,"response":{"pregunta16 likert":1},"question_order":[0],"trial_type":"survey-likert","trial_index":44,"time_elapsed":21643763,"internal_node_id":"0.0-5.0-39.0"},{"rt":1907.6999999284744,"stimulus":"<p style=\"font-size: 120%\">Gracias por completar esta etapa del estudio. Ahora te invitamos a responder el cuestionario.<br><br></p>","response":0,"trial_type":"html-button-response","trial_index":45,"time_elapsed":21645690,"internal_node_id":"0.0-6.0"},{"rt":2735.6999999284744,"stimulus":"<h1 style=\"margin-top: 5%\">Cuestionario para la Evaluación de Metas Académicas</h1><p style=\"font-size: 120%; margin-left: 3%; margin-top: 5%\">Este es un cuestionario que permite conocer cuáles son los principales motivos por los que los estudiantes se esfuerzan en su trabajo académico. A continuación, se te presentarán una serie de afirmaciones acerca de los motivos que puedes tener para estudiar.<br>Te pedimos que contestes a dichas afirmaciones reflexionando sobre el contenido de cada una de ellas, que, aunque te parezcan semejantes, en realidad, no lo son.<br>NO HAY RESPUESTAS CORRECTAS o INCORRECTAS, sólo queremos que respondas con la mayor precisión y sinceridad posible a las preguntas que se plantean.","response":0,"trial_type":"html-button-response","trial_index":46,"time_elapsed":21648429,"internal_node_id":"0.0-7.0"},{"rt":75407.5,"response":{"Metas cuestionario pregunta1":4,"Metas cuestionario pregunta2":4,"Metas cuestionario pregunta3":4,"Metas cuestionario pregunta4":3,"Metas cuestionario pregunta5":4,"Metas cuestionario pregunta6":3,"Metas cuestionario pregunta7":4,"Metas cuestionario pregunta8":3,"Metas cuestionario pregunta9":3,"Metas cuestionario pregunta10":2,"Metas cuestionario pregunta11":1,"Metas cuestionario pregunta12":2,"Metas cuestionario pregunta13":3,"Metas cuestionario pregunta14":1,"Metas cuestionario pregunta15":4,"Metas cuestionario pregunta16":4,"Metas cuestionario pregunta17":4,"Metas cuestionario pregunta18":4,"Metas cuestionario pregunta19":4,"Metas cuestionario pregunta20":4},"question_order":[0,1,2,3,4,5,6,7,8,9,10,11,12,13,14,15,16,17,18,19],"trial_type":"survey-likert","trial_index":47,"time_elapsed":21723858,"internal_node_id":"0.0-8.0"}]