[{"rt":97259.79999995232,"stimulus":"<h1 style=\"color:red; margin-top: 3%;\">¡Bienvenido(a)!</h1><p style=\"text-align:left; justify-content:space-between; margin-right: 5%; margin-left: 5%; margin-top: 5%\"> Antes de empezar el estudio, necesitamos que nos confirmes que estás de acuerdo con participar. Recuerda que tu participación es 100% voluntaria y que lo único que te pedimos es responder lo mejor que puedas. Recuerda también que el estudio incluye:</p><ol style=\"text-align:left; justify-content:space-between; margin-right: 5%; margin-left: 5%;\"><li> un ejercicio de resolución de preguntas de selección múltiple (30’),</li><li>un cuestionario breve (5’),</li><li>un juego muy breve (3’),</li></ol><p style=\"text-align:left; justify-content:space-between; margin-right: 5%; margin-left: 5%;\">Si quieres participar, haz clic en “Acepto” luego de leer lo siguiente:<br></p><p style=\"text-align:left; justify-content:space-between; margin-right: 5%; margin-left: 5%;\">Acepto participar en el estudio “Estrategias de lectura y resolución de preguntas de selección múltiple”, en los términos aquí señalados:<br></p><p style=\"text-align:left; justify-content:space-between; margin-right: 5%; margin-left: 5%;\"><a href=\"http://ciae.uchile.cl/download.php?file=noticias/Asentimiento.pdf\" target=\"_blank\">Link a la hoja de información del Consentimiento.</a></p><p style=\"text-align:left; justify-content:space-between; margin-right: 5%; margin-left: 5%;\">Declaro que he leído (o se me ha leído) y (he) comprendido, las condiciones de mi participación en este estudio. He tenido la oportunidad de hacer preguntas y éstas han sido respondidas. No tengo dudas al respecto.</p>","response":0,"condicion_MCQ":2,"condicion_JUEGO":62,"condicion_INTER":14,"numero_participante":62,"numero_version":2,"dimx":1280,"dimy":720,"color_profundidad":24,"pixel_profundidad":24,"Browser":"Google Chrome","dia":22,"mes":5,"hora":14,"minuto":54,"segundo":43,"trial_type":"html-button-response","trial_index":0,"time_elapsed":97262,"internal_node_id":"0.0-0.0"},{"success":true,"trial_type":"fullscreen","trial_index":1,"time_elapsed":102658,"internal_node_id":"0.0-1.0"},{"rt":54618.199999928474,"responses":"{\"Nombres\":\"PAMELA CAROLINA\",\"Apellidos\":\"GRADOS PAREDES\",\"Edad\":\"18\",\"Sexo\":\"MUJER\",\"Curso\":\"NEUROBIOLOGÍA\",\"Colegio\":\"ANDRES BELLO\",\"Contacto\":\"pamela.pa2607@gmail.com\"}","trial_type":"survey-text","trial_index":2,"time_elapsed":157295,"internal_node_id":"0.0-2.0"},{"success":true,"timeout":false,"failed_images":[],"failed_audio":[],"failed_video":[],"trial_type":"preload","trial_index":3,"time_elapsed":158749,"internal_node_id":"0.0-3.0"},{"rt":18193.899999976158,"stimulus":"<h1 style:\"margin-top: 5%;\">Ejercicios de Comprensión de Lectura de la Universidad de Chile</h1><p style=\"font-size: 120%;\">En esta actividad, debes responder 20 preguntas de selección múltiple. Cada pregunta presenta 5 respuestas alternativas, pero sólo una de ellas es correcta. Por lo tanto, debes escoger una sola alternativa para cada pregunta. Además, debes reportar qué tan seguro(a) estás de la respuesta que das, con un:</p><ol style=\"font-size: 120%;text-align:left;margin-left: 40%;\"><li>No estoy seguro(a) para nada</li><li>No estoy muy seguro(a)</li><li>Estoy bastante seguro(a)</li><li>Estoy totalmente seguro(a)</li></ol><p style=\"font-size: 120%;\">Por favor lee bien los enunciados antes de responder. ¡Éxito!</p>","response":0,"trial_type":"html-button-response","trial_index":4,"time_elapsed":176944,"internal_node_id":"0.0-4.0"},{"rt":59793.800000071526,"responses":"{\"pregunta11\":\"c) el mejor emperador es el que está muerto.\"}","question_order":"[0]","trial_type":"survey-multi-choice","trial_index":5,"time_elapsed":236741,"internal_node_id":"0.0-5.0-0.0"},{"rt":5608.100000023842,"response":{"pregunta11 likert":2},"question_order":[0],"trial_type":"survey-likert","trial_index":6,"time_elapsed":242356,"internal_node_id":"0.0-5.0-1.0"},{"rt":100491.79999995232,"responses":"{\"pregunta2\":\"d) A la relación entre sociedad y constitución social.\"}","question_order":"[0]","trial_type":"survey-multi-choice","trial_index":7,"time_elapsed":342854,"internal_node_id":"0.0-5.0-2.0"},{"rt":1885.7999999523163,"response":{"pregunta2 likert":1},"question_order":[0],"trial_type":"survey-likert","trial_index":8,"time_elapsed":344747,"internal_node_id":"0.0-5.0-3.0"},{"rt":120296,"responses":"{\"pregunta8\":\"c) Provocar el deseo de la adquisición vertiginosa.\"}","question_order":"[0]","trial_type":"survey-multi-choice","trial_index":9,"time_elapsed":465048,"internal_node_id":"0.0-5.0-4.0"},{"rt":1708.8000000715256,"response":{"pregunta8 likert":2},"question_order":[0],"trial_type":"survey-likert","trial_index":10,"time_elapsed":466764,"internal_node_id":"0.0-5.0-5.0"},{"rt":50849,"responses":"{\"pregunta20\":\"a) para el mexicano, la muerte es cotidiana.\"}","question_order":"[0]","trial_type":"survey-multi-choice","trial_index":11,"time_elapsed":517620,"internal_node_id":"0.0-5.0-6.0"},{"rt":1620,"response":{"pregunta20 likert":2},"question_order":[0],"trial_type":"survey-likert","trial_index":12,"time_elapsed":519248,"internal_node_id":"0.0-5.0-7.0"},{"rt":82096.79999995232,"responses":"{\"pregunta10\":\"c) Al premio merecido después de tantos esfuerzos.\"}","question_order":"[0]","trial_type":"survey-multi-choice","trial_index":13,"time_elapsed":601355,"internal_node_id":"0.0-5.0-8.0"},{"rt":1426.7999999523163,"response":{"pregunta10 likert":3},"question_order":[0],"trial_type":"survey-likert","trial_index":14,"time_elapsed":602788,"internal_node_id":"0.0-5.0-9.0"},{"rt":83510.19999992847,"responses":"{\"pregunta7\":\"e) religiosos y precavidos.\"}","question_order":"[0]","trial_type":"survey-multi-choice","trial_index":15,"time_elapsed":686306,"internal_node_id":"0.0-5.0-10.0"},{"rt":978.8999999761581,"response":{"pregunta7 likert":2},"question_order":[0],"trial_type":"survey-likert","trial_index":16,"time_elapsed":687292,"internal_node_id":"0.0-5.0-11.0"},{"rt":63065.5,"responses":"{\"pregunta5\":\"b) El ser humano se comporta de acuerdo con las circunstancias.\"}","question_order":"[0]","trial_type":"survey-multi-choice","trial_index":17,"time_elapsed":750363,"internal_node_id":"0.0-5.0-12.0"},{"rt":1725.1000000238419,"response":{"pregunta5 likert":3},"question_order":[0],"trial_type":"survey-likert","trial_index":18,"time_elapsed":752097,"internal_node_id":"0.0-5.0-13.0"},{"rt":134980.29999995232,"responses":"{\"pregunta16\":\"a) llevan un control grupal de su embarazo.\"}","question_order":"[0]","trial_type":"survey-multi-choice","trial_index":19,"time_elapsed":887084,"internal_node_id":"0.0-5.0-14.0"},{"rt":2826.5999999046326,"response":{"pregunta16 likert":1},"question_order":[0],"trial_type":"survey-likert","trial_index":20,"time_elapsed":889917,"internal_node_id":"0.0-5.0-15.0"},{"rt":114453.60000002384,"responses":"{\"pregunta12\":\"b) todos los elementos químicos tienen más de noventa y dos protones en su núcleo.\"}","question_order":"[0]","trial_type":"survey-multi-choice","trial_index":21,"time_elapsed":1004379,"internal_node_id":"0.0-5.0-16.0"},{"rt":1196.6000000238419,"response":{"pregunta12 likert":1},"question_order":[0],"trial_type":"survey-likert","trial_index":22,"time_elapsed":1005583,"internal_node_id":"0.0-5.0-17.0"},{"rt":86942.60000002384,"responses":"{\"pregunta6\":\"b) preparar los recuerdos del mañana.\"}","question_order":"[0]","trial_type":"survey-multi-choice","trial_index":23,"time_elapsed":1092532,"internal_node_id":"0.0-5.0-18.0"},{"rt":1420.3999999761581,"response":{"pregunta6 likert":2},"question_order":[0],"trial_type":"survey-likert","trial_index":24,"time_elapsed":1093959,"internal_node_id":"0.0-5.0-19.0"},{"rt":92510.60000002384,"responses":"{\"pregunta1\":\"a) Aportan informaciones con las que se reconstruye el personaje dentro de un relato.\"}","question_order":"[0]","trial_type":"survey-multi-choice","trial_index":25,"time_elapsed":1186470,"internal_node_id":"0.0-5.0-20.0"},{"rt":1234.4000000953674,"response":{"pregunta1 likert":0},"question_order":[0],"trial_type":"survey-likert","trial_index":26,"time_elapsed":1187711,"internal_node_id":"0.0-5.0-21.0"},{"rt":73920.10000002384,"responses":"{\"pregunta18\":\"e) Se necesita un marco legal para delimitar lo público y lo privado en materia informativa.\"}","question_order":"[0]","trial_type":"survey-multi-choice","trial_index":27,"time_elapsed":1261643,"internal_node_id":"0.0-5.0-22.0"},{"rt":1447.1999999284744,"response":{"pregunta18 likert":2},"question_order":[0],"trial_type":"survey-likert","trial_index":28,"time_elapsed":1263097,"internal_node_id":"0.0-5.0-23.0"},{"rt":41272,"responses":"{\"pregunta17\":\"e) Nuestra economía vivirá un proceso de ajuste a la nueva realidad.\"}","question_order":"[0]","trial_type":"survey-multi-choice","trial_index":29,"time_elapsed":1304375,"internal_node_id":"0.0-5.0-24.0"},{"rt":1131.5,"response":{"pregunta17 likert":2},"question_order":[0],"trial_type":"survey-likert","trial_index":30,"time_elapsed":1305514,"internal_node_id":"0.0-5.0-25.0"},{"rt":79493.5,"responses":"{\"pregunta9\":\"c) Homenajear a quienes murieron.\"}","question_order":"[0]","trial_type":"survey-multi-choice","trial_index":31,"time_elapsed":1385014,"internal_node_id":"0.0-5.0-26.0"},{"rt":2342.5,"response":{"pregunta9 likert":2},"question_order":[0],"trial_type":"survey-likert","trial_index":32,"time_elapsed":1387364,"internal_node_id":"0.0-5.0-27.0"},{"rt":52185.5,"responses":"{\"pregunta14\":\"d) A la influencia de grupos que rechazaban su música.\"}","question_order":"[0]","trial_type":"survey-multi-choice","trial_index":33,"time_elapsed":1439556,"internal_node_id":"0.0-5.0-28.0"},{"rt":1034.1000000238419,"response":{"pregunta14 likert":2},"question_order":[0],"trial_type":"survey-likert","trial_index":34,"time_elapsed":1440597,"internal_node_id":"0.0-5.0-29.0"},{"rt":61524.60000002384,"responses":"{\"pregunta4\":\"a) Presentar positivamente las diversas tendencias del diseño de interiores a través de un comentario.\"}","question_order":"[0]","trial_type":"survey-multi-choice","trial_index":35,"time_elapsed":1502130,"internal_node_id":"0.0-5.0-30.0"},{"rt":1223.1000000238419,"response":{"pregunta4 likert":2},"question_order":[0],"trial_type":"survey-likert","trial_index":36,"time_elapsed":1503360,"internal_node_id":"0.0-5.0-31.0"},{"rt":55387.299999952316,"responses":"{\"pregunta13\":\"d) Bomberos debería tener acceso a un seguro médico, al que pueda recurrir en caso de accidente.\"}","question_order":"[0]","trial_type":"survey-multi-choice","trial_index":37,"time_elapsed":1558752,"internal_node_id":"0.0-5.0-32.0"},{"rt":1138.1999999284744,"response":{"pregunta13 likert":2},"question_order":[0],"trial_type":"survey-likert","trial_index":38,"time_elapsed":1559897,"internal_node_id":"0.0-5.0-33.0"},{"rt":82139.60000002384,"responses":"{\"pregunta3\":\"a) Los momentos triviales de los viajes, en la escritura se vuelven significativos.\"}","question_order":"[0]","trial_type":"survey-multi-choice","trial_index":39,"time_elapsed":1642044,"internal_node_id":"0.0-5.0-34.0"},{"rt":1278.7999999523163,"response":{"pregunta3 likert":2},"question_order":[0],"trial_type":"survey-likert","trial_index":40,"time_elapsed":1643329,"internal_node_id":"0.0-5.0-35.0"},{"rt":80299.10000002384,"responses":"{\"pregunta15\":\"d) El receptor es habitualmente pasivo frente a la publicidad.\"}","question_order":"[0]","trial_type":"survey-multi-choice","trial_index":41,"time_elapsed":1723635,"internal_node_id":"0.0-5.0-36.0"},{"rt":1125.7999999523163,"response":{"pregunta15 likert":1},"question_order":[0],"trial_type":"survey-likert","trial_index":42,"time_elapsed":1724768,"internal_node_id":"0.0-5.0-37.0"},{"rt":51580.700000047684,"responses":"{\"pregunta19\":\"e) el jardinero estará muerto al día siguiente.\"}","question_order":"[0]","trial_type":"survey-multi-choice","trial_index":43,"time_elapsed":1776355,"internal_node_id":"0.0-5.0-38.0"},{"rt":1238.5,"response":{"pregunta19 likert":2},"question_order":[0],"trial_type":"survey-likert","trial_index":44,"time_elapsed":1777601,"internal_node_id":"0.0-5.0-39.0"},{"rt":2727.7000000476837,"stimulus":"<p style=\"font-size: 120%\">Gracias por completar esta etapa del estudio. Ahora te invitamos a responder el cuestionario.<br><br></p>","response":0,"trial_type":"html-button-response","trial_index":45,"time_elapsed":1780339,"internal_node_id":"0.0-6.0"},{"rt":22225,"stimulus":"<h1 style=\"margin-top: 5%\">Cuestionario para la Evaluación de Metas Académicas</h1><p style=\"font-size: 120%; margin-left: 3%; margin-top: 5%\">Este es un cuestionario que permite conocer cuáles son los principales motivos por los que los estudiantes se esfuerzan en su trabajo académico. A continuación, se te presentarán una serie de afirmaciones acerca de los motivos que puedes tener para estudiar.<br>Te pedimos que contestes a dichas afirmaciones reflexionando sobre el contenido de cada una de ellas, que, aunque te parezcan semejantes, en realidad, no lo son.<br>NO HAY RESPUESTAS CORRECTAS o INCORRECTAS, sólo queremos que respondas con la mayor precisión y sinceridad posible a las preguntas que se plantean.","response":0,"trial_type":"html-button-response","trial_index":46,"time_elapsed":1802566,"internal_node_id":"0.0-7.0"},{"rt":83274.70000004768,"response":{"Metas cuestionario pregunta1":2,"Metas cuestionario pregunta2":2,"Metas cuestionario pregunta3":3,"Metas cuestionario pregunta4":2,"Metas cuestionario pregunta5":4,"Metas cuestionario pregunta6":3,"Metas cuestionario pregunta7":2,"Metas cuestionario pregunta8":3,"Metas cuestionario pregunta9":2,"Metas cuestionario pregunta10":0,"Metas cuestionario pregunta11":3,"Metas cuestionario pregunta12":3,"Metas cuestionario pregunta13":1,"Metas cuestionario pregunta14":2,"Metas cuestionario pregunta15":4,"Metas cuestionario pregunta16":4,"Metas cuestionario pregunta17":4,"Metas cuestionario pregunta18":4,"Metas cuestionario pregunta19":4,"Metas cuestionario pregunta20":4},"question_order":[0,1,2,3,4,5,6,7,8,9,10,11,12,13,14,15,16,17,18,19],"trial_type":"survey-likert","trial_index":47,"time_elapsed":1885849,"internal_node_id":"0.0-8.0"},{"rt":906.5,"stimulus":"<p style=\"font-size: 120%\">Gracias por responder el cuestionario. Ahora te invitamos a seguir con el juego, que es muy breve.<br><br></p>","response":0,"trial_type":"html-button-response","trial_index":48,"time_elapsed":1886766,"internal_node_id":"0.0-9.0"},{"rt":44357.89999997616,"stimulus":"<h1>Juego</h1><p style=\"font-size: 120%;\">A continuación se te presentarán 16 pequeñas historias.<br>Por favor lee el texto presentado en cada una de ellas y luego haz click en el objeto de tu elección.<br>Si estás listo(a),<span style=\"color:red;\"> haz click en \"comenzar\"</span>.</p>","response":0,"trial_type":"html-button-response","trial_index":49,"time_elapsed":1931124,"internal_node_id":"0.0-10.0"},{"rt":11518.5,"grid":[[1,1,1,1],[1,1,1,1],[1,1,1,1],[1,1,1,1],[1,1,1,1],[1,1,1,1],[1,1,1,1],[1,1,1,1],[1,1,1,1],[1,1,1,1],[1,1,1,1]],"target":[0,0],"response":[9,2],"correct":false,"juego":15,"trial_type":"serial-reaction-time-mouse","trial_index":50,"time_elapsed":1942647,"internal_node_id":"0.0-11.0-0.0"},{"rt":11371.5,"grid":[[1,1,1,1,1]],"target":[0,0],"response":[0,0],"correct":true,"juego":12,"trial_type":"serial-reaction-time-mouse","trial_index":51,"time_elapsed":1954020,"internal_node_id":"0.0-11.0-1.0"},{"rt":23786.700000047684,"grid":[[1,1,1],[1,1,1],[1,1,1],[1,1,1],[1,1,1],[1,1,1],[1,1,1],[1,1,1],[1,1,1],[1,1,1],[1,1,1]],"target":[0,0],"response":[9,1],"correct":false,"juego":13,"trial_type":"serial-reaction-time-mouse","trial_index":52,"time_elapsed":1977809,"internal_node_id":"0.0-11.0-2.0"},{"rt":18783.399999976158,"grid":[[1,1,1],[1,1,1],[1,1,1],[1,1,1],[1,1,1],[1,1,1],[1,1,1],[1,1,1],[1,1,1],[1,1,1],[1,1,1]],"target":[0,0],"response":[1,0],"correct":false,"juego":10,"trial_type":"serial-reaction-time-mouse","trial_index":53,"time_elapsed":1996596,"internal_node_id":"0.0-11.0-3.0"},{"rt":6924.200000047684,"grid":[[1,1,1,1,1]],"target":[0,0],"response":[0,2],"correct":false,"juego":2,"trial_type":"serial-reaction-time-mouse","trial_index":54,"time_elapsed":2003521,"internal_node_id":"0.0-11.0-4.0"},{"rt":8358.299999952316,"grid":[[1,1,1,1,1]],"target":[0,0],"response":[0,2],"correct":false,"juego":1,"trial_type":"serial-reaction-time-mouse","trial_index":55,"time_elapsed":2011881,"internal_node_id":"0.0-11.0-5.0"},{"rt":8124.200000047684,"grid":[[1,1,1,1,1]],"target":[0,0],"response":[0,4],"correct":false,"juego":7,"trial_type":"serial-reaction-time-mouse","trial_index":56,"time_elapsed":2020007,"internal_node_id":"0.0-11.0-6.0"},{"rt":4606,"grid":[[1,1,1,1,1]],"target":[0,0],"response":[0,0],"correct":true,"juego":3,"trial_type":"serial-reaction-time-mouse","trial_index":57,"time_elapsed":2024614,"internal_node_id":"0.0-11.0-7.0"},{"rt":3113.0999999046326,"grid":[[1],[1],[1],[1],[1]],"target":[0,0],"response":[2,0],"correct":false,"juego":4,"trial_type":"serial-reaction-time-mouse","trial_index":58,"time_elapsed":2027729,"internal_node_id":"0.0-11.0-8.0"},{"rt":5679.300000071526,"grid":[[1,1,1],[1,1,1],[1,1,1],[1,1,1],[1,1,1],[1,1,1],[1,1,1],[1,1,1],[1,1,1],[1,1,1],[1,1,1]],"target":[0,0],"response":[5,1],"correct":false,"juego":6,"trial_type":"serial-reaction-time-mouse","trial_index":59,"time_elapsed":2033411,"internal_node_id":"0.0-11.0-9.0"},{"rt":3807.8000000715256,"grid":[[1,1,1],[1,1,1],[1,1,1],[1,1,1],[1,1,1],[1,1,1],[1,1,1],[1,1,1],[1,1,1],[1,1,1],[1,1,1]],"target":[0,0],"response":[3,1],"correct":false,"juego":5,"trial_type":"serial-reaction-time-mouse","trial_index":60,"time_elapsed":2037221,"internal_node_id":"0.0-11.0-10.0"},{"rt":13609,"grid":[[1,1,1,1,1]],"target":[0,0],"response":[0,0],"correct":true,"juego":11,"trial_type":"serial-reaction-time-mouse","trial_index":61,"time_elapsed":2050832,"internal_node_id":"0.0-11.0-11.0"},{"rt":12070.5,"grid":[[1,1,1,1,1]],"target":[0,0],"response":[0,4],"correct":false,"juego":9,"trial_type":"serial-reaction-time-mouse","trial_index":62,"time_elapsed":2062903,"internal_node_id":"0.0-11.0-12.0"},{"rt":8297.300000071526,"grid":[[1,1,1,1],[1,1,1,1],[1,1,1,1],[1,1,1,1],[1,1,1,1],[1,1,1,1],[1,1,1,1],[1,1,1,1],[1,1,1,1],[1,1,1,1],[1,1,1,1]],"target":[0,0],"response":[1,2],"correct":false,"juego":14,"trial_type":"serial-reaction-time-mouse","trial_index":63,"time_elapsed":2071204,"internal_node_id":"0.0-11.0-13.0"},{"rt":3029,"grid":[[1,1,1,1,1]],"target":[0,0],"response":[0,1],"correct":false,"juego":8,"trial_type":"serial-reaction-time-mouse","trial_index":64,"time_elapsed":2074234,"internal_node_id":"0.0-11.0-14.0"},{"rt":10674.200000047684,"stimulus":"<h1>Último juego</h1><p style=\"font-size: 130%;\">Tienes <span style=\"color:red\">35</span> segundos para recordar los pares de palabras que aparecerán a continuación. <br></p>","response":0,"trial_type":"html-button-response","trial_index":65,"time_elapsed":2084912,"internal_node_id":"0.0-12.0"},{"animation_sequence":[{"stimulus":"imagen_juego_interferencia.jpg","time":520.1000000238419},{"stimulus":"imagen_juego_interferencia.jpg","time":1001.3999999761581},{"stimulus":"imagen_juego_interferencia.jpg","time":1515.3999999761581},{"stimulus":"imagen_juego_interferencia.jpg","time":2002.2000000476837},{"stimulus":"imagen_juego_interferencia.jpg","time":2503.2000000476837},{"stimulus":"imagen_juego_interferencia.jpg","time":3010.5},{"stimulus":"imagen_juego_interferencia.jpg","time":3515.3000000715256},{"stimulus":"imagen_juego_interferencia.jpg","time":4010.8000000715256},{"stimulus":"imagen_juego_interferencia.jpg","time":4507.300000071526},{"stimulus":"imagen_juego_interferencia.jpg","time":5009},{"stimulus":"imagen_juego_interferencia.jpg","time":5512.5},{"stimulus":"imagen_juego_interferencia.jpg","time":6015},{"stimulus":"imagen_juego_interferencia.jpg","time":6510.700000047684},{"stimulus":"imagen_juego_interferencia.jpg","time":7007},{"stimulus":"imagen_juego_interferencia.jpg","time":7514.100000023842},{"stimulus":"imagen_juego_interferencia.jpg","time":8013.899999976158},{"stimulus":"imagen_juego_interferencia.jpg","time":8510.5},{"stimulus":"imagen_juego_interferencia.jpg","time":9006.600000023842},{"stimulus":"imagen_juego_interferencia.jpg","time":9513.5},{"stimulus":"imagen_juego_interferencia.jpg","time":10016.800000071526},{"stimulus":"imagen_juego_interferencia.jpg","time":10508.100000023842},{"stimulus":"imagen_juego_interferencia.jpg","time":11016},{"stimulus":"imagen_juego_interferencia.jpg","time":11504.700000047684},{"stimulus":"imagen_juego_interferencia.jpg","time":12015.200000047684},{"stimulus":"imagen_juego_interferencia.jpg","time":12503.600000023842},{"stimulus":"imagen_juego_interferencia.jpg","time":13001.800000071526},{"stimulus":"imagen_juego_interferencia.jpg","time":13504.700000047684},{"stimulus":"imagen_juego_interferencia.jpg","time":14013.899999976158},{"stimulus":"imagen_juego_interferencia.jpg","time":14515.200000047684},{"stimulus":"imagen_juego_interferencia.jpg","time":15001},{"stimulus":"imagen_juego_interferencia.jpg","time":15515.200000047684},{"stimulus":"imagen_juego_interferencia.jpg","time":16016.600000023842},{"stimulus":"imagen_juego_interferencia.jpg","time":16514.899999976158},{"stimulus":"imagen_juego_interferencia.jpg","time":17005.899999976158},{"stimulus":"imagen_juego_interferencia.jpg","time":17509.5},{"stimulus":"imagen_juego_interferencia.jpg","time":18006.800000071526},{"stimulus":"imagen_juego_interferencia.jpg","time":18503.899999976158},{"stimulus":"imagen_juego_interferencia.jpg","time":19005},{"stimulus":"imagen_juego_interferencia.jpg","time":19514.899999976158},{"stimulus":"imagen_juego_interferencia.jpg","time":20011},{"stimulus":"imagen_juego_interferencia.jpg","time":20506.399999976158},{"stimulus":"imagen_juego_interferencia.jpg","time":21014.899999976158},{"stimulus":"imagen_juego_interferencia.jpg","time":21503.399999976158},{"stimulus":"imagen_juego_interferencia.jpg","time":22015.200000047684},{"stimulus":"imagen_juego_interferencia.jpg","time":22504.200000047684},{"stimulus":"imagen_juego_interferencia.jpg","time":23008.300000071526},{"stimulus":"imagen_juego_interferencia.jpg","time":23514.5},{"stimulus":"imagen_juego_interferencia.jpg","time":24010.700000047684},{"stimulus":"imagen_juego_interferencia.jpg","time":24509.700000047684},{"stimulus":"imagen_juego_interferencia.jpg","time":25014.399999976158},{"stimulus":"imagen_juego_interferencia.jpg","time":25504.300000071526},{"stimulus":"imagen_juego_interferencia.jpg","time":26013.899999976158},{"stimulus":"imagen_juego_interferencia.jpg","time":26503.700000047684},{"stimulus":"imagen_juego_interferencia.jpg","time":27006.300000071526},{"stimulus":"imagen_juego_interferencia.jpg","time":27513},{"stimulus":"imagen_juego_interferencia.jpg","time":28007.600000023842},{"stimulus":"imagen_juego_interferencia.jpg","time":28507.600000023842},{"stimulus":"imagen_juego_interferencia.jpg","time":29003.800000071526},{"stimulus":"imagen_juego_interferencia.jpg","time":29512.300000071526},{"stimulus":"imagen_juego_interferencia.jpg","time":30007.200000047684},{"stimulus":"imagen_juego_interferencia.jpg","time":30504.5},{"stimulus":"imagen_juego_interferencia.jpg","time":31005.300000071526},{"stimulus":"imagen_juego_interferencia.jpg","time":31513.300000071526},{"stimulus":"imagen_juego_interferencia.jpg","time":32006.399999976158},{"stimulus":"imagen_juego_interferencia.jpg","time":32504.700000047684},{"stimulus":"imagen_juego_interferencia.jpg","time":33008},{"stimulus":"imagen_juego_interferencia.jpg","time":33503},{"stimulus":"imagen_juego_interferencia.jpg","time":34003},{"stimulus":"imagen_juego_interferencia.jpg","time":34504.39999997616},{"stimulus":"imagen_juego_interferencia.jpg","time":35011.300000071526}],"response":[],"trial_type":"animation","trial_index":66,"time_elapsed":2120421,"internal_node_id":"0.0-13.0"},{"rt":14640.599999904633,"responses":"{\"pregunta interferencia4\":\"contador\"}","question_order":"[0]","trial_type":"survey-multi-choice-cuest","trial_index":67,"time_elapsed":2135063,"internal_node_id":"0.0-14.0-0.0"},{"rt":15977.899999976158,"responses":"{\"pregunta interferencia3\":\"aluminio\"}","question_order":"[0]","trial_type":"survey-multi-choice-cuest","trial_index":68,"time_elapsed":2151046,"internal_node_id":"0.0-14.0-1.0"},{"rt":9635.5,"responses":"{\"pregunta interferencia2\":\"saltamontes\"}","question_order":"[0]","trial_type":"survey-multi-choice-cuest","trial_index":69,"time_elapsed":2160688,"internal_node_id":"0.0-14.0-2.0"},{"rt":4761.5,"responses":"{\"pregunta interferencia1\":\"naranja\"}","question_order":"[0]","trial_type":"survey-multi-choice-cuest","trial_index":70,"time_elapsed":2165455,"internal_node_id":"0.0-14.0-3.0"},{"success":true,"trial_type":"fullscreen","trial_index":71,"time_elapsed":2166464,"internal_node_id":"0.0-15.0"}]