[{"rt":149335.09999999404,"stimulus":"<h1 style=\"color:red; margin-top: 3%;\">¡Bienvenido(a)!</h1><p style=\"text-align:left; justify-content:space-between; margin-right: 5%; margin-left: 5%; margin-top: 5%\"> Antes de empezar el estudio, necesitamos que nos confirmes que estás de acuerdo con participar. Recuerda que tu participación es 100% voluntaria y que lo único que te pedimos es responder lo mejor que puedas. Recuerda también que el estudio incluye:</p><ol style=\"text-align:left; justify-content:space-between; margin-right: 5%; margin-left: 5%;\"><li> un ejercicio de resolución de preguntas de selección múltiple (30’),</li><li>un cuestionario breve (5’),</li><li>un juego muy breve (3’),</li></ol><p style=\"text-align:left; justify-content:space-between; margin-right: 5%; margin-left: 5%;\">Si quieres participar, haz clic en “Acepto” luego de leer lo siguiente:<br></p><p style=\"text-align:left; justify-content:space-between; margin-right: 5%; margin-left: 5%;\">Acepto participar en el estudio “Estrategias de lectura y resolución de preguntas de selección múltiple”, en los términos aquí señalados:<br></p><p style=\"text-align:left; justify-content:space-between; margin-right: 5%; margin-left: 5%;\"><a href=\"http://ciae.uchile.cl/download.php?file=noticias/Asentimiento.pdf\" target=\"_blank\">Link a la hoja de información del Consentimiento.</a></p><p style=\"text-align:left; justify-content:space-between; margin-right: 5%; margin-left: 5%;\">Declaro que he leído (o se me ha leído) y (he) comprendido, las condiciones de mi participación en este estudio. He tenido la oportunidad de hacer preguntas y éstas han sido respondidas. No tengo dudas al respecto.</p>","response":0,"condicion_MCQ":8,"condicion_JUEGO":48,"condicion_INTER":24,"numero_participante":48,"numero_version":1,"dimx":1280,"dimy":720,"color_profundidad":24,"pixel_profundidad":24,"Browser":"Google Chrome","dia":19,"mes":5,"hora":18,"minuto":42,"segundo":17,"trial_type":"html-button-response","trial_index":0,"time_elapsed":149342,"internal_node_id":"0.0-0.0"},{"success":true,"trial_type":"fullscreen","trial_index":1,"time_elapsed":152463,"internal_node_id":"0.0-1.0"},{"rt":180156.40000000596,"responses":"{\"Nombres\":\"Daniela Irina\",\"Apellidos\":\"Robledo Hormazábal\",\"Edad\":\"29\",\"Sexo\":\"mujer\",\"Curso\":\"Sección 100\",\"Colegio\":\"Universidad Andres Bello\",\"Contacto\":\"d.robledohormazabal@unab.edu\"}","trial_type":"survey-text","trial_index":2,"time_elapsed":332639,"internal_node_id":"0.0-2.0"},{"success":true,"timeout":false,"failed_images":[],"failed_audio":[],"failed_video":[],"trial_type":"preload","trial_index":3,"time_elapsed":334285,"internal_node_id":"0.0-3.0"},{"rt":20033.29999998212,"stimulus":"<h1 style:\"margin-top: 5%;\">Ejercicios de Comprensión de Lectura de la Universidad de Chile</h1><p style=\"font-size: 120%;\">En esta actividad, debes responder 20 preguntas de selección múltiple. Cada pregunta presenta 5 respuestas alternativas, pero sólo una de ellas es correcta. Por lo tanto, debes escoger una sola alternativa para cada pregunta. Además, debes reportar qué tan seguro(a) estás de la respuesta que das, con un:</p><ol style=\"font-size: 120%;text-align:left;margin-left: 40%;\"><li>No estoy seguro(a) para nada</li><li>No estoy muy seguro(a)</li><li>Estoy bastante seguro(a)</li><li>Estoy totalmente seguro(a)</li></ol><p style=\"font-size: 120%;\">Por favor lee bien los enunciados antes de responder. ¡Éxito!</p>","response":0,"trial_type":"html-button-response","trial_index":4,"time_elapsed":354321,"internal_node_id":"0.0-4.0"},{"rt":81224.09999999404,"responses":"{\"pregunta2\":\"d) A la relación entre civilización y sociedad.\"}","question_order":"[0]","trial_type":"survey-multi-choice","trial_index":5,"time_elapsed":435549,"internal_node_id":"0.0-5.0-0.0"},{"rt":5896.799999982119,"response":{"pregunta2 likert":2},"question_order":[0],"trial_type":"survey-likert","trial_index":6,"time_elapsed":441450,"internal_node_id":"0.0-5.0-1.0"},{"rt":154908.40000000596,"responses":"{\"pregunta19\":\"b) el jardinero estará muerto al día siguiente.\"}","question_order":"[0]","trial_type":"survey-multi-choice","trial_index":7,"time_elapsed":596362,"internal_node_id":"0.0-5.0-2.0"},{"rt":2528.800000011921,"response":{"pregunta19 likert":1},"question_order":[0],"trial_type":"survey-likert","trial_index":8,"time_elapsed":598895,"internal_node_id":"0.0-5.0-3.0"},{"rt":189566,"responses":"{\"pregunta16\":\"a) sufren dolores de espalda.\"}","question_order":"[0]","trial_type":"survey-multi-choice","trial_index":9,"time_elapsed":788466,"internal_node_id":"0.0-5.0-4.0"},{"rt":3878.0999999940395,"response":{"pregunta16 likert":2},"question_order":[0],"trial_type":"survey-likert","trial_index":10,"time_elapsed":792347,"internal_node_id":"0.0-5.0-5.0"},{"rt":65068.19999998808,"responses":"{\"pregunta3\":\"b) La escritura plasma los mejores momentos de los viajes.\"}","question_order":"[0]","trial_type":"survey-multi-choice","trial_index":11,"time_elapsed":857424,"internal_node_id":"0.0-5.0-6.0"},{"rt":2510.399999976158,"response":{"pregunta3 likert":2},"question_order":[0],"trial_type":"survey-likert","trial_index":12,"time_elapsed":859936,"internal_node_id":"0.0-5.0-7.0"},{"rt":120735.30000001192,"responses":"{\"pregunta15\":\"c) La publicidad es dañina para sus receptores.\"}","question_order":"[0]","trial_type":"survey-multi-choice","trial_index":13,"time_elapsed":980675,"internal_node_id":"0.0-5.0-8.0"},{"rt":2488,"response":{"pregunta15 likert":1},"question_order":[0],"trial_type":"survey-likert","trial_index":14,"time_elapsed":983167,"internal_node_id":"0.0-5.0-9.0"},{"rt":57900.30000001192,"responses":"{\"pregunta17\":\"a) Nuestra economía vivirá un proceso de ajuste a la nueva realidad.\"}","question_order":"[0]","trial_type":"survey-multi-choice","trial_index":15,"time_elapsed":1041069,"internal_node_id":"0.0-5.0-10.0"},{"rt":3365.399999976158,"response":{"pregunta17 likert":2},"question_order":[0],"trial_type":"survey-likert","trial_index":16,"time_elapsed":1044437,"internal_node_id":"0.0-5.0-11.0"},{"rt":81580.59999999404,"responses":"{\"pregunta10\":\"e) Al premio merecido después de tantos esfuerzos.\"}","question_order":"[0]","trial_type":"survey-multi-choice","trial_index":17,"time_elapsed":1126022,"internal_node_id":"0.0-5.0-12.0"},{"rt":5556.5999999940395,"response":{"pregunta10 likert":2},"question_order":[0],"trial_type":"survey-likert","trial_index":18,"time_elapsed":1131582,"internal_node_id":"0.0-5.0-13.0"},{"rt":30843.29999998212,"responses":"{\"pregunta20\":\"b) para el mexicano, la muerte es cotidiana.\"}","question_order":"[0]","trial_type":"survey-multi-choice","trial_index":19,"time_elapsed":1162429,"internal_node_id":"0.0-5.0-14.0"},{"rt":3104.5,"response":{"pregunta20 likert":2},"question_order":[0],"trial_type":"survey-likert","trial_index":20,"time_elapsed":1165537,"internal_node_id":"0.0-5.0-15.0"},{"rt":62668.90000000596,"responses":"{\"pregunta11\":\"e) el mejor emperador es el que está muerto.\"}","question_order":"[0]","trial_type":"survey-multi-choice","trial_index":21,"time_elapsed":1228208,"internal_node_id":"0.0-5.0-16.0"},{"rt":2564.2999999821186,"response":{"pregunta11 likert":1},"question_order":[0],"trial_type":"survey-likert","trial_index":22,"time_elapsed":1230776,"internal_node_id":"0.0-5.0-17.0"},{"rt":42384.80000001192,"responses":"{\"pregunta8\":\"d) Provocar el deseo de la adquisición vertiginosa.\"}","question_order":"[0]","trial_type":"survey-multi-choice","trial_index":23,"time_elapsed":1273163,"internal_node_id":"0.0-5.0-18.0"},{"rt":3854.2999999821186,"response":{"pregunta8 likert":1},"question_order":[0],"trial_type":"survey-likert","trial_index":24,"time_elapsed":1277020,"internal_node_id":"0.0-5.0-19.0"},{"rt":125973.80000001192,"responses":"{\"pregunta5\":\"e) El concepto de normalidad es diferente para un psiquiatra que para nosotros.\"}","question_order":"[0]","trial_type":"survey-multi-choice","trial_index":25,"time_elapsed":1402997,"internal_node_id":"0.0-5.0-20.0"},{"rt":4104.0999999940395,"response":{"pregunta5 likert":1},"question_order":[0],"trial_type":"survey-likert","trial_index":26,"time_elapsed":1407103,"internal_node_id":"0.0-5.0-21.0"},{"rt":79206.80000001192,"responses":"{\"pregunta6\":\"c) una constante espera.\"}","question_order":"[0]","trial_type":"survey-multi-choice","trial_index":27,"time_elapsed":1486313,"internal_node_id":"0.0-5.0-22.0"},{"rt":2740.7000000178814,"response":{"pregunta6 likert":1},"question_order":[0],"trial_type":"survey-likert","trial_index":28,"time_elapsed":1489057,"internal_node_id":"0.0-5.0-23.0"},{"rt":108915.70000001788,"responses":"{\"pregunta1\":\"b) Aportan informaciones con las que se reconstruye el personaje dentro de un relato.\"}","question_order":"[0]","trial_type":"survey-multi-choice","trial_index":29,"time_elapsed":1597976,"internal_node_id":"0.0-5.0-24.0"},{"rt":2596.9000000059605,"response":{"pregunta1 likert":1},"question_order":[0],"trial_type":"survey-likert","trial_index":30,"time_elapsed":1600577,"internal_node_id":"0.0-5.0-25.0"},{"rt":54101.70000001788,"responses":"{\"pregunta14\":\"b) A la inexistencia de un recinto adecuado para el recital.\"}","question_order":"[0]","trial_type":"survey-multi-choice","trial_index":31,"time_elapsed":1654681,"internal_node_id":"0.0-5.0-26.0"},{"rt":3498.399999976158,"response":{"pregunta14 likert":2},"question_order":[0],"trial_type":"survey-likert","trial_index":32,"time_elapsed":1658183,"internal_node_id":"0.0-5.0-27.0"},{"rt":40116,"responses":"{\"pregunta13\":\"e) Bomberos debería tener acceso a un seguro médico, al que pueda recurrir en caso de accidente.\"}","question_order":"[0]","trial_type":"survey-multi-choice","trial_index":33,"time_elapsed":1698302,"internal_node_id":"0.0-5.0-28.0"},{"rt":2919.699999988079,"response":{"pregunta13 likert":2},"question_order":[0],"trial_type":"survey-likert","trial_index":34,"time_elapsed":1701223,"internal_node_id":"0.0-5.0-29.0"},{"rt":93976.80000001192,"responses":"{\"pregunta12\":\"c) la creación de elementos químicos artificiales ha resultado de la manipulación del uranio.\"}","question_order":"[0]","trial_type":"survey-multi-choice","trial_index":35,"time_elapsed":1795202,"internal_node_id":"0.0-5.0-30.0"},{"rt":3337.5,"response":{"pregunta12 likert":1},"question_order":[0],"trial_type":"survey-likert","trial_index":36,"time_elapsed":1798542,"internal_node_id":"0.0-5.0-31.0"},{"rt":41209.79999998212,"responses":"{\"pregunta18\":\"b) Se necesita un marco legal para delimitar lo público y lo privado en materia informativa.\"}","question_order":"[0]","trial_type":"survey-multi-choice","trial_index":37,"time_elapsed":1839755,"internal_node_id":"0.0-5.0-32.0"},{"rt":2554.2999999821186,"response":{"pregunta18 likert":2},"question_order":[0],"trial_type":"survey-likert","trial_index":38,"time_elapsed":1842312,"internal_node_id":"0.0-5.0-33.0"},{"rt":92161.09999999404,"responses":"{\"pregunta4\":\"d) Presentar positivamente las diversas tendencias del diseño de interiores a través de un comentario.\"}","question_order":"[0]","trial_type":"survey-multi-choice","trial_index":39,"time_elapsed":1934476,"internal_node_id":"0.0-5.0-34.0"},{"rt":4681.5,"response":{"pregunta4 likert":1},"question_order":[0],"trial_type":"survey-likert","trial_index":40,"time_elapsed":1939161,"internal_node_id":"0.0-5.0-35.0"},{"rt":75654.09999999404,"responses":"{\"pregunta7\":\"d) ritualistas y obsesivos.\"}","question_order":"[0]","trial_type":"survey-multi-choice","trial_index":41,"time_elapsed":2014819,"internal_node_id":"0.0-5.0-36.0"},{"rt":2225.0999999940395,"response":{"pregunta7 likert":2},"question_order":[0],"trial_type":"survey-likert","trial_index":42,"time_elapsed":2017047,"internal_node_id":"0.0-5.0-37.0"},{"rt":60458.79999998212,"responses":"{\"pregunta9\":\"d) Homenajear a quienes murieron.\"}","question_order":"[0]","trial_type":"survey-multi-choice","trial_index":43,"time_elapsed":2077508,"internal_node_id":"0.0-5.0-38.0"},{"rt":2116.199999988079,"response":{"pregunta9 likert":2},"question_order":[0],"trial_type":"survey-likert","trial_index":44,"time_elapsed":2079627,"internal_node_id":"0.0-5.0-39.0"}]