[{"rt":3390,"stimulus":"<h1 style=\"color:red; margin-top: 3%;\">¡Bienvenido(a)!</h1><p style=\"text-align:left; justify-content:space-between; margin-right: 5%; margin-left: 5%; margin-top: 5%\"> Antes de empezar el estudio, necesitamos que nos confirmes que estás de acuerdo con participar. Recuerda que tu participación es 100% voluntaria y que lo único que te pedimos es responder lo mejor que puedas. Recuerda también que el estudio incluye:</p><ol style=\"text-align:left; justify-content:space-between; margin-right: 5%; margin-left: 5%;\"><li> un ejercicio de resolución de preguntas de selección múltiple (30’),</li><li>un cuestionario breve (5’),</li><li>un juego muy breve (3’),</li></ol><p style=\"text-align:left; justify-content:space-between; margin-right: 5%; margin-left: 5%;\">Si quieres participar, haz clic en “Acepto” luego de leer lo siguiente:<br></p><p style=\"text-align:left; justify-content:space-between; margin-right: 5%; margin-left: 5%;\">Acepto participar en el estudio “Estrategias de lectura y resolución de preguntas de selección múltiple”, en los términos aquí señalados:<br></p><p style=\"text-align:left; justify-content:space-between; margin-right: 5%; margin-left: 5%;\"><a href=\"http://ciae.uchile.cl/download.php?file=noticias/Asentimiento.pdf\" target=\"_blank\">Link a la hoja de información del Consentimiento.</a></p><p style=\"text-align:left; justify-content:space-between; margin-right: 5%; margin-left: 5%;\">Declaro que he leído (o se me ha leído) y (he) comprendido, las condiciones de mi participación en este estudio. He tenido la oportunidad de hacer preguntas y éstas han sido respondidas. No tengo dudas al respecto.</p>","response":0,"condicion_MCQ":20,"condicion_JUEGO":60,"condicion_INTER":12,"numero_participante":60,"numero_version":2,"dimx":1536,"dimy":864,"color_profundidad":24,"pixel_profundidad":24,"Browser":"Mozilla Firefox","dia":25,"mes":5,"hora":10,"minuto":51,"segundo":1,"trial_type":"html-button-response","trial_index":0,"time_elapsed":3393,"internal_node_id":"0.0-0.0"},{"success":true,"trial_type":"fullscreen","trial_index":1,"time_elapsed":10084,"internal_node_id":"0.0-1.0"},{"rt":89474,"responses":"{\"Nombres\":\"Maureen \",\"Apellidos\":\"Aguirre Espinoza\",\"Edad\":\"20\",\"Sexo\":\"Mujer\",\"Curso\":\"Sección 201\",\"Colegio\":\"Universidad Andrés Bello\",\"Contacto\":\"mag.espinoza11@gmail.com\"}","trial_type":"survey-text","trial_index":2,"time_elapsed":99562,"internal_node_id":"0.0-2.0"},{"success":true,"timeout":false,"failed_images":[],"failed_audio":[],"failed_video":[],"trial_type":"preload","trial_index":3,"time_elapsed":100503,"internal_node_id":"0.0-3.0"},{"rt":19555,"stimulus":"<h1 style:\"margin-top: 5%;\">Ejercicios de Comprensión de Lectura de la Universidad de Chile</h1><p style=\"font-size: 120%;\">En esta actividad, debes responder 20 preguntas de selección múltiple. Cada pregunta presenta 5 respuestas alternativas, pero sólo una de ellas es correcta. Por lo tanto, debes escoger una sola alternativa para cada pregunta. Además, debes reportar qué tan seguro(a) estás de la respuesta que das, con un:</p><ol style=\"font-size: 120%;text-align:left;margin-left: 40%;\"><li>No estoy seguro(a) para nada</li><li>No estoy muy seguro(a)</li><li>Estoy bastante seguro(a)</li><li>Estoy totalmente seguro(a)</li></ol><p style=\"font-size: 120%;\">Por favor lee bien los enunciados antes de responder. ¡Éxito!</p>","response":0,"trial_type":"html-button-response","trial_index":4,"time_elapsed":120060,"internal_node_id":"0.0-4.0"},{"rt":66040,"responses":"{\"pregunta11\":\"b) la muerte de Wu Ti fue una bendición.\"}","question_order":"[0]","trial_type":"survey-multi-choice","trial_index":5,"time_elapsed":186102,"internal_node_id":"0.0-5.0-0.0"},{"rt":4309,"response":{"pregunta11 likert":2},"question_order":[0],"trial_type":"survey-likert","trial_index":6,"time_elapsed":190411,"internal_node_id":"0.0-5.0-1.0"},{"rt":65678,"responses":"{\"pregunta5\":\"a) El ser humano se comporta de acuerdo con las circunstancias.\"}","question_order":"[0]","trial_type":"survey-multi-choice","trial_index":7,"time_elapsed":256092,"internal_node_id":"0.0-5.0-2.0"},{"rt":1904,"response":{"pregunta5 likert":2},"question_order":[0],"trial_type":"survey-likert","trial_index":8,"time_elapsed":257996,"internal_node_id":"0.0-5.0-3.0"},{"rt":211121,"responses":"{\"pregunta8\":\"b) Provocar el deseo de la adquisición vertiginosa.\"}","question_order":"[0]","trial_type":"survey-multi-choice","trial_index":9,"time_elapsed":469120,"internal_node_id":"0.0-5.0-4.0"},{"rt":1799,"response":{"pregunta8 likert":3},"question_order":[0],"trial_type":"survey-likert","trial_index":10,"time_elapsed":470921,"internal_node_id":"0.0-5.0-5.0"},{"rt":58229,"responses":"{\"pregunta19\":\"e) el jardinero estará muerto al día siguiente.\"}","question_order":"[0]","trial_type":"survey-multi-choice","trial_index":11,"time_elapsed":529151,"internal_node_id":"0.0-5.0-6.0"},{"rt":2838,"response":{"pregunta19 likert":2},"question_order":[0],"trial_type":"survey-likert","trial_index":12,"time_elapsed":531990,"internal_node_id":"0.0-5.0-7.0"},{"rt":25636,"responses":"{\"pregunta20\":\"c) la muerte es distinta en las grandes ciudades.\"}","question_order":"[0]","trial_type":"survey-multi-choice","trial_index":13,"time_elapsed":557626,"internal_node_id":"0.0-5.0-8.0"},{"rt":3051,"response":{"pregunta20 likert":2},"question_order":[0],"trial_type":"survey-likert","trial_index":14,"time_elapsed":560679,"internal_node_id":"0.0-5.0-9.0"},{"rt":14923,"responses":"{\"pregunta13\":\"b) Se debe crear un seguro médico especial para esta institución, pues es de alto riesgo.\"}","question_order":"[0]","trial_type":"survey-multi-choice","trial_index":15,"time_elapsed":575604,"internal_node_id":"0.0-5.0-10.0"},{"rt":3095,"response":{"pregunta13 likert":2},"question_order":[0],"trial_type":"survey-likert","trial_index":16,"time_elapsed":578700,"internal_node_id":"0.0-5.0-11.0"},{"rt":115818,"responses":"{\"pregunta10\":\"a) A la inutilidad de tanto esfuerzo si el objetivo es el reposo.\"}","question_order":"[0]","trial_type":"survey-multi-choice","trial_index":17,"time_elapsed":694520,"internal_node_id":"0.0-5.0-12.0"},{"rt":5419,"response":{"pregunta10 likert":2},"question_order":[0],"trial_type":"survey-likert","trial_index":18,"time_elapsed":699942,"internal_node_id":"0.0-5.0-13.0"},{"rt":111088,"responses":"{\"pregunta16\":\"d) sufren dolores de espalda.\"}","question_order":"[0]","trial_type":"survey-multi-choice","trial_index":19,"time_elapsed":811030,"internal_node_id":"0.0-5.0-14.0"},{"rt":2000,"response":{"pregunta16 likert":2},"question_order":[0],"trial_type":"survey-likert","trial_index":20,"time_elapsed":813031,"internal_node_id":"0.0-5.0-15.0"},{"rt":31988,"responses":"{\"pregunta17\":\"a) El futuro de la economía chilena es incierto.\"}","question_order":"[0]","trial_type":"survey-multi-choice","trial_index":21,"time_elapsed":845020,"internal_node_id":"0.0-5.0-16.0"},{"rt":2352,"response":{"pregunta17 likert":2},"question_order":[0],"trial_type":"survey-likert","trial_index":22,"time_elapsed":847372,"internal_node_id":"0.0-5.0-17.0"},{"rt":90051,"responses":"{\"pregunta7\":\"b) ritualistas y obsesivos.\"}","question_order":"[0]","trial_type":"survey-multi-choice","trial_index":23,"time_elapsed":937425,"internal_node_id":"0.0-5.0-18.0"},{"rt":3863,"response":{"pregunta7 likert":2},"question_order":[0],"trial_type":"survey-likert","trial_index":24,"time_elapsed":941290,"internal_node_id":"0.0-5.0-19.0"},{"rt":61866,"responses":"{\"pregunta15\":\"d) El receptor es habitualmente pasivo frente a la publicidad.\"}","question_order":"[0]","trial_type":"survey-multi-choice","trial_index":25,"time_elapsed":1003157,"internal_node_id":"0.0-5.0-20.0"},{"rt":4660,"response":{"pregunta15 likert":1},"question_order":[0],"trial_type":"survey-likert","trial_index":26,"time_elapsed":1007818,"internal_node_id":"0.0-5.0-21.0"},{"rt":63011,"responses":"{\"pregunta9\":\"b) Homenajear a quienes murieron.\"}","question_order":"[0]","trial_type":"survey-multi-choice","trial_index":27,"time_elapsed":1070830,"internal_node_id":"0.0-5.0-22.0"},{"rt":2232,"response":{"pregunta9 likert":2},"question_order":[0],"trial_type":"survey-likert","trial_index":28,"time_elapsed":1073064,"internal_node_id":"0.0-5.0-23.0"},{"rt":47865,"responses":"{\"pregunta14\":\"d) A la influencia de grupos que rechazaban su música.\"}","question_order":"[0]","trial_type":"survey-multi-choice","trial_index":29,"time_elapsed":1120929,"internal_node_id":"0.0-5.0-24.0"},{"rt":1761,"response":{"pregunta14 likert":2},"question_order":[0],"trial_type":"survey-likert","trial_index":30,"time_elapsed":1122691,"internal_node_id":"0.0-5.0-25.0"},{"rt":105493,"responses":"{\"pregunta12\":\"d) la creación de elementos químicos artificiales ha resultado de la manipulación del uranio.\"}","question_order":"[0]","trial_type":"survey-multi-choice","trial_index":31,"time_elapsed":1228187,"internal_node_id":"0.0-5.0-26.0"},{"rt":4913,"response":{"pregunta12 likert":2},"question_order":[0],"trial_type":"survey-likert","trial_index":32,"time_elapsed":1233101,"internal_node_id":"0.0-5.0-27.0"},{"rt":151764,"responses":"{\"pregunta1\":\"b) Entregan una característica detallada del personaje, a través de la voz narrativa.\"}","question_order":"[0]","trial_type":"survey-multi-choice","trial_index":33,"time_elapsed":1384866,"internal_node_id":"0.0-5.0-28.0"},{"rt":2880,"response":{"pregunta1 likert":2},"question_order":[0],"trial_type":"survey-likert","trial_index":34,"time_elapsed":1387747,"internal_node_id":"0.0-5.0-29.0"},{"rt":42512,"responses":"{\"pregunta6\":\"a) un recuerdo nostálgico.\"}","question_order":"[0]","trial_type":"survey-multi-choice","trial_index":35,"time_elapsed":1430260,"internal_node_id":"0.0-5.0-30.0"},{"rt":1595,"response":{"pregunta6 likert":2},"question_order":[0],"trial_type":"survey-likert","trial_index":36,"time_elapsed":1431857,"internal_node_id":"0.0-5.0-31.0"},{"rt":31419,"responses":"{\"pregunta2\":\"c) A la relación entre sociología y sociedad.\"}","question_order":"[0]","trial_type":"survey-multi-choice","trial_index":37,"time_elapsed":1463278,"internal_node_id":"0.0-5.0-32.0"},{"rt":3296,"response":{"pregunta2 likert":1},"question_order":[0],"trial_type":"survey-likert","trial_index":38,"time_elapsed":1466575,"internal_node_id":"0.0-5.0-33.0"},{"rt":101474,"responses":"{\"pregunta4\":\"a) Promover la asistencia a un evento específico de decoración a través de una atractiva descripción.\"}","question_order":"[0]","trial_type":"survey-multi-choice","trial_index":39,"time_elapsed":1568050,"internal_node_id":"0.0-5.0-34.0"},{"rt":1698,"response":{"pregunta4 likert":1},"question_order":[0],"trial_type":"survey-likert","trial_index":40,"time_elapsed":1569748,"internal_node_id":"0.0-5.0-35.0"},{"rt":98124,"responses":"{\"pregunta3\":\"c) La escritura plasma los mejores momentos de los viajes.\"}","question_order":"[0]","trial_type":"survey-multi-choice","trial_index":41,"time_elapsed":1667875,"internal_node_id":"0.0-5.0-36.0"},{"rt":1979,"response":{"pregunta3 likert":2},"question_order":[0],"trial_type":"survey-likert","trial_index":42,"time_elapsed":1669856,"internal_node_id":"0.0-5.0-37.0"},{"rt":33225,"responses":"{\"pregunta18\":\"e) Se necesita un marco legal para delimitar lo público y lo privado en materia informativa.\"}","question_order":"[0]","trial_type":"survey-multi-choice","trial_index":43,"time_elapsed":1703081,"internal_node_id":"0.0-5.0-38.0"},{"rt":1848,"response":{"pregunta18 likert":2},"question_order":[0],"trial_type":"survey-likert","trial_index":44,"time_elapsed":1704930,"internal_node_id":"0.0-5.0-39.0"},{"rt":2442,"stimulus":"<p style=\"font-size: 120%\">Gracias por completar esta etapa del estudio. Ahora te invitamos a responder el cuestionario.<br><br></p>","response":0,"trial_type":"html-button-response","trial_index":45,"time_elapsed":1707376,"internal_node_id":"0.0-6.0"},{"rt":16918,"stimulus":"<h1 style=\"margin-top: 5%\">Cuestionario para la Evaluación de Metas Académicas</h1><p style=\"font-size: 120%; margin-left: 3%; margin-top: 5%\">Este es un cuestionario que permite conocer cuáles son los principales motivos por los que los estudiantes se esfuerzan en su trabajo académico. A continuación, se te presentarán una serie de afirmaciones acerca de los motivos que puedes tener para estudiar.<br>Te pedimos que contestes a dichas afirmaciones reflexionando sobre el contenido de cada una de ellas, que, aunque te parezcan semejantes, en realidad, no lo son.<br>NO HAY RESPUESTAS CORRECTAS o INCORRECTAS, sólo queremos que respondas con la mayor precisión y sinceridad posible a las preguntas que se plantean.","response":0,"trial_type":"html-button-response","trial_index":46,"time_elapsed":1724296,"internal_node_id":"0.0-7.0"},{"rt":81809,"response":{"Metas cuestionario pregunta1":4,"Metas cuestionario pregunta2":4,"Metas cuestionario pregunta3":4,"Metas cuestionario pregunta4":4,"Metas cuestionario pregunta5":4,"Metas cuestionario pregunta6":4,"Metas cuestionario pregunta7":4,"Metas cuestionario pregunta8":4,"Metas cuestionario pregunta9":4,"Metas cuestionario pregunta10":4,"Metas cuestionario pregunta11":0,"Metas cuestionario pregunta12":1,"Metas cuestionario pregunta13":4,"Metas cuestionario pregunta14":3,"Metas cuestionario pregunta15":4,"Metas cuestionario pregunta16":4,"Metas cuestionario pregunta17":3,"Metas cuestionario pregunta18":4,"Metas cuestionario pregunta19":4,"Metas cuestionario pregunta20":4},"question_order":[0,1,2,3,4,5,6,7,8,9,10,11,12,13,14,15,16,17,18,19],"trial_type":"survey-likert","trial_index":47,"time_elapsed":1806107,"internal_node_id":"0.0-8.0"},{"rt":2640,"stimulus":"<p style=\"font-size: 120%\">Gracias por responder el cuestionario. Ahora te invitamos a seguir con el juego, que es muy breve.<br><br></p>","response":0,"trial_type":"html-button-response","trial_index":48,"time_elapsed":1808750,"internal_node_id":"0.0-9.0"},{"rt":4752,"stimulus":"<h1>Juego</h1><p style=\"font-size: 120%;\">A continuación se te presentarán 16 pequeñas historias.<br>Por favor lee el texto presentado en cada una de ellas y luego haz click en el objeto de tu elección.<br>Si estás listo(a),<span style=\"color:red;\"> haz click en \"comenzar\"</span>.</p>","response":0,"trial_type":"html-button-response","trial_index":49,"time_elapsed":1813502,"internal_node_id":"0.0-10.0"},{"rt":12388,"grid":[[1,1,1],[1,1,1],[1,1,1],[1,1,1],[1,1,1],[1,1,1],[1,1,1],[1,1,1],[1,1,1],[1,1,1],[1,1,1]],"target":[0,0],"response":[1,1],"correct":false,"juego":5,"trial_type":"serial-reaction-time-mouse","trial_index":50,"time_elapsed":1825892,"internal_node_id":"0.0-11.0-0.0"},{"rt":10646,"grid":[[1,1,1,1,1]],"target":[0,0],"response":[0,2],"correct":false,"juego":12,"trial_type":"serial-reaction-time-mouse","trial_index":51,"time_elapsed":1836539,"internal_node_id":"0.0-11.0-1.0"},{"rt":8385,"grid":[[1,1,1],[1,1,1],[1,1,1],[1,1,1],[1,1,1],[1,1,1],[1,1,1],[1,1,1],[1,1,1],[1,1,1],[1,1,1]],"target":[0,0],"response":[3,1],"correct":false,"juego":13,"trial_type":"serial-reaction-time-mouse","trial_index":52,"time_elapsed":1844925,"internal_node_id":"0.0-11.0-2.0"},{"rt":2874,"grid":[[1,1,1,1,1]],"target":[0,0],"response":[0,2],"correct":false,"juego":11,"trial_type":"serial-reaction-time-mouse","trial_index":53,"time_elapsed":1847801,"internal_node_id":"0.0-11.0-3.0"},{"rt":6560,"grid":[[1,1,1,1],[1,1,1,1],[1,1,1,1],[1,1,1,1],[1,1,1,1],[1,1,1,1],[1,1,1,1],[1,1,1,1],[1,1,1,1],[1,1,1,1],[1,1,1,1]],"target":[0,0],"response":[5,2],"correct":false,"juego":15,"trial_type":"serial-reaction-time-mouse","trial_index":54,"time_elapsed":1854362,"internal_node_id":"0.0-11.0-4.0"},{"rt":3186,"grid":[[1,1,1],[1,1,1],[1,1,1],[1,1,1],[1,1,1],[1,1,1],[1,1,1],[1,1,1],[1,1,1],[1,1,1],[1,1,1]],"target":[0,0],"response":[3,1],"correct":false,"juego":6,"trial_type":"serial-reaction-time-mouse","trial_index":55,"time_elapsed":1857549,"internal_node_id":"0.0-11.0-5.0"},{"rt":6932,"grid":[[1,1,1,1],[1,1,1,1],[1,1,1,1],[1,1,1,1],[1,1,1,1],[1,1,1,1],[1,1,1,1],[1,1,1,1],[1,1,1,1],[1,1,1,1],[1,1,1,1]],"target":[0,0],"response":[7,2],"correct":false,"juego":14,"trial_type":"serial-reaction-time-mouse","trial_index":56,"time_elapsed":1864483,"internal_node_id":"0.0-11.0-6.0"},{"rt":2433,"grid":[[1],[1],[1],[1],[1]],"target":[0,0],"response":[2,0],"correct":false,"juego":4,"trial_type":"serial-reaction-time-mouse","trial_index":57,"time_elapsed":1866917,"internal_node_id":"0.0-11.0-7.0"},{"rt":6623,"grid":[[1,1,1,1,1]],"target":[0,0],"response":[0,2],"correct":false,"juego":7,"trial_type":"serial-reaction-time-mouse","trial_index":58,"time_elapsed":1873542,"internal_node_id":"0.0-11.0-8.0"},{"rt":8787,"grid":[[1,1,1],[1,1,1],[1,1,1],[1,1,1],[1,1,1],[1,1,1],[1,1,1],[1,1,1],[1,1,1],[1,1,1],[1,1,1]],"target":[0,0],"response":[3,0],"correct":false,"juego":10,"trial_type":"serial-reaction-time-mouse","trial_index":59,"time_elapsed":1882331,"internal_node_id":"0.0-11.0-9.0"},{"rt":4411,"grid":[[1,1,1,1,1]],"target":[0,0],"response":[0,1],"correct":false,"juego":3,"trial_type":"serial-reaction-time-mouse","trial_index":60,"time_elapsed":1886743,"internal_node_id":"0.0-11.0-10.0"},{"rt":6913,"grid":[[1,1,1,1,1]],"target":[0,0],"response":[0,1],"correct":false,"juego":1,"trial_type":"serial-reaction-time-mouse","trial_index":61,"time_elapsed":1893657,"internal_node_id":"0.0-11.0-11.0"},{"rt":3639,"grid":[[1,1,1,1,1]],"target":[0,0],"response":[0,2],"correct":false,"juego":2,"trial_type":"serial-reaction-time-mouse","trial_index":62,"time_elapsed":1897295,"internal_node_id":"0.0-11.0-12.0"},{"rt":1723,"grid":[[1,1,1,1,1]],"target":[0,0],"response":[0,2],"correct":false,"juego":9,"trial_type":"serial-reaction-time-mouse","trial_index":63,"time_elapsed":1899020,"internal_node_id":"0.0-11.0-13.0"},{"rt":5690,"grid":[[1,1,1,1,1]],"target":[0,0],"response":[0,3],"correct":false,"juego":8,"trial_type":"serial-reaction-time-mouse","trial_index":64,"time_elapsed":1904709,"internal_node_id":"0.0-11.0-14.0"}]