[{"rt":1078679.299999997,"stimulus":"<h1 style=\"color:red; margin-top: 3%;\">¡Bienvenido(a)!</h1><p style=\"text-align:left; justify-content:space-between; margin-right: 5%; margin-left: 5%; margin-top: 5%\"> Antes de empezar el estudio, necesitamos que nos confirmes que estás de acuerdo con participar. Recuerda que tu participación es 100% voluntaria y que lo único que te pedimos es responder lo mejor que puedas. Recuerda también que el estudio incluye:</p><ol style=\"text-align:left; justify-content:space-between; margin-right: 5%; margin-left: 5%;\"><li> un ejercicio de resolución de preguntas de selección múltiple (30’),</li><li>un cuestionario breve (5’),</li><li>un juego muy breve (3’),</li></ol><p style=\"text-align:left; justify-content:space-between; margin-right: 5%; margin-left: 5%;\">Si quieres participar, haz clic en “Acepto” luego de leer lo siguiente:<br></p><p style=\"text-align:left; justify-content:space-between; margin-right: 5%; margin-left: 5%;\">Acepto participar en el estudio “Estrategias de lectura y resolución de preguntas de selección múltiple”, en los términos aquí señalados:<br></p><p style=\"text-align:left; justify-content:space-between; margin-right: 5%; margin-left: 5%;\"><a href=\"http://ciae.uchile.cl/download.php?file=noticias/Asentimiento.pdf\" target=\"_blank\">Link a la hoja de información del Consentimiento.</a></p><p style=\"text-align:left; justify-content:space-between; margin-right: 5%; margin-left: 5%;\">Declaro que he leído (o se me ha leído) y (he) comprendido, las condiciones de mi participación en este estudio. He tenido la oportunidad de hacer preguntas y éstas han sido respondidas. No tengo dudas al respecto.</p>","response":0,"condicion_MCQ":12,"condicion_JUEGO":12,"condicion_INTER":12,"numero_participante":12,"numero_version":1,"dimx":1366,"dimy":768,"color_profundidad":24,"pixel_profundidad":24,"Browser":"Google Chrome","dia":17,"mes":5,"hora":20,"minuto":30,"segundo":23,"trial_type":"html-button-response","trial_index":0,"time_elapsed":1078682,"internal_node_id":"0.0-0.0"},{"success":true,"trial_type":"fullscreen","trial_index":1,"time_elapsed":1080963,"internal_node_id":"0.0-1.0"},{"rt":7460690,"responses":"{\"Nombres\":\"Eugenia De las mercedes\",\"Apellidos\":\"Forte Durán\",\"Edad\":\"24\",\"Sexo\":\"mujer \",\"Curso\":\"101\",\"Colegio\":\"Unab\",\"Contacto\":\"eugeniaforteduran22@gmail.com\"}","trial_type":"survey-text","trial_index":2,"time_elapsed":8541673,"internal_node_id":"0.0-2.0"},{"success":true,"timeout":false,"failed_images":[],"failed_audio":[],"failed_video":[],"trial_type":"preload","trial_index":3,"time_elapsed":8544281,"internal_node_id":"0.0-3.0"},{"rt":3996.5,"stimulus":"<h1 style:\"margin-top: 5%;\">Ejercicios de Comprensión de Lectura de la Universidad de Chile</h1><p style=\"font-size: 120%;\">En esta actividad, debes responder 20 preguntas de selección múltiple. Cada pregunta presenta 5 respuestas alternativas, pero sólo una de ellas es correcta. Por lo tanto, debes escoger una sola alternativa para cada pregunta. Además, debes reportar qué tan seguro(a) estás de la respuesta que das, con un:</p><ol style=\"font-size: 120%;text-align:left;margin-left: 40%;\"><li>No estoy seguro(a) para nada</li><li>No estoy muy seguro(a)</li><li>Estoy bastante seguro(a)</li><li>Estoy totalmente seguro(a)</li></ol><p style=\"font-size: 120%;\">Por favor lee bien los enunciados antes de responder. ¡Éxito!</p>","response":0,"trial_type":"html-button-response","trial_index":4,"time_elapsed":8548279,"internal_node_id":"0.0-4.0"},{"rt":6216531.700000003,"responses":"{\"pregunta16\":\"b) sufren dolores de espalda.\"}","question_order":"[0]","trial_type":"survey-multi-choice","trial_index":5,"time_elapsed":14764813,"internal_node_id":"0.0-5.0-0.0"},{"rt":4702.5,"response":{"pregunta16 likert":3},"question_order":[0],"trial_type":"survey-likert","trial_index":6,"time_elapsed":14769522,"internal_node_id":"0.0-5.0-1.0"},{"rt":78127.70000000298,"responses":"{\"pregunta14\":\"b) A la influencia de grupos que rechazaban su música.\"}","question_order":"[0]","trial_type":"survey-multi-choice","trial_index":7,"time_elapsed":14847655,"internal_node_id":"0.0-5.0-2.0"},{"rt":3582,"response":{"pregunta14 likert":1},"question_order":[0],"trial_type":"survey-likert","trial_index":8,"time_elapsed":14851241,"internal_node_id":"0.0-5.0-3.0"},{"rt":47017.20000000298,"responses":"{\"pregunta15\":\"b) El receptor es habitualmente pasivo frente a la publicidad.\"}","question_order":"[0]","trial_type":"survey-multi-choice","trial_index":9,"time_elapsed":14898262,"internal_node_id":"0.0-5.0-4.0"},{"rt":2512,"response":{"pregunta15 likert":3},"question_order":[0],"trial_type":"survey-likert","trial_index":10,"time_elapsed":14900779,"internal_node_id":"0.0-5.0-5.0"},{"rt":58022.29999999702,"responses":"{\"pregunta3\":\"a) Los viajes son siempre propicios para el acto escritural.\"}","question_order":"[0]","trial_type":"survey-multi-choice","trial_index":11,"time_elapsed":14958805,"internal_node_id":"0.0-5.0-6.0"},{"rt":3558.2000000029802,"response":{"pregunta3 likert":2},"question_order":[0],"trial_type":"survey-likert","trial_index":12,"time_elapsed":14962368,"internal_node_id":"0.0-5.0-7.0"},{"rt":51960,"responses":"{\"pregunta11\":\"a) el mejor emperador es el que está muerto.\"}","question_order":"[0]","trial_type":"survey-multi-choice","trial_index":13,"time_elapsed":15014332,"internal_node_id":"0.0-5.0-8.0"},{"rt":4579,"response":{"pregunta11 likert":1},"question_order":[0],"trial_type":"survey-likert","trial_index":14,"time_elapsed":15018916,"internal_node_id":"0.0-5.0-9.0"},{"rt":36976.20000000298,"responses":"{\"pregunta8\":\"e) Provocar el deseo de la adquisición vertiginosa.\"}","question_order":"[0]","trial_type":"survey-multi-choice","trial_index":15,"time_elapsed":15055897,"internal_node_id":"0.0-5.0-10.0"},{"rt":2126,"response":{"pregunta8 likert":2},"question_order":[0],"trial_type":"survey-likert","trial_index":16,"time_elapsed":15058027,"internal_node_id":"0.0-5.0-11.0"},{"rt":19069.29999999702,"responses":"{\"pregunta13\":\"a) Bomberos debería tener acceso a un seguro médico, al que pueda recurrir en caso de accidente.\"}","question_order":"[0]","trial_type":"survey-multi-choice","trial_index":17,"time_elapsed":15077102,"internal_node_id":"0.0-5.0-12.0"},{"rt":2673.2000000029802,"response":{"pregunta13 likert":2},"question_order":[0],"trial_type":"survey-likert","trial_index":18,"time_elapsed":15079779,"internal_node_id":"0.0-5.0-13.0"},{"rt":37097,"responses":"{\"pregunta7\":\"e) ritualistas y obsesivos.\"}","question_order":"[0]","trial_type":"survey-multi-choice","trial_index":19,"time_elapsed":15116881,"internal_node_id":"0.0-5.0-14.0"},{"rt":3095.8999999910593,"response":{"pregunta7 likert":2},"question_order":[0],"trial_type":"survey-likert","trial_index":20,"time_elapsed":15119981,"internal_node_id":"0.0-5.0-15.0"},{"rt":19942.30000001192,"responses":"{\"pregunta17\":\"b) Nuestra economía vivirá un proceso de ajuste a la nueva realidad.\"}","question_order":"[0]","trial_type":"survey-multi-choice","trial_index":21,"time_elapsed":15139928,"internal_node_id":"0.0-5.0-16.0"},{"rt":2636.0999999940395,"response":{"pregunta17 likert":2},"question_order":[0],"trial_type":"survey-likert","trial_index":22,"time_elapsed":15142568,"internal_node_id":"0.0-5.0-17.0"},{"rt":32325.69999998808,"responses":"{\"pregunta2\":\"a) A la relación entre sociedad y constitución social.\"}","question_order":"[0]","trial_type":"survey-multi-choice","trial_index":23,"time_elapsed":15174898,"internal_node_id":"0.0-5.0-18.0"},{"rt":2786.5,"response":{"pregunta2 likert":3},"question_order":[0],"trial_type":"survey-likert","trial_index":24,"time_elapsed":15177688,"internal_node_id":"0.0-5.0-19.0"},{"rt":24659.70000000298,"responses":"{\"pregunta20\":\"c) para el mexicano, la muerte es cotidiana.\"}","question_order":"[0]","trial_type":"survey-multi-choice","trial_index":25,"time_elapsed":15202352,"internal_node_id":"0.0-5.0-20.0"},{"rt":2425.4000000059605,"response":{"pregunta20 likert":2},"question_order":[0],"trial_type":"survey-likert","trial_index":26,"time_elapsed":15204781,"internal_node_id":"0.0-5.0-21.0"},{"rt":87932.90000000596,"responses":"{\"pregunta4\":\"b) Criticar la mezcla de estilos que se puede observar en la muestra que exhibe Casa Mater.\"}","question_order":"[0]","trial_type":"survey-multi-choice","trial_index":27,"time_elapsed":15292718,"internal_node_id":"0.0-5.0-22.0"},{"rt":3445.2000000029802,"response":{"pregunta4 likert":1},"question_order":[0],"trial_type":"survey-likert","trial_index":28,"time_elapsed":15296168,"internal_node_id":"0.0-5.0-23.0"},{"rt":37856,"responses":"{\"pregunta5\":\"d) El ser humano se comporta de acuerdo con las circunstancias.\"}","question_order":"[0]","trial_type":"survey-multi-choice","trial_index":29,"time_elapsed":15334028,"internal_node_id":"0.0-5.0-24.0"},{"rt":1975.7999999970198,"response":{"pregunta5 likert":2},"question_order":[0],"trial_type":"survey-likert","trial_index":30,"time_elapsed":15336008,"internal_node_id":"0.0-5.0-25.0"},{"rt":24677.70000000298,"responses":"{\"pregunta1\":\"c) Aportan informaciones con las que se reconstruye el personaje dentro de un relato.\"}","question_order":"[0]","trial_type":"survey-multi-choice","trial_index":31,"time_elapsed":15360689,"internal_node_id":"0.0-5.0-26.0"},{"rt":2112.7999999970198,"response":{"pregunta1 likert":3},"question_order":[0],"trial_type":"survey-likert","trial_index":32,"time_elapsed":15362806,"internal_node_id":"0.0-5.0-27.0"},{"rt":45304.90000000596,"responses":"{\"pregunta10\":\"d) A la conveniencia de no postergar el descanso personal.\"}","question_order":"[0]","trial_type":"survey-multi-choice","trial_index":33,"time_elapsed":15408115,"internal_node_id":"0.0-5.0-28.0"},{"rt":1914.5,"response":{"pregunta10 likert":2},"question_order":[0],"trial_type":"survey-likert","trial_index":34,"time_elapsed":15410034,"internal_node_id":"0.0-5.0-29.0"},{"rt":35954.40000000596,"responses":"{\"pregunta9\":\"d) Atraer a los turistas.\"}","question_order":"[0]","trial_type":"survey-multi-choice","trial_index":35,"time_elapsed":15445993,"internal_node_id":"0.0-5.0-30.0"},{"rt":1626.800000011921,"response":{"pregunta9 likert":2},"question_order":[0],"trial_type":"survey-likert","trial_index":36,"time_elapsed":15447625,"internal_node_id":"0.0-5.0-31.0"},{"rt":69838.29999999702,"responses":"{\"pregunta12\":\"e) la creación de elementos químicos es altamente contaminante.\"}","question_order":"[0]","trial_type":"survey-multi-choice","trial_index":37,"time_elapsed":15517467,"internal_node_id":"0.0-5.0-32.0"},{"rt":1863.7000000029802,"response":{"pregunta12 likert":2},"question_order":[0],"trial_type":"survey-likert","trial_index":38,"time_elapsed":15519335,"internal_node_id":"0.0-5.0-33.0"},{"rt":42268.90000000596,"responses":"{\"pregunta19\":\"c) el jardinero estará muerto al día siguiente.\"}","question_order":"[0]","trial_type":"survey-multi-choice","trial_index":39,"time_elapsed":15561608,"internal_node_id":"0.0-5.0-34.0"},{"rt":2896.800000011921,"response":{"pregunta19 likert":2},"question_order":[0],"trial_type":"survey-likert","trial_index":40,"time_elapsed":15564510,"internal_node_id":"0.0-5.0-35.0"},{"rt":33587.79999999702,"responses":"{\"pregunta6\":\"e) preparar los recuerdos del mañana.\"}","question_order":"[0]","trial_type":"survey-multi-choice","trial_index":41,"time_elapsed":15598102,"internal_node_id":"0.0-5.0-36.0"},{"rt":1763.7000000029802,"response":{"pregunta6 likert":2},"question_order":[0],"trial_type":"survey-likert","trial_index":42,"time_elapsed":15599870,"internal_node_id":"0.0-5.0-37.0"},{"rt":30732.90000000596,"responses":"{\"pregunta18\":\"c) Se necesita un marco legal para delimitar lo público y lo privado en materia informativa.\"}","question_order":"[0]","trial_type":"survey-multi-choice","trial_index":43,"time_elapsed":15630607,"internal_node_id":"0.0-5.0-38.0"},{"rt":3807.1000000089407,"response":{"pregunta18 likert":2},"question_order":[0],"trial_type":"survey-likert","trial_index":44,"time_elapsed":15634418,"internal_node_id":"0.0-5.0-39.0"}]