[{"rt":28521.000000000004,"stimulus":"<h1 style=\"color:red; margin-top: 3%;\">¡Bienvenido(a)!</h1><p style=\"text-align:left; justify-content:space-between; margin-right: 5%; margin-left: 5%; margin-top: 5%\"> Antes de empezar el estudio, necesitamos que nos confirmes que estás de acuerdo con participar. Recuerda que tu participación es 100% voluntaria y que lo único que te pedimos es responder lo mejor que puedas. Recuerda también que el estudio incluye:</p><ol style=\"text-align:left; justify-content:space-between; margin-right: 5%; margin-left: 5%;\"><li> un ejercicio de resolución de preguntas de selección múltiple (30’),</li><li>un cuestionario breve (5’),</li><li>un juego muy breve (3’),</li></ol><p style=\"text-align:left; justify-content:space-between; margin-right: 5%; margin-left: 5%;\">Si quieres participar, haz clic en “Acepto” luego de leer lo siguiente:<br></p><p style=\"text-align:left; justify-content:space-between; margin-right: 5%; margin-left: 5%;\">Acepto participar en el estudio “Estrategias de lectura y resolución de preguntas de selección múltiple”, en los términos aquí señalados:<br></p><p style=\"text-align:left; justify-content:space-between; margin-right: 5%; margin-left: 5%;\"><a href=\"http://ciae.uchile.cl/download.php?file=noticias/Asentimiento.pdf\" target=\"_blank\">Link a la hoja de información del Consentimiento.</a></p><p style=\"text-align:left; justify-content:space-between; margin-right: 5%; margin-left: 5%;\">Declaro que he leído (o se me ha leído) y (he) comprendido, las condiciones de mi participación en este estudio. He tenido la oportunidad de hacer preguntas y éstas han sido respondidas. No tengo dudas al respecto.</p>","response":0,"condicion_MCQ":4,"condicion_JUEGO":4,"condicion_INTER":4,"numero_participante":4,"numero_version":1,"dimx":375,"dimy":667,"color_profundidad":32,"pixel_profundidad":32,"Browser":"No identificado","dia":17,"mes":5,"hora":13,"minuto":46,"segundo":42,"trial_type":"html-button-response","trial_index":0,"time_elapsed":28540,"internal_node_id":"0.0-0.0"},{"success":true,"trial_type":"fullscreen","trial_index":1,"time_elapsed":43406,"internal_node_id":"0.0-1.0"},{"rt":138358.00000000003,"responses":"{\"Nombres\":\"Bárbara catalina \",\"Apellidos\":\"Lizama tapia \",\"Edad\":\"19\",\"Sexo\":\"Mujer \",\"Curso\":\"101\",\"Colegio\":\"Universidad Andrés Bello \",\"Contacto\":\"Barbaralizt2001@icloud.com\"}","trial_type":"survey-text","trial_index":2,"time_elapsed":181797,"internal_node_id":"0.0-2.0"},{"success":true,"timeout":false,"failed_images":[],"failed_audio":[],"failed_video":[],"trial_type":"preload","trial_index":3,"time_elapsed":188791,"internal_node_id":"0.0-3.0"},{"rt":24105,"stimulus":"<h1 style:\"margin-top: 5%;\">Ejercicios de Comprensión de Lectura de la Universidad de Chile</h1><p style=\"font-size: 120%;\">En esta actividad, debes responder 20 preguntas de selección múltiple. Cada pregunta presenta 5 respuestas alternativas, pero sólo una de ellas es correcta. Por lo tanto, debes escoger una sola alternativa para cada pregunta. Además, debes reportar qué tan seguro(a) estás de la respuesta que das, con un:</p><ol style=\"font-size: 120%;text-align:left;margin-left: 40%;\"><li>No estoy seguro(a) para nada</li><li>No estoy muy seguro(a)</li><li>Estoy bastante seguro(a)</li><li>Estoy totalmente seguro(a)</li></ol><p style=\"font-size: 120%;\">Por favor lee bien los enunciados antes de responder. ¡Éxito!</p>","response":0,"trial_type":"html-button-response","trial_index":4,"time_elapsed":212902,"internal_node_id":"0.0-4.0"},{"rt":117264.00000000006,"responses":"{\"pregunta15\":\"e) El receptor es habitualmente pasivo frente a la publicidad.\"}","question_order":"[0]","trial_type":"survey-multi-choice","trial_index":5,"time_elapsed":330171,"internal_node_id":"0.0-5.0-0.0"},{"rt":6401,"response":{"pregunta15 likert":2},"question_order":[0],"trial_type":"survey-likert","trial_index":6,"time_elapsed":336583,"internal_node_id":"0.0-5.0-1.0"},{"rt":71996,"responses":"{\"pregunta18\":\"a) Se necesita un marco legal para delimitar lo público y lo privado en materia informativa.\"}","question_order":"[0]","trial_type":"survey-multi-choice","trial_index":7,"time_elapsed":408586,"internal_node_id":"0.0-5.0-2.0"},{"rt":9093,"response":{"pregunta18 likert":3},"question_order":[0],"trial_type":"survey-likert","trial_index":8,"time_elapsed":417681,"internal_node_id":"0.0-5.0-3.0"},{"rt":115416,"responses":"{\"pregunta12\":\"c) la creación de elementos químicos artificiales ha resultado de la manipulación del uranio.\"}","question_order":"[0]","trial_type":"survey-multi-choice","trial_index":9,"time_elapsed":533102,"internal_node_id":"0.0-5.0-4.0"},{"rt":2456,"response":{"pregunta12 likert":2},"question_order":[0],"trial_type":"survey-likert","trial_index":10,"time_elapsed":535560,"internal_node_id":"0.0-5.0-5.0"},{"rt":80559,"responses":"{\"pregunta10\":\"d) Al premio merecido después de tantos esfuerzos.\"}","question_order":"[0]","trial_type":"survey-multi-choice","trial_index":11,"time_elapsed":616122,"internal_node_id":"0.0-5.0-6.0"},{"rt":2374,"response":{"pregunta10 likert":2},"question_order":[0],"trial_type":"survey-likert","trial_index":12,"time_elapsed":618499,"internal_node_id":"0.0-5.0-7.0"},{"rt":128078,"responses":"{\"pregunta6\":\"e) la persistencia de la melancolía y la desesperanza.\"}","question_order":"[0]","trial_type":"survey-multi-choice","trial_index":13,"time_elapsed":746580,"internal_node_id":"0.0-5.0-8.0"},{"rt":1454,"response":{"pregunta6 likert":3},"question_order":[0],"trial_type":"survey-likert","trial_index":14,"time_elapsed":748039,"internal_node_id":"0.0-5.0-9.0"},{"rt":148697,"responses":"{\"pregunta14\":\"b) A la negligencia de la empresa que los traía a Chile.\"}","question_order":"[0]","trial_type":"survey-multi-choice","trial_index":15,"time_elapsed":896716,"internal_node_id":"0.0-5.0-10.0"},{"rt":1439.9999999998836,"response":{"pregunta14 likert":3},"question_order":[0],"trial_type":"survey-likert","trial_index":16,"time_elapsed":898159,"internal_node_id":"0.0-5.0-11.0"},{"rt":210895,"responses":"{\"pregunta16\":\"e) sufren dolores de espalda.\"}","question_order":"[0]","trial_type":"survey-multi-choice","trial_index":17,"time_elapsed":1109057,"internal_node_id":"0.0-5.0-12.0"},{"rt":2403,"response":{"pregunta16 likert":3},"question_order":[0],"trial_type":"survey-likert","trial_index":18,"time_elapsed":1111466,"internal_node_id":"0.0-5.0-13.0"},{"rt":181405,"responses":"{\"pregunta4\":\"b) Promover la asistencia a un evento específico de decoración a través de una atractiva descripción.\"}","question_order":"[0]","trial_type":"survey-multi-choice","trial_index":19,"time_elapsed":1292873,"internal_node_id":"0.0-5.0-14.0"},{"rt":1354,"response":{"pregunta4 likert":2},"question_order":[0],"trial_type":"survey-likert","trial_index":20,"time_elapsed":1294230,"internal_node_id":"0.0-5.0-15.0"},{"rt":157657.99999999977,"responses":"{\"pregunta2\":\"a) A la relación entre sociedad y constitución social.\"}","question_order":"[0]","trial_type":"survey-multi-choice","trial_index":21,"time_elapsed":1451900,"internal_node_id":"0.0-5.0-16.0"},{"rt":1733,"response":{"pregunta2 likert":1},"question_order":[0],"trial_type":"survey-likert","trial_index":22,"time_elapsed":1453649,"internal_node_id":"0.0-5.0-17.0"},{"rt":35300,"responses":"{\"pregunta20\":\"d) la muerte es distinta en las grandes ciudades.\"}","question_order":"[0]","trial_type":"survey-multi-choice","trial_index":23,"time_elapsed":1488954,"internal_node_id":"0.0-5.0-18.0"},{"rt":1380,"response":{"pregunta20 likert":2},"question_order":[0],"trial_type":"survey-likert","trial_index":24,"time_elapsed":1490339,"internal_node_id":"0.0-5.0-19.0"},{"rt":87175,"responses":"{\"pregunta7\":\"c) ritualistas y obsesivos.\"}","question_order":"[0]","trial_type":"survey-multi-choice","trial_index":25,"time_elapsed":1577518,"internal_node_id":"0.0-5.0-20.0"},{"rt":1241,"response":{"pregunta7 likert":2},"question_order":[0],"trial_type":"survey-likert","trial_index":26,"time_elapsed":1578764,"internal_node_id":"0.0-5.0-21.0"},{"rt":135753.99999999977,"responses":"{\"pregunta9\":\"e) Atraer a los turistas.\"}","question_order":"[0]","trial_type":"survey-multi-choice","trial_index":27,"time_elapsed":1714512,"internal_node_id":"0.0-5.0-22.0"},{"rt":1359,"response":{"pregunta9 likert":3},"question_order":[0],"trial_type":"survey-likert","trial_index":28,"time_elapsed":1715874,"internal_node_id":"0.0-5.0-23.0"},{"rt":68306,"responses":"{\"pregunta13\":\"d) Bomberos debería tener acceso a un seguro médico, al que pueda recurrir en caso de accidente.\"}","question_order":"[0]","trial_type":"survey-multi-choice","trial_index":29,"time_elapsed":1784181,"internal_node_id":"0.0-5.0-24.0"},{"rt":1083.9999999997672,"response":{"pregunta13 likert":2},"question_order":[0],"trial_type":"survey-likert","trial_index":30,"time_elapsed":1785274,"internal_node_id":"0.0-5.0-25.0"},{"rt":249193,"responses":"{\"pregunta5\":\"a) La conducta de un hombre en un asilo es idéntica a la de un hombre en un campo de concentración.\"}","question_order":"[0]","trial_type":"survey-multi-choice","trial_index":31,"time_elapsed":2034476,"internal_node_id":"0.0-5.0-26.0"},{"rt":1248,"response":{"pregunta5 likert":1},"question_order":[0],"trial_type":"survey-likert","trial_index":32,"time_elapsed":2035733,"internal_node_id":"0.0-5.0-27.0"},{"rt":71929,"responses":"{\"pregunta19\":\"a) el jardinero estará muerto al día siguiente.\"}","question_order":"[0]","trial_type":"survey-multi-choice","trial_index":33,"time_elapsed":2107662,"internal_node_id":"0.0-5.0-28.0"},{"rt":1921,"response":{"pregunta19 likert":1},"question_order":[0],"trial_type":"survey-likert","trial_index":34,"time_elapsed":2109590,"internal_node_id":"0.0-5.0-29.0"},{"rt":65104,"responses":"{\"pregunta17\":\"e) Nuestra economía vivirá un proceso de ajuste a la nueva realidad.\"}","question_order":"[0]","trial_type":"survey-multi-choice","trial_index":35,"time_elapsed":2174695,"internal_node_id":"0.0-5.0-30.0"},{"rt":1405,"response":{"pregunta17 likert":2},"question_order":[0],"trial_type":"survey-likert","trial_index":36,"time_elapsed":2176108,"internal_node_id":"0.0-5.0-31.0"},{"rt":64556,"responses":"{\"pregunta8\":\"c) Provocar el deseo de la adquisición vertiginosa.\"}","question_order":"[0]","trial_type":"survey-multi-choice","trial_index":37,"time_elapsed":2240670,"internal_node_id":"0.0-5.0-32.0"},{"rt":3859.0000000004657,"response":{"pregunta8 likert":2},"question_order":[0],"trial_type":"survey-likert","trial_index":38,"time_elapsed":2244532,"internal_node_id":"0.0-5.0-33.0"},{"rt":237998,"responses":"{\"pregunta11\":\"e) sólo las leyes bastan para gobernarse.\"}","question_order":"[0]","trial_type":"survey-multi-choice","trial_index":39,"time_elapsed":2482533,"internal_node_id":"0.0-5.0-34.0"},{"rt":1199.9999999995343,"response":{"pregunta11 likert":1},"question_order":[0],"trial_type":"survey-likert","trial_index":40,"time_elapsed":2483745,"internal_node_id":"0.0-5.0-35.0"},{"rt":332564,"responses":"{\"pregunta3\":\"c) La escritura plasma los mejores momentos de los viajes.\"}","question_order":"[0]","trial_type":"survey-multi-choice","trial_index":41,"time_elapsed":2816312,"internal_node_id":"0.0-5.0-36.0"},{"rt":2258,"response":{"pregunta3 likert":1},"question_order":[0],"trial_type":"survey-likert","trial_index":42,"time_elapsed":2818581,"internal_node_id":"0.0-5.0-37.0"},{"rt":121235,"responses":"{\"pregunta1\":\"a) Aportan informaciones con las que se reconstruye el personaje dentro de un relato.\"}","question_order":"[0]","trial_type":"survey-multi-choice","trial_index":43,"time_elapsed":2939823,"internal_node_id":"0.0-5.0-38.0"},{"rt":1085,"response":{"pregunta1 likert":2},"question_order":[0],"trial_type":"survey-likert","trial_index":44,"time_elapsed":2940912,"internal_node_id":"0.0-5.0-39.0"},{"rt":1726,"stimulus":"<p style=\"font-size: 120%\">Gracias por completar esta etapa del estudio. Ahora te invitamos a responder el cuestionario.<br><br></p>","response":0,"trial_type":"html-button-response","trial_index":45,"time_elapsed":2942672,"internal_node_id":"0.0-6.0"},{"rt":4607,"stimulus":"<h1 style=\"margin-top: 5%\">Cuestionario para la Evaluación de Metas Académicas</h1><p style=\"font-size: 120%; margin-left: 3%; margin-top: 5%\">Este es un cuestionario que permite conocer cuáles son los principales motivos por los que los estudiantes se esfuerzan en su trabajo académico. A continuación, se te presentarán una serie de afirmaciones acerca de los motivos que puedes tener para estudiar.<br>Te pedimos que contestes a dichas afirmaciones reflexionando sobre el contenido de cada una de ellas, que, aunque te parezcan semejantes, en realidad, no lo son.<br>NO HAY RESPUESTAS CORRECTAS o INCORRECTAS, sólo queremos que respondas con la mayor precisión y sinceridad posible a las preguntas que se plantean.","response":0,"trial_type":"html-button-response","trial_index":46,"time_elapsed":2947283,"internal_node_id":"0.0-7.0"},{"rt":114492,"response":{"Metas cuestionario pregunta1":2,"Metas cuestionario pregunta2":3,"Metas cuestionario pregunta3":4,"Metas cuestionario pregunta4":4,"Metas cuestionario pregunta5":4,"Metas cuestionario pregunta6":3,"Metas cuestionario pregunta7":4,"Metas cuestionario pregunta8":4,"Metas cuestionario pregunta9":2,"Metas cuestionario pregunta10":0,"Metas cuestionario pregunta11":0,"Metas cuestionario pregunta12":0,"Metas cuestionario pregunta13":1,"Metas cuestionario pregunta14":1,"Metas cuestionario pregunta15":4,"Metas cuestionario pregunta16":4,"Metas cuestionario pregunta17":4,"Metas cuestionario pregunta18":4,"Metas cuestionario pregunta19":4,"Metas cuestionario pregunta20":3},"question_order":[0,1,2,3,4,5,6,7,8,9,10,11,12,13,14,15,16,17,18,19],"trial_type":"survey-likert","trial_index":47,"time_elapsed":3061787,"internal_node_id":"0.0-8.0"}]