[{"rt":328122.59999999404,"stimulus":"<h1 style=\"color:red; margin-top: 3%;\">¡Bienvenido(a)!</h1><p style=\"text-align:left; justify-content:space-between; margin-right: 5%; margin-left: 5%; margin-top: 5%\"> Antes de empezar el estudio, necesitamos que nos confirmes que estás de acuerdo con participar. Recuerda que tu participación es 100% voluntaria y que lo único que te pedimos es responder lo mejor que puedas. Recuerda también que el estudio incluye:</p><ol style=\"text-align:left; justify-content:space-between; margin-right: 5%; margin-left: 5%;\"><li> un ejercicio de resolución de preguntas de selección múltiple (30’),</li><li>un cuestionario breve (5’),</li><li>un juego muy breve (3’),</li></ol><p style=\"text-align:left; justify-content:space-between; margin-right: 5%; margin-left: 5%;\">Si quieres participar, haz clic en “Acepto” luego de leer lo siguiente:<br></p><p style=\"text-align:left; justify-content:space-between; margin-right: 5%; margin-left: 5%;\">Acepto participar en el estudio “Estrategias de lectura y resolución de preguntas de selección múltiple”, en los términos aquí señalados:<br></p><p style=\"text-align:left; justify-content:space-between; margin-right: 5%; margin-left: 5%;\"><a href=\"http://ciae.uchile.cl/download.php?file=noticias/Asentimiento.pdf\" target=\"_blank\">Link a la hoja de información del Consentimiento.</a></p><p style=\"text-align:left; justify-content:space-between; margin-right: 5%; margin-left: 5%;\">Declaro que he leído (o se me ha leído) y (he) comprendido, las condiciones de mi participación en este estudio. He tenido la oportunidad de hacer preguntas y éstas han sido respondidas. No tengo dudas al respecto.</p>","response":0,"condicion_MCQ":11,"condicion_JUEGO":51,"condicion_INTER":3,"numero_participante":51,"numero_version":1,"dimx":1366,"dimy":768,"color_profundidad":24,"pixel_profundidad":24,"Browser":"Google Chrome","dia":19,"mes":5,"hora":21,"minuto":7,"segundo":37,"trial_type":"html-button-response","trial_index":0,"time_elapsed":328126,"internal_node_id":"0.0-0.0"},{"success":true,"trial_type":"fullscreen","trial_index":1,"time_elapsed":332975,"internal_node_id":"0.0-1.0"},{"rt":65293569.7,"responses":"{\"Nombres\":\"erika andrea\",\"Apellidos\":\"walker arevalo\",\"Edad\":\"20\",\"Sexo\":\"mujer\",\"Curso\":\"sección 200\",\"Colegio\":\"universidad andres bello\",\"Contacto\":\"e.walkeraralo@uandresbello.edu\"}","trial_type":"survey-text","trial_index":2,"time_elapsed":65624513,"internal_node_id":"0.0-2.0"},{"success":true,"timeout":false,"failed_images":[],"failed_audio":[],"failed_video":[],"trial_type":"preload","trial_index":3,"time_elapsed":65625525,"internal_node_id":"0.0-3.0"},{"rt":27459.30000001192,"stimulus":"<h1 style:\"margin-top: 5%;\">Ejercicios de Comprensión de Lectura de la Universidad de Chile</h1><p style=\"font-size: 120%;\">En esta actividad, debes responder 20 preguntas de selección múltiple. Cada pregunta presenta 5 respuestas alternativas, pero sólo una de ellas es correcta. Por lo tanto, debes escoger una sola alternativa para cada pregunta. Además, debes reportar qué tan seguro(a) estás de la respuesta que das, con un:</p><ol style=\"font-size: 120%;text-align:left;margin-left: 40%;\"><li>No estoy seguro(a) para nada</li><li>No estoy muy seguro(a)</li><li>Estoy bastante seguro(a)</li><li>Estoy totalmente seguro(a)</li></ol><p style=\"font-size: 120%;\">Por favor lee bien los enunciados antes de responder. ¡Éxito!</p>","response":0,"trial_type":"html-button-response","trial_index":4,"time_elapsed":65652985,"internal_node_id":"0.0-4.0"},{"rt":107348.30000001192,"responses":"{\"pregunta4\":\"b) Presentar positivamente las diversas tendencias del diseño de interiores a través de un comentario.\"}","question_order":"[0]","trial_type":"survey-multi-choice","trial_index":5,"time_elapsed":65760336,"internal_node_id":"0.0-5.0-0.0"},{"rt":4055,"response":{"pregunta4 likert":3},"question_order":[0],"trial_type":"survey-likert","trial_index":6,"time_elapsed":65764395,"internal_node_id":"0.0-5.0-1.0"},{"rt":127779.90000000596,"responses":"{\"pregunta12\":\"c) la creación de elementos químicos artificiales ha resultado de la manipulación del uranio.\"}","question_order":"[0]","trial_type":"survey-multi-choice","trial_index":7,"time_elapsed":65892180,"internal_node_id":"0.0-5.0-2.0"},{"rt":3238.600000023842,"response":{"pregunta12 likert":2},"question_order":[0],"trial_type":"survey-likert","trial_index":8,"time_elapsed":65895422,"internal_node_id":"0.0-5.0-3.0"},{"rt":130627.40000000596,"responses":"{\"pregunta11\":\"a) el mejor emperador es el que está muerto.\"}","question_order":"[0]","trial_type":"survey-multi-choice","trial_index":9,"time_elapsed":66026052,"internal_node_id":"0.0-5.0-4.0"},{"rt":3796.5,"response":{"pregunta11 likert":2},"question_order":[0],"trial_type":"survey-likert","trial_index":10,"time_elapsed":66029851,"internal_node_id":"0.0-5.0-5.0"},{"rt":119763.90000000596,"responses":"{\"pregunta6\":\"e) un recuerdo nostálgico.\"}","question_order":"[0]","trial_type":"survey-multi-choice","trial_index":11,"time_elapsed":66149618,"internal_node_id":"0.0-5.0-6.0"},{"rt":3311.5999999940395,"response":{"pregunta6 likert":2},"question_order":[0],"trial_type":"survey-likert","trial_index":12,"time_elapsed":66152932,"internal_node_id":"0.0-5.0-7.0"},{"rt":121440.70000001788,"responses":"{\"pregunta2\":\"a) A la relación entre sociología y sociedad.\"}","question_order":"[0]","trial_type":"survey-multi-choice","trial_index":13,"time_elapsed":66274376,"internal_node_id":"0.0-5.0-8.0"},{"rt":5704.9000000059605,"response":{"pregunta2 likert":1},"question_order":[0],"trial_type":"survey-likert","trial_index":14,"time_elapsed":66280083,"internal_node_id":"0.0-5.0-9.0"},{"rt":47996.40000000596,"responses":"{\"pregunta17\":\"d) El TLC causará una completa transformación de la economía chilena.\"}","question_order":"[0]","trial_type":"survey-multi-choice","trial_index":15,"time_elapsed":66328083,"internal_node_id":"0.0-5.0-10.0"},{"rt":3365.7000000178814,"response":{"pregunta17 likert":2},"question_order":[0],"trial_type":"survey-likert","trial_index":16,"time_elapsed":66331452,"internal_node_id":"0.0-5.0-11.0"},{"rt":88188.29999998212,"responses":"{\"pregunta16\":\"b) sufren dolores de espalda.\"}","question_order":"[0]","trial_type":"survey-multi-choice","trial_index":17,"time_elapsed":66419642,"internal_node_id":"0.0-5.0-12.0"},{"rt":2590.800000011921,"response":{"pregunta16 likert":3},"question_order":[0],"trial_type":"survey-likert","trial_index":18,"time_elapsed":66422235,"internal_node_id":"0.0-5.0-13.0"},{"rt":277073.39999997616,"responses":"{\"pregunta13\":\"a) Bomberos debería tener acceso a un seguro médico, al que pueda recurrir en caso de accidente.\"}","question_order":"[0]","trial_type":"survey-multi-choice","trial_index":19,"time_elapsed":66699310,"internal_node_id":"0.0-5.0-14.0"},{"rt":2809.199999988079,"response":{"pregunta13 likert":3},"question_order":[0],"trial_type":"survey-likert","trial_index":20,"time_elapsed":66702123,"internal_node_id":"0.0-5.0-15.0"},{"rt":86115.59999999404,"responses":"{\"pregunta5\":\"d) El ser humano se comporta de acuerdo con las circunstancias.\"}","question_order":"[0]","trial_type":"survey-multi-choice","trial_index":21,"time_elapsed":66788241,"internal_node_id":"0.0-5.0-16.0"},{"rt":6726.4000000059605,"response":{"pregunta5 likert":2},"question_order":[0],"trial_type":"survey-likert","trial_index":22,"time_elapsed":66794972,"internal_node_id":"0.0-5.0-17.0"},{"rt":64406,"responses":"{\"pregunta9\":\"e) Homenajear a quienes murieron.\"}","question_order":"[0]","trial_type":"survey-multi-choice","trial_index":23,"time_elapsed":66859381,"internal_node_id":"0.0-5.0-18.0"},{"rt":5638.100000023842,"response":{"pregunta9 likert":3},"question_order":[0],"trial_type":"survey-likert","trial_index":24,"time_elapsed":66865024,"internal_node_id":"0.0-5.0-19.0"},{"rt":83704.30000001192,"responses":"{\"pregunta1\":\"a) Manifiestan la importancia de que el personaje tenga independencia en el relato.\"}","question_order":"[0]","trial_type":"survey-multi-choice","trial_index":25,"time_elapsed":66948731,"internal_node_id":"0.0-5.0-20.0"},{"rt":3545.100000023842,"response":{"pregunta1 likert":2},"question_order":[0],"trial_type":"survey-likert","trial_index":26,"time_elapsed":66952278,"internal_node_id":"0.0-5.0-21.0"},{"rt":100812.80000001192,"responses":"{\"pregunta15\":\"b) El receptor es habitualmente pasivo frente a la publicidad.\"}","question_order":"[0]","trial_type":"survey-multi-choice","trial_index":27,"time_elapsed":67053094,"internal_node_id":"0.0-5.0-22.0"},{"rt":2484.399999976158,"response":{"pregunta15 likert":3},"question_order":[0],"trial_type":"survey-likert","trial_index":28,"time_elapsed":67055581,"internal_node_id":"0.0-5.0-23.0"},{"rt":52373.09999999404,"responses":"{\"pregunta10\":\"e) Al premio merecido después de tantos esfuerzos.\"}","question_order":"[0]","trial_type":"survey-multi-choice","trial_index":29,"time_elapsed":67107957,"internal_node_id":"0.0-5.0-24.0"},{"rt":2368.4000000059605,"response":{"pregunta10 likert":2},"question_order":[0],"trial_type":"survey-likert","trial_index":30,"time_elapsed":67110328,"internal_node_id":"0.0-5.0-25.0"},{"rt":67274.30000001192,"responses":"{\"pregunta19\":\"a) la Muerte vaticina el futuro mediante gestos.\"}","question_order":"[0]","trial_type":"survey-multi-choice","trial_index":31,"time_elapsed":67177605,"internal_node_id":"0.0-5.0-26.0"},{"rt":2142.800000011921,"response":{"pregunta19 likert":3},"question_order":[0],"trial_type":"survey-likert","trial_index":32,"time_elapsed":67179751,"internal_node_id":"0.0-5.0-27.0"},{"rt":90763.59999999404,"responses":"{\"pregunta8\":\"b) Deleitar a sus receptores por medio de la belleza y el confort.\"}","question_order":"[0]","trial_type":"survey-multi-choice","trial_index":33,"time_elapsed":67270518,"internal_node_id":"0.0-5.0-28.0"},{"rt":2507.300000011921,"response":{"pregunta8 likert":3},"question_order":[0],"trial_type":"survey-likert","trial_index":34,"time_elapsed":67273028,"internal_node_id":"0.0-5.0-29.0"},{"rt":29211.5,"responses":"{\"pregunta20\":\"c) para el mexicano, la muerte es cotidiana.\"}","question_order":"[0]","trial_type":"survey-multi-choice","trial_index":35,"time_elapsed":67302242,"internal_node_id":"0.0-5.0-30.0"},{"rt":4102.299999982119,"response":{"pregunta20 likert":2},"question_order":[0],"trial_type":"survey-likert","trial_index":36,"time_elapsed":67306347,"internal_node_id":"0.0-5.0-31.0"},{"rt":93840.59999999404,"responses":"{\"pregunta3\":\"d) Los momentos triviales de los viajes, en la escritura se vuelven significativos.\"}","question_order":"[0]","trial_type":"survey-multi-choice","trial_index":37,"time_elapsed":67400190,"internal_node_id":"0.0-5.0-32.0"},{"rt":4466.9000000059605,"response":{"pregunta3 likert":1},"question_order":[0],"trial_type":"survey-likert","trial_index":38,"time_elapsed":67404658,"internal_node_id":"0.0-5.0-33.0"},{"rt":38246.19999998808,"responses":"{\"pregunta18\":\"b) Se necesita un marco legal para delimitar lo público y lo privado en materia informativa.\"}","question_order":"[0]","trial_type":"survey-multi-choice","trial_index":39,"time_elapsed":67442906,"internal_node_id":"0.0-5.0-34.0"},{"rt":3314.800000011921,"response":{"pregunta18 likert":2},"question_order":[0],"trial_type":"survey-likert","trial_index":40,"time_elapsed":67446223,"internal_node_id":"0.0-5.0-35.0"},{"rt":63373.90000000596,"responses":"{\"pregunta14\":\"a) A la influencia de grupos que rechazaban su música.\"}","question_order":"[0]","trial_type":"survey-multi-choice","trial_index":41,"time_elapsed":67509601,"internal_node_id":"0.0-5.0-36.0"},{"rt":1859.5,"response":{"pregunta14 likert":2},"question_order":[0],"trial_type":"survey-likert","trial_index":42,"time_elapsed":67511463,"internal_node_id":"0.0-5.0-37.0"},{"rt":116284.29999998212,"responses":"{\"pregunta7\":\"a) religiosos y precavidos.\"}","question_order":"[0]","trial_type":"survey-multi-choice","trial_index":43,"time_elapsed":67627748,"internal_node_id":"0.0-5.0-38.0"},{"rt":7606.600000023842,"response":{"pregunta7 likert":1},"question_order":[0],"trial_type":"survey-likert","trial_index":44,"time_elapsed":67635356,"internal_node_id":"0.0-5.0-39.0"},{"rt":3195.9000000059605,"stimulus":"<p style=\"font-size: 120%\">Gracias por completar esta etapa del estudio. Ahora te invitamos a responder el cuestionario.<br><br></p>","response":0,"trial_type":"html-button-response","trial_index":45,"time_elapsed":67638557,"internal_node_id":"0.0-6.0"},{"rt":5602673.099999994,"stimulus":"<h1 style=\"margin-top: 5%\">Cuestionario para la Evaluación de Metas Académicas</h1><p style=\"font-size: 120%; margin-left: 3%; margin-top: 5%\">Este es un cuestionario que permite conocer cuáles son los principales motivos por los que los estudiantes se esfuerzan en su trabajo académico. A continuación, se te presentarán una serie de afirmaciones acerca de los motivos que puedes tener para estudiar.<br>Te pedimos que contestes a dichas afirmaciones reflexionando sobre el contenido de cada una de ellas, que, aunque te parezcan semejantes, en realidad, no lo son.<br>NO HAY RESPUESTAS CORRECTAS o INCORRECTAS, sólo queremos que respondas con la mayor precisión y sinceridad posible a las preguntas que se plantean.","response":0,"trial_type":"html-button-response","trial_index":46,"time_elapsed":73241221,"internal_node_id":"0.0-7.0"},{"rt":153198.79999998212,"response":{"Metas cuestionario pregunta1":3,"Metas cuestionario pregunta2":4,"Metas cuestionario pregunta3":3,"Metas cuestionario pregunta4":2,"Metas cuestionario pregunta5":4,"Metas cuestionario pregunta6":3,"Metas cuestionario pregunta7":4,"Metas cuestionario pregunta8":4,"Metas cuestionario pregunta9":2,"Metas cuestionario pregunta10":2,"Metas cuestionario pregunta11":2,"Metas cuestionario pregunta12":2,"Metas cuestionario pregunta13":3,"Metas cuestionario pregunta14":1,"Metas cuestionario pregunta15":4,"Metas cuestionario pregunta16":4,"Metas cuestionario pregunta17":4,"Metas cuestionario pregunta18":4,"Metas cuestionario pregunta19":3,"Metas cuestionario pregunta20":3},"question_order":[0,1,2,3,4,5,6,7,8,9,10,11,12,13,14,15,16,17,18,19],"trial_type":"survey-likert","trial_index":47,"time_elapsed":73394427,"internal_node_id":"0.0-8.0"},{"rt":2795.0999999940395,"stimulus":"<p style=\"font-size: 120%\">Gracias por responder el cuestionario. Ahora te invitamos a seguir con el juego, que es muy breve.<br><br></p>","response":0,"trial_type":"html-button-response","trial_index":48,"time_elapsed":73397224,"internal_node_id":"0.0-9.0"},{"rt":12022.5,"stimulus":"<h1>Juego</h1><p style=\"font-size: 120%;\">A continuación se te presentarán 16 pequeñas historias.<br>Por favor lee el texto presentado en cada una de ellas y luego haz click en el objeto de tu elección.<br>Si estás listo(a),<span style=\"color:red;\"> haz click en \"comenzar\"</span>.</p>","response":0,"trial_type":"html-button-response","trial_index":49,"time_elapsed":73409248,"internal_node_id":"0.0-10.0"},{"rt":26504.09999999404,"grid":[[1,1,1,1,1]],"target":[0,0],"response":[0,4],"correct":false,"juego":3,"trial_type":"serial-reaction-time-mouse","trial_index":50,"time_elapsed":73435756,"internal_node_id":"0.0-11.0-0.0"},{"rt":6218.5,"grid":[[1,1,1],[1,1,1],[1,1,1],[1,1,1],[1,1,1],[1,1,1],[1,1,1],[1,1,1],[1,1,1],[1,1,1],[1,1,1]],"target":[0,0],"response":[7,1],"correct":false,"juego":6,"trial_type":"serial-reaction-time-mouse","trial_index":51,"time_elapsed":73441977,"internal_node_id":"0.0-11.0-1.0"},{"rt":15140.90000000596,"grid":[[1,1,1,1,1]],"target":[0,0],"response":[0,1],"correct":false,"juego":9,"trial_type":"serial-reaction-time-mouse","trial_index":52,"time_elapsed":73457121,"internal_node_id":"0.0-11.0-2.0"},{"rt":16984.59999999404,"grid":[[1,1,1],[1,1,1],[1,1,1],[1,1,1],[1,1,1],[1,1,1],[1,1,1],[1,1,1],[1,1,1],[1,1,1],[1,1,1]],"target":[0,0],"response":[5,2],"correct":false,"juego":10,"trial_type":"serial-reaction-time-mouse","trial_index":53,"time_elapsed":73474109,"internal_node_id":"0.0-11.0-3.0"},{"rt":13143.40000000596,"grid":[[1,1,1,1,1]],"target":[0,0],"response":[0,2],"correct":false,"juego":8,"trial_type":"serial-reaction-time-mouse","trial_index":54,"time_elapsed":73487255,"internal_node_id":"0.0-11.0-4.0"},{"rt":18425.30000001192,"grid":[[1,1,1,1,1]],"target":[0,0],"response":[0,4],"correct":false,"juego":11,"trial_type":"serial-reaction-time-mouse","trial_index":55,"time_elapsed":73505682,"internal_node_id":"0.0-11.0-5.0"},{"rt":9051.09999999404,"grid":[[1,1,1,1,1]],"target":[0,0],"response":[0,0],"correct":true,"juego":2,"trial_type":"serial-reaction-time-mouse","trial_index":56,"time_elapsed":73514736,"internal_node_id":"0.0-11.0-6.0"},{"rt":13657.199999988079,"grid":[[1,1,1],[1,1,1],[1,1,1],[1,1,1],[1,1,1],[1,1,1],[1,1,1],[1,1,1],[1,1,1],[1,1,1],[1,1,1]],"target":[0,0],"response":[3,1],"correct":false,"juego":13,"trial_type":"serial-reaction-time-mouse","trial_index":57,"time_elapsed":73528396,"internal_node_id":"0.0-11.0-7.0"},{"rt":7711.299999982119,"grid":[[1],[1],[1],[1],[1]],"target":[0,0],"response":[3,0],"correct":false,"juego":4,"trial_type":"serial-reaction-time-mouse","trial_index":58,"time_elapsed":73536110,"internal_node_id":"0.0-11.0-8.0"},{"rt":12988.40000000596,"grid":[[1,1,1,1,1]],"target":[0,0],"response":[0,0],"correct":true,"juego":7,"trial_type":"serial-reaction-time-mouse","trial_index":59,"time_elapsed":73549101,"internal_node_id":"0.0-11.0-9.0"},{"rt":16854,"grid":[[1,1,1,1],[1,1,1,1],[1,1,1,1],[1,1,1,1],[1,1,1,1],[1,1,1,1],[1,1,1,1],[1,1,1,1],[1,1,1,1],[1,1,1,1],[1,1,1,1]],"target":[0,0],"response":[3,2],"correct":false,"juego":15,"trial_type":"serial-reaction-time-mouse","trial_index":60,"time_elapsed":73565960,"internal_node_id":"0.0-11.0-10.0"},{"rt":14808.59999999404,"grid":[[1,1,1,1],[1,1,1,1],[1,1,1,1],[1,1,1,1],[1,1,1,1],[1,1,1,1],[1,1,1,1],[1,1,1,1],[1,1,1,1],[1,1,1,1],[1,1,1,1]],"target":[0,0],"response":[3,2],"correct":false,"juego":14,"trial_type":"serial-reaction-time-mouse","trial_index":61,"time_elapsed":73580773,"internal_node_id":"0.0-11.0-11.0"},{"rt":4926,"grid":[[1,1,1,1,1]],"target":[0,0],"response":[0,1],"correct":false,"juego":1,"trial_type":"serial-reaction-time-mouse","trial_index":62,"time_elapsed":73585701,"internal_node_id":"0.0-11.0-12.0"},{"rt":9195.800000011921,"grid":[[1,1,1,1,1]],"target":[0,0],"response":[0,0],"correct":true,"juego":12,"trial_type":"serial-reaction-time-mouse","trial_index":63,"time_elapsed":73594899,"internal_node_id":"0.0-11.0-13.0"},{"rt":12190,"grid":[[1,1,1],[1,1,1],[1,1,1],[1,1,1],[1,1,1],[1,1,1],[1,1,1],[1,1,1],[1,1,1],[1,1,1],[1,1,1]],"target":[0,0],"response":[1,1],"correct":false,"juego":5,"trial_type":"serial-reaction-time-mouse","trial_index":64,"time_elapsed":73607090,"internal_node_id":"0.0-11.0-14.0"},{"rt":4860.5,"stimulus":"<h1>Último juego</h1><p style=\"font-size: 130%;\">Tienes <span style=\"color:red\">35</span> segundos para recordar los pares de palabras que aparecerán a continuación. <br></p>","response":0,"trial_type":"html-button-response","trial_index":65,"time_elapsed":73611953,"internal_node_id":"0.0-12.0"},{"animation_sequence":[{"stimulus":"imagen_juego_interferencia.jpg","time":524.9000000059605},{"stimulus":"imagen_juego_interferencia.jpg","time":1002},{"stimulus":"imagen_juego_interferencia.jpg","time":1502.5},{"stimulus":"imagen_juego_interferencia.jpg","time":2003.0999999940395},{"stimulus":"imagen_juego_interferencia.jpg","time":2502.2000000178814},{"stimulus":"imagen_juego_interferencia.jpg","time":3001.9000000059605},{"stimulus":"imagen_juego_interferencia.jpg","time":3502},{"stimulus":"imagen_juego_interferencia.jpg","time":4002},{"stimulus":"imagen_juego_interferencia.jpg","time":4501.700000017881},{"stimulus":"imagen_juego_interferencia.jpg","time":5002.200000017881},{"stimulus":"imagen_juego_interferencia.jpg","time":5502.5},{"stimulus":"imagen_juego_interferencia.jpg","time":6002.200000017881},{"stimulus":"imagen_juego_interferencia.jpg","time":6502},{"stimulus":"imagen_juego_interferencia.jpg","time":7001.800000011921},{"stimulus":"imagen_juego_interferencia.jpg","time":7501.800000011921},{"stimulus":"imagen_juego_interferencia.jpg","time":8002.0999999940395},{"stimulus":"imagen_juego_interferencia.jpg","time":8502.09999999404},{"stimulus":"imagen_juego_interferencia.jpg","time":9002.5},{"stimulus":"imagen_juego_interferencia.jpg","time":9501.90000000596},{"stimulus":"imagen_juego_interferencia.jpg","time":10002},{"stimulus":"imagen_juego_interferencia.jpg","time":10502.5},{"stimulus":"imagen_juego_interferencia.jpg","time":11001.700000017881},{"stimulus":"imagen_juego_interferencia.jpg","time":11502.40000000596},{"stimulus":"imagen_juego_interferencia.jpg","time":12002},{"stimulus":"imagen_juego_interferencia.jpg","time":12501.40000000596},{"stimulus":"imagen_juego_interferencia.jpg","time":13001.5},{"stimulus":"imagen_juego_interferencia.jpg","time":13502.40000000596},{"stimulus":"imagen_juego_interferencia.jpg","time":14001.800000011921},{"stimulus":"imagen_juego_interferencia.jpg","time":14501.800000011921},{"stimulus":"imagen_juego_interferencia.jpg","time":15001.90000000596},{"stimulus":"imagen_juego_interferencia.jpg","time":15502.59999999404},{"stimulus":"imagen_juego_interferencia.jpg","time":16002.200000017881},{"stimulus":"imagen_juego_interferencia.jpg","time":16501.5},{"stimulus":"imagen_juego_interferencia.jpg","time":17002.09999999404},{"stimulus":"imagen_juego_interferencia.jpg","time":17501.59999999404},{"stimulus":"imagen_juego_interferencia.jpg","time":18001.70000001788},{"stimulus":"imagen_juego_interferencia.jpg","time":18501.80000001192},{"stimulus":"imagen_juego_interferencia.jpg","time":19002},{"stimulus":"imagen_juego_interferencia.jpg","time":19501.70000001788},{"stimulus":"imagen_juego_interferencia.jpg","time":20002.20000001788},{"stimulus":"imagen_juego_interferencia.jpg","time":20501.59999999404},{"stimulus":"imagen_juego_interferencia.jpg","time":21002},{"stimulus":"imagen_juego_interferencia.jpg","time":21502.5},{"stimulus":"imagen_juego_interferencia.jpg","time":22001.90000000596},{"stimulus":"imagen_juego_interferencia.jpg","time":22501.5},{"stimulus":"imagen_juego_interferencia.jpg","time":23001.90000000596},{"stimulus":"imagen_juego_interferencia.jpg","time":23501.59999999404},{"stimulus":"imagen_juego_interferencia.jpg","time":24002.09999999404},{"stimulus":"imagen_juego_interferencia.jpg","time":24501.70000001788},{"stimulus":"imagen_juego_interferencia.jpg","time":25002.40000000596},{"stimulus":"imagen_juego_interferencia.jpg","time":25502.09999999404},{"stimulus":"imagen_juego_interferencia.jpg","time":26002.5},{"stimulus":"imagen_juego_interferencia.jpg","time":26501.5},{"stimulus":"imagen_juego_interferencia.jpg","time":27001.80000001192},{"stimulus":"imagen_juego_interferencia.jpg","time":27501.5},{"stimulus":"imagen_juego_interferencia.jpg","time":28001.59999999404},{"stimulus":"imagen_juego_interferencia.jpg","time":28501.40000000596},{"stimulus":"imagen_juego_interferencia.jpg","time":29001.5},{"stimulus":"imagen_juego_interferencia.jpg","time":29501.80000001192},{"stimulus":"imagen_juego_interferencia.jpg","time":30002.30000001192},{"stimulus":"imagen_juego_interferencia.jpg","time":30501.70000001788},{"stimulus":"imagen_juego_interferencia.jpg","time":31002.40000000596},{"stimulus":"imagen_juego_interferencia.jpg","time":31501.90000000596},{"stimulus":"imagen_juego_interferencia.jpg","time":32002.20000001788},{"stimulus":"imagen_juego_interferencia.jpg","time":32502},{"stimulus":"imagen_juego_interferencia.jpg","time":33001.70000001788},{"stimulus":"imagen_juego_interferencia.jpg","time":33501.70000001788},{"stimulus":"imagen_juego_interferencia.jpg","time":34002.09999999404},{"stimulus":"imagen_juego_interferencia.jpg","time":34502.5},{"stimulus":"imagen_juego_interferencia.jpg","time":35002.09999999404}],"response":[],"trial_type":"animation","trial_index":66,"time_elapsed":73647458,"internal_node_id":"0.0-13.0"},{"rt":8166.5,"responses":"{\"pregunta interferencia2\":\"saltamontes\"}","question_order":"[0]","trial_type":"survey-multi-choice-cuest","trial_index":67,"time_elapsed":73655627,"internal_node_id":"0.0-14.0-0.0"},{"rt":14065.40000000596,"responses":"{\"pregunta interferencia4\":\"contador\"}","question_order":"[0]","trial_type":"survey-multi-choice-cuest","trial_index":68,"time_elapsed":73669695,"internal_node_id":"0.0-14.0-1.0"},{"rt":5292.4000000059605,"responses":"{\"pregunta interferencia3\":\"aluminio\"}","question_order":"[0]","trial_type":"survey-multi-choice-cuest","trial_index":69,"time_elapsed":73674990,"internal_node_id":"0.0-14.0-2.0"},{"rt":5621.5,"responses":"{\"pregunta interferencia1\":\"naranja\"}","question_order":"[0]","trial_type":"survey-multi-choice-cuest","trial_index":70,"time_elapsed":73680614,"internal_node_id":"0.0-14.0-3.0"},{"success":true,"trial_type":"fullscreen","trial_index":71,"time_elapsed":73681618,"internal_node_id":"0.0-15.0"}]