[{"rt":18801.89999999106,"stimulus":"<h1 style=\"color:red; margin-top: 3%;\">¡Bienvenido(a)!</h1><p style=\"text-align:left; justify-content:space-between; margin-right: 5%; margin-left: 5%; margin-top: 5%\"> Antes de empezar el estudio, necesitamos que nos confirmes que estás de acuerdo con participar. Recuerda que tu participación es 100% voluntaria y que lo único que te pedimos es responder lo mejor que puedas. Recuerda también que el estudio incluye:</p><ol style=\"text-align:left; justify-content:space-between; margin-right: 5%; margin-left: 5%;\"><li> un ejercicio de resolución de preguntas de selección múltiple (30’),</li><li>un cuestionario breve (5’),</li><li>un juego muy breve (3’),</li></ol><p style=\"text-align:left; justify-content:space-between; margin-right: 5%; margin-left: 5%;\">Si quieres participar, haz clic en “Acepto” luego de leer lo siguiente:<br></p><p style=\"text-align:left; justify-content:space-between; margin-right: 5%; margin-left: 5%;\">Acepto participar en el estudio “Estrategias de lectura y resolución de preguntas de selección múltiple”, en los términos aquí señalados:<br></p><p style=\"text-align:left; justify-content:space-between; margin-right: 5%; margin-left: 5%;\"><a href=\"http://ciae.uchile.cl/download.php?file=noticias/Asentimiento.pdf\" target=\"_blank\">Link a la hoja de información del Consentimiento.</a></p><p style=\"text-align:left; justify-content:space-between; margin-right: 5%; margin-left: 5%;\">Declaro que he leído (o se me ha leído) y (he) comprendido, las condiciones de mi participación en este estudio. He tenido la oportunidad de hacer preguntas y éstas han sido respondidas. No tengo dudas al respecto.</p>","response":0,"condicion_MCQ":12,"condicion_JUEGO":32,"condicion_INTER":8,"numero_participante":32,"numero_version":1,"dimx":1366,"dimy":768,"color_profundidad":24,"pixel_profundidad":24,"Browser":"Google Chrome","dia":18,"mes":5,"hora":15,"minuto":46,"segundo":38,"trial_type":"html-button-response","trial_index":0,"time_elapsed":18805,"internal_node_id":"0.0-0.0"},{"success":true,"trial_type":"fullscreen","trial_index":1,"time_elapsed":28729,"internal_node_id":"0.0-1.0"},{"rt":164820,"responses":"{\"Nombres\":\"francisca andrea\",\"Apellidos\":\"hernandez carrasco\",\"Edad\":\"19\",\"Sexo\":\"mujer\",\"Curso\":\"seccion 1236\",\"Colegio\":\"universidad andres bello \",\"Contacto\":\"franciscahcarrasco@gmail.com\"}","trial_type":"survey-text","trial_index":2,"time_elapsed":193566,"internal_node_id":"0.0-2.0"},{"success":true,"timeout":false,"failed_images":[],"failed_audio":[],"failed_video":[],"trial_type":"preload","trial_index":3,"time_elapsed":196657,"internal_node_id":"0.0-3.0"},{"rt":9123.10000000894,"stimulus":"<h1 style:\"margin-top: 5%;\">Ejercicios de Comprensión de Lectura de la Universidad de Chile</h1><p style=\"font-size: 120%;\">En esta actividad, debes responder 20 preguntas de selección múltiple. Cada pregunta presenta 5 respuestas alternativas, pero sólo una de ellas es correcta. Por lo tanto, debes escoger una sola alternativa para cada pregunta. Además, debes reportar qué tan seguro(a) estás de la respuesta que das, con un:</p><ol style=\"font-size: 120%;text-align:left;margin-left: 40%;\"><li>No estoy seguro(a) para nada</li><li>No estoy muy seguro(a)</li><li>Estoy bastante seguro(a)</li><li>Estoy totalmente seguro(a)</li></ol><p style=\"font-size: 120%;\">Por favor lee bien los enunciados antes de responder. ¡Éxito!</p>","response":0,"trial_type":"html-button-response","trial_index":4,"time_elapsed":205782,"internal_node_id":"0.0-4.0"},{"rt":114343.69999998808,"responses":"{\"pregunta17\":\"b) Nuestra economía vivirá un proceso de ajuste a la nueva realidad.\"}","question_order":"[0]","trial_type":"survey-multi-choice","trial_index":5,"time_elapsed":320127,"internal_node_id":"0.0-5.0-0.0"},{"rt":4784.20000000298,"response":{"pregunta17 likert":2},"question_order":[0],"trial_type":"survey-likert","trial_index":6,"time_elapsed":324917,"internal_node_id":"0.0-5.0-1.0"},{"rt":85126.5,"responses":"{\"pregunta12\":\"a) el uranio es el elemento natural con el mayor número de protones en el núcleo.\"}","question_order":"[0]","trial_type":"survey-multi-choice","trial_index":7,"time_elapsed":410049,"internal_node_id":"0.0-5.0-2.0"},{"rt":3502.8999999910593,"response":{"pregunta12 likert":3},"question_order":[0],"trial_type":"survey-likert","trial_index":8,"time_elapsed":413557,"internal_node_id":"0.0-5.0-3.0"},{"rt":130903.80000001192,"responses":"{\"pregunta16\":\"b) sufren dolores de espalda.\"}","question_order":"[0]","trial_type":"survey-multi-choice","trial_index":9,"time_elapsed":544465,"internal_node_id":"0.0-5.0-4.0"},{"rt":3328.0999999940395,"response":{"pregunta16 likert":2},"question_order":[0],"trial_type":"survey-likert","trial_index":10,"time_elapsed":547798,"internal_node_id":"0.0-5.0-5.0"},{"rt":73138.10000000894,"responses":"{\"pregunta18\":\"c) Se necesita un marco legal para delimitar lo público y lo privado en materia informativa.\"}","question_order":"[0]","trial_type":"survey-multi-choice","trial_index":11,"time_elapsed":620942,"internal_node_id":"0.0-5.0-6.0"},{"rt":3031,"response":{"pregunta18 likert":3},"question_order":[0],"trial_type":"survey-likert","trial_index":12,"time_elapsed":623978,"internal_node_id":"0.0-5.0-7.0"},{"rt":73963,"responses":"{\"pregunta4\":\"c) Presentar positivamente las diversas tendencias del diseño de interiores a través de un comentario.\"}","question_order":"[0]","trial_type":"survey-multi-choice","trial_index":13,"time_elapsed":697945,"internal_node_id":"0.0-5.0-8.0"},{"rt":2287.4000000059605,"response":{"pregunta4 likert":2},"question_order":[0],"trial_type":"survey-likert","trial_index":14,"time_elapsed":700237,"internal_node_id":"0.0-5.0-9.0"},{"rt":54633.20000000298,"responses":"{\"pregunta10\":\"a) Al premio merecido después de tantos esfuerzos.\"}","question_order":"[0]","trial_type":"survey-multi-choice","trial_index":15,"time_elapsed":754875,"internal_node_id":"0.0-5.0-10.0"},{"rt":2131,"response":{"pregunta10 likert":3},"question_order":[0],"trial_type":"survey-likert","trial_index":16,"time_elapsed":757011,"internal_node_id":"0.0-5.0-11.0"},{"rt":102740,"responses":"{\"pregunta1\":\"c) Aportan informaciones con las que se reconstruye el personaje dentro de un relato.\"}","question_order":"[0]","trial_type":"survey-multi-choice","trial_index":17,"time_elapsed":859756,"internal_node_id":"0.0-5.0-12.0"},{"rt":2815.0999999940395,"response":{"pregunta1 likert":1},"question_order":[0],"trial_type":"survey-likert","trial_index":18,"time_elapsed":862576,"internal_node_id":"0.0-5.0-13.0"},{"rt":38987.5,"responses":"{\"pregunta8\":\"e) Provocar el deseo de la adquisición vertiginosa.\"}","question_order":"[0]","trial_type":"survey-multi-choice","trial_index":19,"time_elapsed":901567,"internal_node_id":"0.0-5.0-14.0"},{"rt":3288.7999999970198,"response":{"pregunta8 likert":2},"question_order":[0],"trial_type":"survey-likert","trial_index":20,"time_elapsed":904861,"internal_node_id":"0.0-5.0-15.0"},{"rt":98948.40000000596,"responses":"{\"pregunta5\":\"d) El ser humano se comporta de acuerdo con las circunstancias.\"}","question_order":"[0]","trial_type":"survey-multi-choice","trial_index":21,"time_elapsed":1003814,"internal_node_id":"0.0-5.0-16.0"},{"rt":3475.2999999970198,"response":{"pregunta5 likert":1},"question_order":[0],"trial_type":"survey-likert","trial_index":22,"time_elapsed":1007294,"internal_node_id":"0.0-5.0-17.0"},{"rt":50758,"responses":"{\"pregunta13\":\"c) Se debe crear un seguro médico especial para esta institución, pues es de alto riesgo.\"}","question_order":"[0]","trial_type":"survey-multi-choice","trial_index":23,"time_elapsed":1058057,"internal_node_id":"0.0-5.0-18.0"},{"rt":5546.100000008941,"response":{"pregunta13 likert":3},"question_order":[0],"trial_type":"survey-likert","trial_index":24,"time_elapsed":1063608,"internal_node_id":"0.0-5.0-19.0"},{"rt":45458.70000000298,"responses":"{\"pregunta7\":\"e) ritualistas y obsesivos.\"}","question_order":"[0]","trial_type":"survey-multi-choice","trial_index":25,"time_elapsed":1109071,"internal_node_id":"0.0-5.0-20.0"},{"rt":3726.7999999970198,"response":{"pregunta7 likert":3},"question_order":[0],"trial_type":"survey-likert","trial_index":26,"time_elapsed":1112803,"internal_node_id":"0.0-5.0-21.0"},{"rt":41041.70000000298,"responses":"{\"pregunta14\":\"b) A la influencia de grupos que rechazaban su música.\"}","question_order":"[0]","trial_type":"survey-multi-choice","trial_index":27,"time_elapsed":1153850,"internal_node_id":"0.0-5.0-22.0"},{"rt":2671.8999999910593,"response":{"pregunta14 likert":3},"question_order":[0],"trial_type":"survey-likert","trial_index":28,"time_elapsed":1156527,"internal_node_id":"0.0-5.0-23.0"},{"rt":103766.5,"responses":"{\"pregunta11\":\"a) el mejor emperador es el que está muerto.\"}","question_order":"[0]","trial_type":"survey-multi-choice","trial_index":29,"time_elapsed":1260299,"internal_node_id":"0.0-5.0-24.0"},{"rt":3374.2999999970198,"response":{"pregunta11 likert":1},"question_order":[0],"trial_type":"survey-likert","trial_index":30,"time_elapsed":1263678,"internal_node_id":"0.0-5.0-25.0"},{"rt":71549.5,"responses":"{\"pregunta2\":\"a) A la relación entre sociedad y constitución social.\"}","question_order":"[0]","trial_type":"survey-multi-choice","trial_index":31,"time_elapsed":1335232,"internal_node_id":"0.0-5.0-26.0"},{"rt":2016.199999988079,"response":{"pregunta2 likert":2},"question_order":[0],"trial_type":"survey-likert","trial_index":32,"time_elapsed":1337252,"internal_node_id":"0.0-5.0-27.0"},{"rt":49893.20000000298,"responses":"{\"pregunta9\":\"e) Homenajear a quienes murieron.\"}","question_order":"[0]","trial_type":"survey-multi-choice","trial_index":33,"time_elapsed":1387150,"internal_node_id":"0.0-5.0-28.0"},{"rt":2202.7999999970198,"response":{"pregunta9 likert":3},"question_order":[0],"trial_type":"survey-likert","trial_index":34,"time_elapsed":1389358,"internal_node_id":"0.0-5.0-29.0"},{"rt":127933.79999999702,"responses":"{\"pregunta6\":\"e) preparar los recuerdos del mañana.\"}","question_order":"[0]","trial_type":"survey-multi-choice","trial_index":35,"time_elapsed":1517296,"internal_node_id":"0.0-5.0-30.0"},{"rt":2597.5,"response":{"pregunta6 likert":2},"question_order":[0],"trial_type":"survey-likert","trial_index":36,"time_elapsed":1519899,"internal_node_id":"0.0-5.0-31.0"},{"rt":41068.60000000894,"responses":"{\"pregunta15\":\"d) La publicidad ejerce una influencia positiva sobre la sociedad.\"}","question_order":"[0]","trial_type":"survey-multi-choice","trial_index":37,"time_elapsed":1560972,"internal_node_id":"0.0-5.0-32.0"},{"rt":1944.7999999970198,"response":{"pregunta15 likert":3},"question_order":[0],"trial_type":"survey-likert","trial_index":38,"time_elapsed":1562922,"internal_node_id":"0.0-5.0-33.0"},{"rt":40512.20000000298,"responses":"{\"pregunta20\":\"a) para el mexicano, la muerte es como una mujer.\"}","question_order":"[0]","trial_type":"survey-multi-choice","trial_index":39,"time_elapsed":1603440,"internal_node_id":"0.0-5.0-34.0"},{"rt":1914.5999999940395,"response":{"pregunta20 likert":1},"question_order":[0],"trial_type":"survey-likert","trial_index":40,"time_elapsed":1605360,"internal_node_id":"0.0-5.0-35.0"},{"rt":97210.89999999106,"responses":"{\"pregunta3\":\"b) La escritura plasma los mejores momentos de los viajes.\"}","question_order":"[0]","trial_type":"survey-multi-choice","trial_index":41,"time_elapsed":1702575,"internal_node_id":"0.0-5.0-36.0"},{"rt":4978.20000000298,"response":{"pregunta3 likert":2},"question_order":[0],"trial_type":"survey-likert","trial_index":42,"time_elapsed":1707558,"internal_node_id":"0.0-5.0-37.0"},{"rt":51025,"responses":"{\"pregunta19\":\"c) el jardinero estará muerto al día siguiente.\"}","question_order":"[0]","trial_type":"survey-multi-choice","trial_index":43,"time_elapsed":1758587,"internal_node_id":"0.0-5.0-38.0"},{"rt":2540.2000000029802,"response":{"pregunta19 likert":3},"question_order":[0],"trial_type":"survey-likert","trial_index":44,"time_elapsed":1761132,"internal_node_id":"0.0-5.0-39.0"}]