[{"rt":56005.800000000745,"stimulus":"<h1 style=\"color:red; margin-top: 3%;\">¡Bienvenido(a)!</h1><p style=\"text-align:left; justify-content:space-between; margin-right: 5%; margin-left: 5%; margin-top: 5%\"> Antes de empezar el estudio, necesitamos que nos confirmes que estás de acuerdo con participar. Recuerda que tu participación es 100% voluntaria y que lo único que te pedimos es responder lo mejor que puedas. Recuerda también que el estudio incluye:</p><ol style=\"text-align:left; justify-content:space-between; margin-right: 5%; margin-left: 5%;\"><li> un ejercicio de resolución de preguntas de selección múltiple (30’),</li><li>un cuestionario breve (5’),</li><li>un juego muy breve (3’),</li></ol><p style=\"text-align:left; justify-content:space-between; margin-right: 5%; margin-left: 5%;\">Si quieres participar, haz clic en “Acepto” luego de leer lo siguiente:<br></p><p style=\"text-align:left; justify-content:space-between; margin-right: 5%; margin-left: 5%;\">Acepto participar en el estudio “Estrategias de lectura y resolución de preguntas de selección múltiple”, en los términos aquí señalados:<br></p><p style=\"text-align:left; justify-content:space-between; margin-right: 5%; margin-left: 5%;\"><a href=\"http://ciae.uchile.cl/download.php?file=noticias/Asentimiento.pdf\" target=\"_blank\">Link a la hoja de información del Consentimiento.</a></p><p style=\"text-align:left; justify-content:space-between; margin-right: 5%; margin-left: 5%;\">Declaro que he leído (o se me ha leído) y (he) comprendido, las condiciones de mi participación en este estudio. He tenido la oportunidad de hacer preguntas y éstas han sido respondidas. No tengo dudas al respecto.</p>","response":0,"condicion_MCQ":14,"condicion_JUEGO":54,"condicion_INTER":6,"numero_participante":54,"numero_version":1,"dimx":384,"dimy":854,"color_profundidad":24,"pixel_profundidad":24,"Browser":"Google Chrome","dia":20,"mes":5,"hora":10,"minuto":32,"segundo":42,"trial_type":"html-button-response","trial_index":0,"time_elapsed":56015,"internal_node_id":"0.0-0.0"},{"success":true,"trial_type":"fullscreen","trial_index":1,"time_elapsed":69705,"internal_node_id":"0.0-1.0"},{"rt":194486.19999999925,"responses":"{\"Nombres\":\"David Eduardo\",\"Apellidos\":\"Vicencio Zapata\",\"Edad\":\"36\",\"Sexo\":\"Hombre \",\"Curso\":\"Vespertino \",\"Colegio\":\"Universidad Andres Bello \",\"Contacto\":\"David.vicencio@outlook.es\"}","trial_type":"survey-text","trial_index":2,"time_elapsed":264216,"internal_node_id":"0.0-2.0"},{"success":true,"timeout":false,"failed_images":[],"failed_audio":[],"failed_video":[],"trial_type":"preload","trial_index":3,"time_elapsed":265337,"internal_node_id":"0.0-3.0"},{"rt":37837,"stimulus":"<h1 style:\"margin-top: 5%;\">Ejercicios de Comprensión de Lectura de la Universidad de Chile</h1><p style=\"font-size: 120%;\">En esta actividad, debes responder 20 preguntas de selección múltiple. Cada pregunta presenta 5 respuestas alternativas, pero sólo una de ellas es correcta. Por lo tanto, debes escoger una sola alternativa para cada pregunta. Además, debes reportar qué tan seguro(a) estás de la respuesta que das, con un:</p><ol style=\"font-size: 120%;text-align:left;margin-left: 40%;\"><li>No estoy seguro(a) para nada</li><li>No estoy muy seguro(a)</li><li>Estoy bastante seguro(a)</li><li>Estoy totalmente seguro(a)</li></ol><p style=\"font-size: 120%;\">Por favor lee bien los enunciados antes de responder. ¡Éxito!</p>","response":0,"trial_type":"html-button-response","trial_index":4,"time_elapsed":303179,"internal_node_id":"0.0-4.0"},{"rt":225040.5,"responses":"{\"pregunta4\":\"e) Promover la asistencia a un evento específico de decoración a través de una atractiva descripción.\"}","question_order":"[0]","trial_type":"survey-multi-choice","trial_index":5,"time_elapsed":528226,"internal_node_id":"0.0-5.0-0.0"},{"rt":11744.800000000745,"response":{"pregunta4 likert":1},"question_order":[0],"trial_type":"survey-likert","trial_index":6,"time_elapsed":539980,"internal_node_id":"0.0-5.0-1.0"},{"rt":137475.5,"responses":"{\"pregunta8\":\"a) Provocar el deseo de la adquisición vertiginosa.\"}","question_order":"[0]","trial_type":"survey-multi-choice","trial_index":7,"time_elapsed":677462,"internal_node_id":"0.0-5.0-2.0"},{"rt":1922.5999999977648,"response":{"pregunta8 likert":3},"question_order":[0],"trial_type":"survey-likert","trial_index":8,"time_elapsed":679391,"internal_node_id":"0.0-5.0-3.0"},{"rt":138924.1000000015,"responses":"{\"pregunta7\":\"e) ritualistas y obsesivos.\"}","question_order":"[0]","trial_type":"survey-multi-choice","trial_index":9,"time_elapsed":818318,"internal_node_id":"0.0-5.0-4.0"},{"rt":2097.10000000149,"response":{"pregunta7 likert":3},"question_order":[0],"trial_type":"survey-likert","trial_index":10,"time_elapsed":820419,"internal_node_id":"0.0-5.0-5.0"},{"rt":131274.80000000075,"responses":"{\"pregunta18\":\"c) Se necesita un marco legal para delimitar lo público y lo privado en materia informativa.\"}","question_order":"[0]","trial_type":"survey-multi-choice","trial_index":11,"time_elapsed":951698,"internal_node_id":"0.0-5.0-6.0"},{"rt":2779,"response":{"pregunta18 likert":3},"question_order":[0],"trial_type":"survey-likert","trial_index":12,"time_elapsed":954482,"internal_node_id":"0.0-5.0-7.0"},{"rt":268174.5,"responses":"{\"pregunta16\":\"a) llevan un control grupal de su embarazo.\"}","question_order":"[0]","trial_type":"survey-multi-choice","trial_index":13,"time_elapsed":1222664,"internal_node_id":"0.0-5.0-8.0"},{"rt":2921.199999999255,"response":{"pregunta16 likert":1},"question_order":[0],"trial_type":"survey-likert","trial_index":14,"time_elapsed":1225590,"internal_node_id":"0.0-5.0-9.0"},{"rt":184674.80000000075,"responses":"{\"pregunta20\":\"c) el mexicano ama morir.\"}","question_order":"[0]","trial_type":"survey-multi-choice","trial_index":15,"time_elapsed":1410275,"internal_node_id":"0.0-5.0-10.0"},{"rt":1608.5,"response":{"pregunta20 likert":1},"question_order":[0],"trial_type":"survey-likert","trial_index":16,"time_elapsed":1411889,"internal_node_id":"0.0-5.0-11.0"},{"rt":155507.5,"responses":"{\"pregunta2\":\"d) A la relación entre pensamiento y estructura social.\"}","question_order":"[0]","trial_type":"survey-multi-choice","trial_index":17,"time_elapsed":1567403,"internal_node_id":"0.0-5.0-12.0"},{"rt":1636.5,"response":{"pregunta2 likert":2},"question_order":[0],"trial_type":"survey-likert","trial_index":18,"time_elapsed":1569049,"internal_node_id":"0.0-5.0-13.0"},{"rt":136377.69999999925,"responses":"{\"pregunta5\":\"e) El ser humano se comporta de acuerdo con las circunstancias.\"}","question_order":"[0]","trial_type":"survey-multi-choice","trial_index":19,"time_elapsed":1705434,"internal_node_id":"0.0-5.0-14.0"},{"rt":3628.300000000745,"response":{"pregunta5 likert":3},"question_order":[0],"trial_type":"survey-likert","trial_index":20,"time_elapsed":1709069,"internal_node_id":"0.0-5.0-15.0"},{"rt":65427.10000000149,"responses":"{\"pregunta17\":\"c) Nuestra economía vivirá un proceso de ajuste a la nueva realidad.\"}","question_order":"[0]","trial_type":"survey-multi-choice","trial_index":21,"time_elapsed":1774503,"internal_node_id":"0.0-5.0-16.0"},{"rt":2125,"response":{"pregunta17 likert":3},"question_order":[0],"trial_type":"survey-likert","trial_index":22,"time_elapsed":1776632,"internal_node_id":"0.0-5.0-17.0"},{"rt":71563.5,"responses":"{\"pregunta12\":\"b) el uranio es el elemento natural con el mayor número de protones en el núcleo.\"}","question_order":"[0]","trial_type":"survey-multi-choice","trial_index":23,"time_elapsed":1848200,"internal_node_id":"0.0-5.0-18.0"},{"rt":1696.300000000745,"response":{"pregunta12 likert":3},"question_order":[0],"trial_type":"survey-likert","trial_index":24,"time_elapsed":1849904,"internal_node_id":"0.0-5.0-19.0"},{"rt":159396.19999999925,"responses":"{\"pregunta10\":\"d) A la inutilidad de tanto esfuerzo si el objetivo es el reposo.\"}","question_order":"[0]","trial_type":"survey-multi-choice","trial_index":25,"time_elapsed":2009304,"internal_node_id":"0.0-5.0-20.0"},{"rt":2172.39999999851,"response":{"pregunta10 likert":1},"question_order":[0],"trial_type":"survey-likert","trial_index":26,"time_elapsed":2011484,"internal_node_id":"0.0-5.0-21.0"},{"rt":116150.30000000075,"responses":"{\"pregunta13\":\"b) Bomberos debería tener acceso a un seguro médico, al que pueda recurrir en caso de accidente.\"}","question_order":"[0]","trial_type":"survey-multi-choice","trial_index":27,"time_elapsed":2127642,"internal_node_id":"0.0-5.0-22.0"},{"rt":1739.800000000745,"response":{"pregunta13 likert":3},"question_order":[0],"trial_type":"survey-likert","trial_index":28,"time_elapsed":2129390,"internal_node_id":"0.0-5.0-23.0"},{"rt":150355.80000000075,"responses":"{\"pregunta14\":\"b) A la influencia de grupos que rechazaban su música.\"}","question_order":"[0]","trial_type":"survey-multi-choice","trial_index":29,"time_elapsed":2279751,"internal_node_id":"0.0-5.0-24.0"},{"rt":2613.5,"response":{"pregunta14 likert":3},"question_order":[0],"trial_type":"survey-likert","trial_index":30,"time_elapsed":2282368,"internal_node_id":"0.0-5.0-25.0"},{"rt":169926.3999999985,"responses":"{\"pregunta3\":\"a) Los viajes son siempre propicios para el acto escritural.\"}","question_order":"[0]","trial_type":"survey-multi-choice","trial_index":31,"time_elapsed":2452299,"internal_node_id":"0.0-5.0-26.0"},{"rt":1810.0999999977648,"response":{"pregunta3 likert":2},"question_order":[0],"trial_type":"survey-likert","trial_index":32,"time_elapsed":2454112,"internal_node_id":"0.0-5.0-27.0"},{"rt":96381.5,"responses":"{\"pregunta15\":\"b) El receptor es habitualmente pasivo frente a la publicidad.\"}","question_order":"[0]","trial_type":"survey-multi-choice","trial_index":33,"time_elapsed":2550499,"internal_node_id":"0.0-5.0-28.0"},{"rt":1669.0999999977648,"response":{"pregunta15 likert":3},"question_order":[0],"trial_type":"survey-likert","trial_index":34,"time_elapsed":2552178,"internal_node_id":"0.0-5.0-29.0"},{"rt":123394.19999999925,"responses":"{\"pregunta1\":\"e) Enjuician la acción del narrador dentro del relato.\"}","question_order":"[0]","trial_type":"survey-multi-choice","trial_index":35,"time_elapsed":2675577,"internal_node_id":"0.0-5.0-30.0"},{"rt":1448.300000000745,"response":{"pregunta1 likert":2},"question_order":[0],"trial_type":"survey-likert","trial_index":36,"time_elapsed":2677032,"internal_node_id":"0.0-5.0-31.0"},{"rt":81208.39999999851,"responses":"{\"pregunta19\":\"c) el jardinero estará muerto al día siguiente.\"}","question_order":"[0]","trial_type":"survey-multi-choice","trial_index":37,"time_elapsed":2758247,"internal_node_id":"0.0-5.0-32.0"},{"rt":2338.400000002235,"response":{"pregunta19 likert":1},"question_order":[0],"trial_type":"survey-likert","trial_index":38,"time_elapsed":2760594,"internal_node_id":"0.0-5.0-33.0"},{"rt":126681.39999999851,"responses":"{\"pregunta9\":\"c) Atraer a los turistas.\"}","question_order":"[0]","trial_type":"survey-multi-choice","trial_index":39,"time_elapsed":2887283,"internal_node_id":"0.0-5.0-34.0"},{"rt":2040.800000000745,"response":{"pregunta9 likert":3},"question_order":[0],"trial_type":"survey-likert","trial_index":40,"time_elapsed":2889330,"internal_node_id":"0.0-5.0-35.0"},{"rt":117705.80000000075,"responses":"{\"pregunta11\":\"a) el mejor emperador es el que está muerto.\"}","question_order":"[0]","trial_type":"survey-multi-choice","trial_index":41,"time_elapsed":3007045,"internal_node_id":"0.0-5.0-36.0"},{"rt":2453.5,"response":{"pregunta11 likert":1},"question_order":[0],"trial_type":"survey-likert","trial_index":42,"time_elapsed":3009504,"internal_node_id":"0.0-5.0-37.0"},{"rt":126858.80000000075,"responses":"{\"pregunta6\":\"e) preparar los recuerdos del mañana.\"}","question_order":"[0]","trial_type":"survey-multi-choice","trial_index":43,"time_elapsed":3136366,"internal_node_id":"0.0-5.0-38.0"},{"rt":3018.89999999851,"response":{"pregunta6 likert":1},"question_order":[0],"trial_type":"survey-likert","trial_index":44,"time_elapsed":3139390,"internal_node_id":"0.0-5.0-39.0"}]