[{"rt":8097834.199999988,"stimulus":"<h1 style=\"color:red; margin-top: 3%;\">¡Bienvenido(a)!</h1><p style=\"text-align:left; justify-content:space-between; margin-right: 5%; margin-left: 5%; margin-top: 5%\"> Antes de empezar el estudio, necesitamos que nos confirmes que estás de acuerdo con participar. Recuerda que tu participación es 100% voluntaria y que lo único que te pedimos es responder lo mejor que puedas. Recuerda también que el estudio incluye:</p><ol style=\"text-align:left; justify-content:space-between; margin-right: 5%; margin-left: 5%;\"><li> un ejercicio de resolución de preguntas de selección múltiple (30’),</li><li>un cuestionario breve (5’),</li><li>un juego muy breve (3’),</li></ol><p style=\"text-align:left; justify-content:space-between; margin-right: 5%; margin-left: 5%;\">Si quieres participar, haz clic en “Acepto” luego de leer lo siguiente:<br></p><p style=\"text-align:left; justify-content:space-between; margin-right: 5%; margin-left: 5%;\">Acepto participar en el estudio “Estrategias de lectura y resolución de preguntas de selección múltiple”, en los términos aquí señalados:<br></p><p style=\"text-align:left; justify-content:space-between; margin-right: 5%; margin-left: 5%;\"><a href=\"http://ciae.uchile.cl/download.php?file=noticias/Asentimiento.pdf\" target=\"_blank\">Link a la hoja de información del Consentimiento.</a></p><p style=\"text-align:left; justify-content:space-between; margin-right: 5%; margin-left: 5%;\">Declaro que he leído (o se me ha leído) y (he) comprendido, las condiciones de mi participación en este estudio. He tenido la oportunidad de hacer preguntas y éstas han sido respondidas. No tengo dudas al respecto.</p>","response":0,"condicion_MCQ":7,"condicion_JUEGO":47,"condicion_INTER":23,"numero_participante":47,"numero_version":1,"dimx":1536,"dimy":864,"color_profundidad":24,"pixel_profundidad":24,"Browser":"Google Chrome","dia":19,"mes":5,"hora":16,"minuto":34,"segundo":54,"trial_type":"html-button-response","trial_index":0,"time_elapsed":8097838,"internal_node_id":"0.0-0.0"},{"success":true,"trial_type":"fullscreen","trial_index":1,"time_elapsed":8106706,"internal_node_id":"0.0-1.0"},{"rt":49424,"responses":"{\"Nombres\":\"Dionisio Dante\",\"Apellidos\":\"Leone Brynjarsson\",\"Edad\":\"29\",\"Sexo\":\"Hombre\",\"Curso\":\"1 año, Psicología\",\"Colegio\":\"Universidad Andrés Bello\",\"Contacto\":\"d.leoneb7@gmail.com\"}","trial_type":"survey-text","trial_index":2,"time_elapsed":8156134,"internal_node_id":"0.0-2.0"},{"success":true,"timeout":false,"failed_images":[],"failed_audio":[],"failed_video":[],"trial_type":"preload","trial_index":3,"time_elapsed":8157135,"internal_node_id":"0.0-3.0"},{"rt":23260.600000023842,"stimulus":"<h1 style:\"margin-top: 5%;\">Ejercicios de Comprensión de Lectura de la Universidad de Chile</h1><p style=\"font-size: 120%;\">En esta actividad, debes responder 20 preguntas de selección múltiple. Cada pregunta presenta 5 respuestas alternativas, pero sólo una de ellas es correcta. Por lo tanto, debes escoger una sola alternativa para cada pregunta. Además, debes reportar qué tan seguro(a) estás de la respuesta que das, con un:</p><ol style=\"font-size: 120%;text-align:left;margin-left: 40%;\"><li>No estoy seguro(a) para nada</li><li>No estoy muy seguro(a)</li><li>Estoy bastante seguro(a)</li><li>Estoy totalmente seguro(a)</li></ol><p style=\"font-size: 120%;\">Por favor lee bien los enunciados antes de responder. ¡Éxito!</p>","response":0,"trial_type":"html-button-response","trial_index":4,"time_elapsed":8180397,"internal_node_id":"0.0-4.0"},{"rt":87391,"responses":"{\"pregunta7\":\"d) ritualistas y obsesivos.\"}","question_order":"[0]","trial_type":"survey-multi-choice","trial_index":5,"time_elapsed":8267790,"internal_node_id":"0.0-5.0-0.0"},{"rt":2823.600000023842,"response":{"pregunta7 likert":3},"question_order":[0],"trial_type":"survey-likert","trial_index":6,"time_elapsed":8270615,"internal_node_id":"0.0-5.0-1.0"},{"rt":60773.60000002384,"responses":"{\"pregunta10\":\"e) A la inutilidad de tanto esfuerzo si el objetivo es el reposo.\"}","question_order":"[0]","trial_type":"survey-multi-choice","trial_index":7,"time_elapsed":8331390,"internal_node_id":"0.0-5.0-2.0"},{"rt":1686.9000000357628,"response":{"pregunta10 likert":2},"question_order":[0],"trial_type":"survey-likert","trial_index":8,"time_elapsed":8333078,"internal_node_id":"0.0-5.0-3.0"},{"rt":37358.799999952316,"responses":"{\"pregunta13\":\"b) Se debe crear un seguro médico especial para esta institución, pues es de alto riesgo.\"}","question_order":"[0]","trial_type":"survey-multi-choice","trial_index":9,"time_elapsed":8370438,"internal_node_id":"0.0-5.0-4.0"},{"rt":2742.300000011921,"response":{"pregunta13 likert":2},"question_order":[0],"trial_type":"survey-likert","trial_index":10,"time_elapsed":8373182,"internal_node_id":"0.0-5.0-5.0"},{"rt":77687.09999996424,"responses":"{\"pregunta5\":\"c) El ser humano se comporta de acuerdo con las circunstancias.\"}","question_order":"[0]","trial_type":"survey-multi-choice","trial_index":11,"time_elapsed":8450870,"internal_node_id":"0.0-5.0-6.0"},{"rt":1734.6000000238419,"response":{"pregunta5 likert":3},"question_order":[0],"trial_type":"survey-likert","trial_index":12,"time_elapsed":8452606,"internal_node_id":"0.0-5.0-7.0"},{"rt":24359,"responses":"{\"pregunta17\":\"d) El TLC causará una completa transformación de la economía chilena.\"}","question_order":"[0]","trial_type":"survey-multi-choice","trial_index":13,"time_elapsed":8476966,"internal_node_id":"0.0-5.0-8.0"},{"rt":2022.3999999761581,"response":{"pregunta17 likert":3},"question_order":[0],"trial_type":"survey-likert","trial_index":14,"time_elapsed":8478990,"internal_node_id":"0.0-5.0-9.0"},{"rt":58639,"responses":"{\"pregunta19\":\"b) el jardinero estará muerto al día siguiente.\"}","question_order":"[0]","trial_type":"survey-multi-choice","trial_index":15,"time_elapsed":8537630,"internal_node_id":"0.0-5.0-10.0"},{"rt":2438.7999999523163,"response":{"pregunta19 likert":3},"question_order":[0],"trial_type":"survey-likert","trial_index":16,"time_elapsed":8540070,"internal_node_id":"0.0-5.0-11.0"},{"rt":81886.60000002384,"responses":"{\"pregunta11\":\"c) el Primer Ministro debía morir por ambicioso.\"}","question_order":"[0]","trial_type":"survey-multi-choice","trial_index":17,"time_elapsed":8621958,"internal_node_id":"0.0-5.0-12.0"},{"rt":2142.5,"response":{"pregunta11 likert":2},"question_order":[0],"trial_type":"survey-likert","trial_index":18,"time_elapsed":8624102,"internal_node_id":"0.0-5.0-13.0"},{"rt":78142.90000003576,"responses":"{\"pregunta14\":\"e) A la influencia de grupos que rechazaban su música.\"}","question_order":"[0]","trial_type":"survey-multi-choice","trial_index":19,"time_elapsed":8702246,"internal_node_id":"0.0-5.0-14.0"},{"rt":2302.5,"response":{"pregunta14 likert":1},"question_order":[0],"trial_type":"survey-likert","trial_index":20,"time_elapsed":8704549,"internal_node_id":"0.0-5.0-15.0"},{"rt":141238.80000001192,"responses":"{\"pregunta3\":\"e) En los viajes es esencial el momento mismo de la escritura.\"}","question_order":"[0]","trial_type":"survey-multi-choice","trial_index":21,"time_elapsed":8845789,"internal_node_id":"0.0-5.0-16.0"},{"rt":3142.900000035763,"response":{"pregunta3 likert":1},"question_order":[0],"trial_type":"survey-likert","trial_index":22,"time_elapsed":8848933,"internal_node_id":"0.0-5.0-17.0"},{"rt":60591.299999952316,"responses":"{\"pregunta18\":\"a) Se necesita un marco legal para delimitar lo público y lo privado en materia informativa.\"}","question_order":"[0]","trial_type":"survey-multi-choice","trial_index":23,"time_elapsed":8909526,"internal_node_id":"0.0-5.0-18.0"},{"rt":1830.5,"response":{"pregunta18 likert":3},"question_order":[0],"trial_type":"survey-likert","trial_index":24,"time_elapsed":8911357,"internal_node_id":"0.0-5.0-19.0"},{"rt":129870.69999998808,"responses":"{\"pregunta16\":\"a) sufren dolores de espalda.\"}","question_order":"[0]","trial_type":"survey-multi-choice","trial_index":25,"time_elapsed":9041229,"internal_node_id":"0.0-5.0-20.0"},{"rt":1590.699999988079,"response":{"pregunta16 likert":3},"question_order":[0],"trial_type":"survey-likert","trial_index":26,"time_elapsed":9042821,"internal_node_id":"0.0-5.0-21.0"},{"rt":132222.19999998808,"responses":"{\"pregunta8\":\"d) Provocar el deseo de la adquisición vertiginosa.\"}","question_order":"[0]","trial_type":"survey-multi-choice","trial_index":27,"time_elapsed":9175045,"internal_node_id":"0.0-5.0-22.0"},{"rt":2262.800000011921,"response":{"pregunta8 likert":1},"question_order":[0],"trial_type":"survey-likert","trial_index":28,"time_elapsed":9177309,"internal_node_id":"0.0-5.0-23.0"},{"rt":49878.700000047684,"responses":"{\"pregunta4\":\"c) Promover la asistencia a un evento específico de decoración a través de una atractiva descripción.\"}","question_order":"[0]","trial_type":"survey-multi-choice","trial_index":29,"time_elapsed":9227189,"internal_node_id":"0.0-5.0-24.0"},{"rt":1527.0999999642372,"response":{"pregunta4 likert":3},"question_order":[0],"trial_type":"survey-likert","trial_index":30,"time_elapsed":9228717,"internal_node_id":"0.0-5.0-25.0"},{"rt":78142.69999998808,"responses":"{\"pregunta12\":\"b) la creación de elementos químicos artificiales ha resultado de la manipulación del uranio.\"}","question_order":"[0]","trial_type":"survey-multi-choice","trial_index":31,"time_elapsed":9306861,"internal_node_id":"0.0-5.0-26.0"},{"rt":1430.7999999523163,"response":{"pregunta12 likert":2},"question_order":[0],"trial_type":"survey-likert","trial_index":32,"time_elapsed":9308292,"internal_node_id":"0.0-5.0-27.0"},{"rt":45351.19999998808,"responses":"{\"pregunta1\":\"b) Aportan informaciones con las que se reconstruye el personaje dentro de un relato.\"}","question_order":"[0]","trial_type":"survey-multi-choice","trial_index":33,"time_elapsed":9353645,"internal_node_id":"0.0-5.0-28.0"},{"rt":2646.800000011921,"response":{"pregunta1 likert":2},"question_order":[0],"trial_type":"survey-likert","trial_index":34,"time_elapsed":9356293,"internal_node_id":"0.0-5.0-29.0"},{"rt":271342.90000003576,"responses":"{\"pregunta6\":\"d) la persistencia de la melancolía y la desesperanza.\"}","question_order":"[0]","trial_type":"survey-multi-choice","trial_index":35,"time_elapsed":9627637,"internal_node_id":"0.0-5.0-30.0"},{"rt":1886.2999999523163,"response":{"pregunta6 likert":2},"question_order":[0],"trial_type":"survey-likert","trial_index":36,"time_elapsed":9629524,"internal_node_id":"0.0-5.0-31.0"},{"rt":75814.5,"responses":"{\"pregunta2\":\"b) A la relación entre pensamiento y estructura social.\"}","question_order":"[0]","trial_type":"survey-multi-choice","trial_index":37,"time_elapsed":9705340,"internal_node_id":"0.0-5.0-32.0"},{"rt":1254.800000011921,"response":{"pregunta2 likert":2},"question_order":[0],"trial_type":"survey-likert","trial_index":38,"time_elapsed":9706596,"internal_node_id":"0.0-5.0-33.0"},{"rt":119470.60000002384,"responses":"{\"pregunta15\":\"a) El receptor es habitualmente pasivo frente a la publicidad.\"}","question_order":"[0]","trial_type":"survey-multi-choice","trial_index":39,"time_elapsed":9826068,"internal_node_id":"0.0-5.0-34.0"},{"rt":2767,"response":{"pregunta15 likert":2},"question_order":[0],"trial_type":"survey-likert","trial_index":40,"time_elapsed":9828837,"internal_node_id":"0.0-5.0-35.0"},{"rt":96222,"responses":"{\"pregunta9\":\"d) Homenajear a quienes murieron.\"}","question_order":"[0]","trial_type":"survey-multi-choice","trial_index":41,"time_elapsed":9925060,"internal_node_id":"0.0-5.0-36.0"},{"rt":1782.800000011921,"response":{"pregunta9 likert":1},"question_order":[0],"trial_type":"survey-likert","trial_index":42,"time_elapsed":9926844,"internal_node_id":"0.0-5.0-37.0"},{"rt":38030.89999997616,"responses":"{\"pregunta20\":\"b) para el mexicano, la muerte es cotidiana.\"}","question_order":"[0]","trial_type":"survey-multi-choice","trial_index":43,"time_elapsed":9964876,"internal_node_id":"0.0-5.0-38.0"},{"rt":1911.1000000238419,"response":{"pregunta20 likert":3},"question_order":[0],"trial_type":"survey-likert","trial_index":44,"time_elapsed":9966788,"internal_node_id":"0.0-5.0-39.0"}]