[{"rt":18737.69999998808,"stimulus":"<h1 style=\"color:red; margin-top: 3%;\">¡Bienvenido(a)!</h1><p style=\"text-align:left; justify-content:space-between; margin-right: 5%; margin-left: 5%; margin-top: 5%\"> Antes de empezar el estudio, necesitamos que nos confirmes que estás de acuerdo con participar. Recuerda que tu participación es 100% voluntaria y que lo único que te pedimos es responder lo mejor que puedas. Recuerda también que el estudio incluye:</p><ol style=\"text-align:left; justify-content:space-between; margin-right: 5%; margin-left: 5%;\"><li> un ejercicio de resolución de preguntas de selección múltiple (30’),</li><li>un cuestionario breve (5’),</li><li>un juego muy breve (3’),</li></ol><p style=\"text-align:left; justify-content:space-between; margin-right: 5%; margin-left: 5%;\">Si quieres participar, haz clic en “Acepto” luego de leer lo siguiente:<br></p><p style=\"text-align:left; justify-content:space-between; margin-right: 5%; margin-left: 5%;\">Acepto participar en el estudio “Estrategias de lectura y resolución de preguntas de selección múltiple”, en los términos aquí señalados:<br></p><p style=\"text-align:left; justify-content:space-between; margin-right: 5%; margin-left: 5%;\"><a href=\"http://ciae.uchile.cl/download.php?file=noticias/Asentimiento.pdf\" target=\"_blank\">Link a la hoja de información del Consentimiento.</a></p><p style=\"text-align:left; justify-content:space-between; margin-right: 5%; margin-left: 5%;\">Declaro que he leído (o se me ha leído) y (he) comprendido, las condiciones de mi participación en este estudio. He tenido la oportunidad de hacer preguntas y éstas han sido respondidas. No tengo dudas al respecto.</p>","response":0,"condicion_MCQ":8,"condicion_JUEGO":88,"condicion_INTER":16,"numero_participante":88,"numero_version":1,"dimx":1366,"dimy":768,"color_profundidad":24,"pixel_profundidad":24,"Browser":"Google Chrome","dia":23,"mes":5,"hora":19,"minuto":2,"segundo":22,"trial_type":"html-button-response","trial_index":0,"time_elapsed":18744,"internal_node_id":"0.0-0.0"},{"success":true,"trial_type":"fullscreen","trial_index":1,"time_elapsed":33233,"internal_node_id":"0.0-1.0"},{"rt":70108,"responses":"{\"Nombres\":\"fernanda paz\",\"Apellidos\":\"gonzalez cardenas\",\"Edad\":\"19\",\"Sexo\":\"mujer\",\"Curso\":\"sección 201\",\"Colegio\":\"universidad andres bello\",\"Contacto\":\"f.gonzlezcrdenas@uandresbello.edu\"}","trial_type":"survey-text","trial_index":2,"time_elapsed":103354,"internal_node_id":"0.0-2.0"},{"success":true,"timeout":false,"failed_images":[],"failed_audio":[],"failed_video":[],"trial_type":"preload","trial_index":3,"time_elapsed":105257,"internal_node_id":"0.0-3.0"},{"rt":36432.29999998212,"stimulus":"<h1 style:\"margin-top: 5%;\">Ejercicios de Comprensión de Lectura de la Universidad de Chile</h1><p style=\"font-size: 120%;\">En esta actividad, debes responder 20 preguntas de selección múltiple. Cada pregunta presenta 5 respuestas alternativas, pero sólo una de ellas es correcta. Por lo tanto, debes escoger una sola alternativa para cada pregunta. Además, debes reportar qué tan seguro(a) estás de la respuesta que das, con un:</p><ol style=\"font-size: 120%;text-align:left;margin-left: 40%;\"><li>No estoy seguro(a) para nada</li><li>No estoy muy seguro(a)</li><li>Estoy bastante seguro(a)</li><li>Estoy totalmente seguro(a)</li></ol><p style=\"font-size: 120%;\">Por favor lee bien los enunciados antes de responder. ¡Éxito!</p>","response":0,"trial_type":"html-button-response","trial_index":4,"time_elapsed":141691,"internal_node_id":"0.0-4.0"},{"rt":109382.09999999404,"responses":"{\"pregunta19\":\"e) el príncipe puede conceder milagros.\"}","question_order":"[0]","trial_type":"survey-multi-choice","trial_index":5,"time_elapsed":251082,"internal_node_id":"0.0-5.0-0.0"},{"rt":3708.5,"response":{"pregunta19 likert":1},"question_order":[0],"trial_type":"survey-likert","trial_index":6,"time_elapsed":254794,"internal_node_id":"0.0-5.0-1.0"},{"rt":177113.70000001788,"responses":"{\"pregunta11\":\"d) sólo las leyes bastan para gobernarse.\"}","question_order":"[0]","trial_type":"survey-multi-choice","trial_index":7,"time_elapsed":431911,"internal_node_id":"0.0-5.0-2.0"},{"rt":5648.4000000059605,"response":{"pregunta11 likert":3},"question_order":[0],"trial_type":"survey-likert","trial_index":8,"time_elapsed":437563,"internal_node_id":"0.0-5.0-3.0"},{"rt":98759.5,"responses":"{\"pregunta7\":\"d) ritualistas y obsesivos.\"}","question_order":"[0]","trial_type":"survey-multi-choice","trial_index":9,"time_elapsed":536325,"internal_node_id":"0.0-5.0-4.0"},{"rt":2181.0999999940395,"response":{"pregunta7 likert":3},"question_order":[0],"trial_type":"survey-likert","trial_index":10,"time_elapsed":538511,"internal_node_id":"0.0-5.0-5.0"},{"rt":86943.69999998808,"responses":"{\"pregunta3\":\"c) Los momentos triviales de los viajes, en la escritura se vuelven significativos.\"}","question_order":"[0]","trial_type":"survey-multi-choice","trial_index":11,"time_elapsed":625458,"internal_node_id":"0.0-5.0-6.0"},{"rt":2217.2999999821186,"response":{"pregunta3 likert":2},"question_order":[0],"trial_type":"survey-likert","trial_index":12,"time_elapsed":627678,"internal_node_id":"0.0-5.0-7.0"},{"rt":157628.80000001192,"responses":"{\"pregunta6\":\"e) la persistencia de la melancolía y la desesperanza.\"}","question_order":"[0]","trial_type":"survey-multi-choice","trial_index":13,"time_elapsed":785310,"internal_node_id":"0.0-5.0-8.0"},{"rt":3179.5999999940395,"response":{"pregunta6 likert":2},"question_order":[0],"trial_type":"survey-likert","trial_index":14,"time_elapsed":788493,"internal_node_id":"0.0-5.0-9.0"},{"rt":65643.69999998808,"responses":"{\"pregunta4\":\"a) Exponer sobre los conceptos de decoración dominantes en nuestro país.\"}","question_order":"[0]","trial_type":"survey-multi-choice","trial_index":15,"time_elapsed":854139,"internal_node_id":"0.0-5.0-10.0"},{"rt":2567.0999999940395,"response":{"pregunta4 likert":3},"question_order":[0],"trial_type":"survey-likert","trial_index":16,"time_elapsed":856709,"internal_node_id":"0.0-5.0-11.0"},{"rt":215538.19999998808,"responses":"{\"pregunta15\":\"b) El receptor es el que posee la decisión sobre la publicidad.\"}","question_order":"[0]","trial_type":"survey-multi-choice","trial_index":17,"time_elapsed":1072251,"internal_node_id":"0.0-5.0-12.0"},{"rt":2048.899999976158,"response":{"pregunta15 likert":3},"question_order":[0],"trial_type":"survey-likert","trial_index":18,"time_elapsed":1074303,"internal_node_id":"0.0-5.0-13.0"},{"rt":95214.20000001788,"responses":"{\"pregunta16\":\"d) llevan un control grupal de su embarazo.\"}","question_order":"[0]","trial_type":"survey-multi-choice","trial_index":19,"time_elapsed":1169520,"internal_node_id":"0.0-5.0-14.0"},{"rt":3149.199999988079,"response":{"pregunta16 likert":0},"question_order":[0],"trial_type":"survey-likert","trial_index":20,"time_elapsed":1172672,"internal_node_id":"0.0-5.0-15.0"},{"rt":96347.89999997616,"responses":"{\"pregunta9\":\"a) Revivir un periodo histórico.\"}","question_order":"[0]","trial_type":"survey-multi-choice","trial_index":21,"time_elapsed":1269023,"internal_node_id":"0.0-5.0-16.0"},{"rt":1921.699999988079,"response":{"pregunta9 likert":2},"question_order":[0],"trial_type":"survey-likert","trial_index":22,"time_elapsed":1270947,"internal_node_id":"0.0-5.0-17.0"},{"rt":60013,"responses":"{\"pregunta18\":\"b) Se necesita un marco legal para delimitar lo público y lo privado en materia informativa.\"}","question_order":"[0]","trial_type":"survey-multi-choice","trial_index":23,"time_elapsed":1330965,"internal_node_id":"0.0-5.0-18.0"},{"rt":3405,"response":{"pregunta18 likert":3},"question_order":[0],"trial_type":"survey-likert","trial_index":24,"time_elapsed":1334374,"internal_node_id":"0.0-5.0-19.0"},{"rt":52887.5,"responses":"{\"pregunta12\":\"b) a partir de la manipulación del núcleo se han creado elementos químicos naturales.\"}","question_order":"[0]","trial_type":"survey-multi-choice","trial_index":25,"time_elapsed":1387264,"internal_node_id":"0.0-5.0-20.0"},{"rt":2996.4000000059605,"response":{"pregunta12 likert":1},"question_order":[0],"trial_type":"survey-likert","trial_index":26,"time_elapsed":1390262,"internal_node_id":"0.0-5.0-21.0"},{"rt":31926.899999976158,"responses":"{\"pregunta10\":\"e) Al premio merecido después de tantos esfuerzos.\"}","question_order":"[0]","trial_type":"survey-multi-choice","trial_index":27,"time_elapsed":1422191,"internal_node_id":"0.0-5.0-22.0"},{"rt":2129,"response":{"pregunta10 likert":2},"question_order":[0],"trial_type":"survey-likert","trial_index":28,"time_elapsed":1424322,"internal_node_id":"0.0-5.0-23.0"},{"rt":3942.0999999940395,"responses":"{\"pregunta5\":\"c) El ser humano se comporta de acuerdo con las circunstancias.\"}","question_order":"[0]","trial_type":"survey-multi-choice","trial_index":29,"time_elapsed":1428267,"internal_node_id":"0.0-5.0-24.0"},{"rt":2227,"response":{"pregunta5 likert":2},"question_order":[0],"trial_type":"survey-likert","trial_index":30,"time_elapsed":1430497,"internal_node_id":"0.0-5.0-25.0"},{"rt":15103.5,"responses":"{\"pregunta14\":\"a) A la influencia de grupos que rechazaban su música.\"}","question_order":"[0]","trial_type":"survey-multi-choice","trial_index":31,"time_elapsed":1445603,"internal_node_id":"0.0-5.0-26.0"},{"rt":1452.2999999821186,"response":{"pregunta14 likert":2},"question_order":[0],"trial_type":"survey-likert","trial_index":32,"time_elapsed":1447058,"internal_node_id":"0.0-5.0-27.0"},{"rt":24813,"responses":"{\"pregunta13\":\"d) Por el riesgo que corren diariamente, los bomberos deberían tener mejores condiciones de seguridad.\"}","question_order":"[0]","trial_type":"survey-multi-choice","trial_index":33,"time_elapsed":1471874,"internal_node_id":"0.0-5.0-28.0"},{"rt":1970.800000011921,"response":{"pregunta13 likert":3},"question_order":[0],"trial_type":"survey-likert","trial_index":34,"time_elapsed":1473848,"internal_node_id":"0.0-5.0-29.0"},{"rt":31603.20000001788,"responses":"{\"pregunta1\":\"b) Aportan informaciones con las que se reconstruye el personaje dentro de un relato.\"}","question_order":"[0]","trial_type":"survey-multi-choice","trial_index":35,"time_elapsed":1505454,"internal_node_id":"0.0-5.0-30.0"},{"rt":1752.2000000178814,"response":{"pregunta1 likert":3},"question_order":[0],"trial_type":"survey-likert","trial_index":36,"time_elapsed":1507208,"internal_node_id":"0.0-5.0-31.0"},{"rt":27645.5,"responses":"{\"pregunta2\":\"c) A la relación entre pensamiento y estructura social.\"}","question_order":"[0]","trial_type":"survey-multi-choice","trial_index":37,"time_elapsed":1534856,"internal_node_id":"0.0-5.0-32.0"},{"rt":2390.7000000178814,"response":{"pregunta2 likert":0},"question_order":[0],"trial_type":"survey-likert","trial_index":38,"time_elapsed":1537250,"internal_node_id":"0.0-5.0-33.0"},{"rt":59054.80000001192,"responses":"{\"pregunta20\":\"d) la muerte es distinta en las grandes ciudades.\"}","question_order":"[0]","trial_type":"survey-multi-choice","trial_index":39,"time_elapsed":1596307,"internal_node_id":"0.0-5.0-34.0"},{"rt":1952.5999999940395,"response":{"pregunta20 likert":2},"question_order":[0],"trial_type":"survey-likert","trial_index":40,"time_elapsed":1598263,"internal_node_id":"0.0-5.0-35.0"},{"rt":30270.30000001192,"responses":"{\"pregunta17\":\"e) El TLC causará una completa transformación de la economía chilena.\"}","question_order":"[0]","trial_type":"survey-multi-choice","trial_index":41,"time_elapsed":1628536,"internal_node_id":"0.0-5.0-36.0"},{"rt":2176.0999999940395,"response":{"pregunta17 likert":2},"question_order":[0],"trial_type":"survey-likert","trial_index":42,"time_elapsed":1630715,"internal_node_id":"0.0-5.0-37.0"},{"rt":1735.5999999940395,"responses":"{\"pregunta8\":\"c) Deleitar a sus receptores por medio de la belleza y el confort.\"}","question_order":"[0]","trial_type":"survey-multi-choice","trial_index":43,"time_elapsed":1632453,"internal_node_id":"0.0-5.0-38.0"},{"rt":4007.600000023842,"response":{"pregunta8 likert":2},"question_order":[0],"trial_type":"survey-likert","trial_index":44,"time_elapsed":1636465,"internal_node_id":"0.0-5.0-39.0"}]