[{"rt":3185.130000114441,"stimulus":"<h1 style=\"color:red; margin-top: 3%;\">¡Bienvenido(a)!</h1><p style=\"text-align:left; justify-content:space-between; margin-right: 5%; margin-left: 5%; margin-top: 5%\"> Antes de empezar el estudio, necesitamos que nos confirmes que estás de acuerdo con participar. Recuerda que tu participación es 100% voluntaria y que lo único que te pedimos es responder lo mejor que puedas. Recuerda también que el estudio incluye:</p><ol style=\"text-align:left; justify-content:space-between; margin-right: 5%; margin-left: 5%;\"><li> un ejercicio de resolución de preguntas de selección múltiple (30’),</li><li>un cuestionario breve (5’),</li><li>un juego muy breve (3’),</li></ol><p style=\"text-align:left; justify-content:space-between; margin-right: 5%; margin-left: 5%;\">Si quieres participar, haz clic en “Acepto” luego de leer lo siguiente:<br></p><p style=\"text-align:left; justify-content:space-between; margin-right: 5%; margin-left: 5%;\">Acepto participar en el estudio “Estrategias de lectura y resolución de preguntas de selección múltiple”, en los términos aquí señalados:<br></p><p style=\"text-align:left; justify-content:space-between; margin-right: 5%; margin-left: 5%;\"><a href=\"http://ciae.uchile.cl/download.php?file=noticias/Asentimiento.pdf\" target=\"_blank\">Link a la hoja de información del Consentimiento.</a></p><p style=\"text-align:left; justify-content:space-between; margin-right: 5%; margin-left: 5%;\">Declaro que he leído (o se me ha leído) y (he) comprendido, las condiciones de mi participación en este estudio. He tenido la oportunidad de hacer preguntas y éstas han sido respondidas. No tengo dudas al respecto.</p>","response":0,"condicion_MCQ":10,"condicion_JUEGO":70,"condicion_INTER":22,"numero_participante":70,"numero_version":1,"dimx":1366,"dimy":768,"color_profundidad":24,"pixel_profundidad":24,"Browser":"Google Chrome","dia":22,"mes":5,"hora":21,"minuto":0,"segundo":12,"trial_type":"html-button-response","trial_index":0,"time_elapsed":3196,"internal_node_id":"0.0-0.0"},{"success":true,"trial_type":"fullscreen","trial_index":1,"time_elapsed":6459,"internal_node_id":"0.0-1.0"},{"rt":70505.28000015765,"responses":"{\"Nombres\":\"valentina pia\",\"Apellidos\":\"ortiz silva\",\"Edad\":\"22\",\"Sexo\":\"mujer\",\"Curso\":\"201\",\"Colegio\":\"andres bello\",\"Contacto\":\"vale.silva.16@hotmail.com\"}","trial_type":"survey-text","trial_index":2,"time_elapsed":77067,"internal_node_id":"0.0-2.0"},{"success":true,"timeout":false,"failed_images":[],"failed_audio":[],"failed_video":[],"trial_type":"preload","trial_index":3,"time_elapsed":83478,"internal_node_id":"0.0-3.0"},{"rt":17172.499999869615,"stimulus":"<h1 style:\"margin-top: 5%;\">Ejercicios de Comprensión de Lectura de la Universidad de Chile</h1><p style=\"font-size: 120%;\">En esta actividad, debes responder 20 preguntas de selección múltiple. Cada pregunta presenta 5 respuestas alternativas, pero sólo una de ellas es correcta. Por lo tanto, debes escoger una sola alternativa para cada pregunta. Además, debes reportar qué tan seguro(a) estás de la respuesta que das, con un:</p><ol style=\"font-size: 120%;text-align:left;margin-left: 40%;\"><li>No estoy seguro(a) para nada</li><li>No estoy muy seguro(a)</li><li>Estoy bastante seguro(a)</li><li>Estoy totalmente seguro(a)</li></ol><p style=\"font-size: 120%;\">Por favor lee bien los enunciados antes de responder. ¡Éxito!</p>","response":0,"trial_type":"html-button-response","trial_index":4,"time_elapsed":100657,"internal_node_id":"0.0-4.0"},{"rt":35334.549999795854,"responses":"{\"pregunta3\":\"c) Los momentos triviales de los viajes, en la escritura se vuelven significativos.\"}","question_order":"[0]","trial_type":"survey-multi-choice","trial_index":5,"time_elapsed":136006,"internal_node_id":"0.0-5.0-0.0"},{"rt":3365.8349998295307,"response":{"pregunta3 likert":0},"question_order":[0],"trial_type":"survey-likert","trial_index":6,"time_elapsed":139390,"internal_node_id":"0.0-5.0-1.0"},{"rt":23406.745000276715,"responses":"{\"pregunta7\":\"a) frívolos y previsores.\"}","question_order":"[0]","trial_type":"survey-multi-choice","trial_index":7,"time_elapsed":162812,"internal_node_id":"0.0-5.0-2.0"},{"rt":2172.5349999032915,"response":{"pregunta7 likert":1},"question_order":[0],"trial_type":"survey-likert","trial_index":8,"time_elapsed":164997,"internal_node_id":"0.0-5.0-3.0"},{"rt":13043.69999980554,"responses":"{\"pregunta6\":\"c) un recuerdo nostálgico.\"}","question_order":"[0]","trial_type":"survey-multi-choice","trial_index":9,"time_elapsed":178056,"internal_node_id":"0.0-5.0-4.0"},{"rt":2369.884999934584,"response":{"pregunta6 likert":1},"question_order":[0],"trial_type":"survey-likert","trial_index":10,"time_elapsed":180439,"internal_node_id":"0.0-5.0-5.0"},{"rt":58686.40000000596,"responses":"{\"pregunta16\":\"c) tienen mayores niveles de relaxín.\"}","question_order":"[0]","trial_type":"survey-multi-choice","trial_index":11,"time_elapsed":239143,"internal_node_id":"0.0-5.0-6.0"},{"rt":3363.705000374466,"response":{"pregunta16 likert":1},"question_order":[0],"trial_type":"survey-likert","trial_index":12,"time_elapsed":242521,"internal_node_id":"0.0-5.0-7.0"},{"rt":9525.764999911189,"responses":"{\"pregunta10\":\"c) A la inutilidad de tanto esfuerzo si el objetivo es el reposo.\"}","question_order":"[0]","trial_type":"survey-multi-choice","trial_index":13,"time_elapsed":252060,"internal_node_id":"0.0-5.0-8.0"},{"rt":2478.6050003021955,"response":{"pregunta10 likert":0},"question_order":[0],"trial_type":"survey-likert","trial_index":14,"time_elapsed":254551,"internal_node_id":"0.0-5.0-9.0"},{"rt":3936.805000063032,"responses":"{\"pregunta14\":\"c) A la temática satánica de las canciones del grupo.\"}","question_order":"[0]","trial_type":"survey-multi-choice","trial_index":15,"time_elapsed":258501,"internal_node_id":"0.0-5.0-10.0"},{"rt":2435.554999858141,"response":{"pregunta14 likert":1},"question_order":[0],"trial_type":"survey-likert","trial_index":16,"time_elapsed":260948,"internal_node_id":"0.0-5.0-11.0"},{"rt":17372.530000284314,"responses":"{\"pregunta13\":\"a) Bomberos debería tener acceso a un seguro médico, al que pueda recurrir en caso de accidente.\"}","question_order":"[0]","trial_type":"survey-multi-choice","trial_index":17,"time_elapsed":278338,"internal_node_id":"0.0-5.0-12.0"},{"rt":2552.5750000961125,"response":{"pregunta13 likert":2},"question_order":[0],"trial_type":"survey-likert","trial_index":18,"time_elapsed":280905,"internal_node_id":"0.0-5.0-13.0"},{"rt":13090.619999915361,"responses":"{\"pregunta17\":\"b) Nuestra economía vivirá un proceso de ajuste a la nueva realidad.\"}","question_order":"[0]","trial_type":"survey-multi-choice","trial_index":19,"time_elapsed":294009,"internal_node_id":"0.0-5.0-14.0"},{"rt":2347.3049998283386,"response":{"pregunta17 likert":1},"question_order":[0],"trial_type":"survey-likert","trial_index":20,"time_elapsed":296370,"internal_node_id":"0.0-5.0-15.0"},{"rt":3106.7699999548495,"responses":"{\"pregunta15\":\"c) La publicidad ejerce una influencia positiva sobre la sociedad.\"}","question_order":"[0]","trial_type":"survey-multi-choice","trial_index":21,"time_elapsed":299490,"internal_node_id":"0.0-5.0-16.0"},{"rt":2421.540000010282,"response":{"pregunta15 likert":1},"question_order":[0],"trial_type":"survey-likert","trial_index":22,"time_elapsed":301925,"internal_node_id":"0.0-5.0-17.0"},{"rt":3375.5549998022616,"responses":"{\"pregunta2\":\"b) A la relación entre civilización y sociedad.\"}","question_order":"[0]","trial_type":"survey-multi-choice","trial_index":23,"time_elapsed":305315,"internal_node_id":"0.0-5.0-18.0"},{"rt":2097.5350001826882,"response":{"pregunta2 likert":1},"question_order":[0],"trial_type":"survey-likert","trial_index":24,"time_elapsed":307425,"internal_node_id":"0.0-5.0-19.0"},{"rt":22589.019999839365,"responses":"{\"pregunta20\":\"c) para el mexicano, la muerte es cotidiana.\"}","question_order":"[0]","trial_type":"survey-multi-choice","trial_index":25,"time_elapsed":330026,"internal_node_id":"0.0-5.0-20.0"},{"rt":2360.3799999691546,"response":{"pregunta20 likert":2},"question_order":[0],"trial_type":"survey-likert","trial_index":26,"time_elapsed":332403,"internal_node_id":"0.0-5.0-21.0"},{"rt":3348.1549997814,"responses":"{\"pregunta1\":\"b) Muestran las opiniones expuestas por los personajes en un relato.\"}","question_order":"[0]","trial_type":"survey-multi-choice","trial_index":27,"time_elapsed":335768,"internal_node_id":"0.0-5.0-22.0"},{"rt":1900.2050003036857,"response":{"pregunta1 likert":1},"question_order":[0],"trial_type":"survey-likert","trial_index":28,"time_elapsed":337680,"internal_node_id":"0.0-5.0-23.0"},{"rt":4235.069999936968,"responses":"{\"pregunta19\":\"a) la Muerte acostumbraba a aparecer en Ispahán.\"}","question_order":"[0]","trial_type":"survey-multi-choice","trial_index":29,"time_elapsed":341928,"internal_node_id":"0.0-5.0-24.0"},{"rt":2233.1799999810755,"response":{"pregunta19 likert":1},"question_order":[0],"trial_type":"survey-likert","trial_index":30,"time_elapsed":344175,"internal_node_id":"0.0-5.0-25.0"},{"rt":2994.0899997018278,"responses":"{\"pregunta12\":\"e) la creación de elementos químicos es altamente contaminante.\"}","question_order":"[0]","trial_type":"survey-multi-choice","trial_index":31,"time_elapsed":347181,"internal_node_id":"0.0-5.0-26.0"},{"rt":2710.0750003010035,"response":{"pregunta12 likert":2},"question_order":[0],"trial_type":"survey-likert","trial_index":32,"time_elapsed":349902,"internal_node_id":"0.0-5.0-27.0"},{"rt":3141.1699997261167,"responses":"{\"pregunta11\":\"a) la prosperidad del imperio se debió al Primer Ministro.\"}","question_order":"[0]","trial_type":"survey-multi-choice","trial_index":33,"time_elapsed":353056,"internal_node_id":"0.0-5.0-28.0"},{"rt":1580.7450003921986,"response":{"pregunta11 likert":2},"question_order":[0],"trial_type":"survey-likert","trial_index":34,"time_elapsed":354646,"internal_node_id":"0.0-5.0-29.0"},{"rt":2800.160000100732,"responses":"{\"pregunta8\":\"d) Poner en escena objetos y servicios.\"}","question_order":"[0]","trial_type":"survey-multi-choice","trial_index":35,"time_elapsed":357459,"internal_node_id":"0.0-5.0-30.0"},{"rt":1736.9850003160536,"response":{"pregunta8 likert":1},"question_order":[0],"trial_type":"survey-likert","trial_index":36,"time_elapsed":359208,"internal_node_id":"0.0-5.0-31.0"},{"rt":3553.4549998119473,"responses":"{\"pregunta5\":\"b) El concepto de normalidad es diferente para un psiquiatra que para nosotros.\"}","question_order":"[0]","trial_type":"survey-multi-choice","trial_index":37,"time_elapsed":362775,"internal_node_id":"0.0-5.0-32.0"},{"rt":1685.8049998991191,"response":{"pregunta5 likert":1},"question_order":[0],"trial_type":"survey-likert","trial_index":38,"time_elapsed":364478,"internal_node_id":"0.0-5.0-33.0"},{"rt":3310.825000051409,"responses":"{\"pregunta4\":\"c) Criticar la mezcla de estilos que se puede observar en la muestra que exhibe Casa Mater.\"}","question_order":"[0]","trial_type":"survey-multi-choice","trial_index":39,"time_elapsed":367807,"internal_node_id":"0.0-5.0-34.0"},{"rt":2780.650000087917,"response":{"pregunta4 likert":1},"question_order":[0],"trial_type":"survey-likert","trial_index":40,"time_elapsed":370601,"internal_node_id":"0.0-5.0-35.0"},{"rt":3999.485000036657,"responses":"{\"pregunta18\":\"a) El interés público debe prevalecer sobre la defensa de la privacidad.\"}","question_order":"[0]","trial_type":"survey-multi-choice","trial_index":41,"time_elapsed":374614,"internal_node_id":"0.0-5.0-36.0"},{"rt":1937.5599999912083,"response":{"pregunta18 likert":0},"question_order":[0],"trial_type":"survey-likert","trial_index":42,"time_elapsed":376564,"internal_node_id":"0.0-5.0-37.0"},{"rt":3343.489999882877,"responses":"{\"pregunta9\":\"a) Revivir un periodo histórico.\"}","question_order":"[0]","trial_type":"survey-multi-choice","trial_index":43,"time_elapsed":379919,"internal_node_id":"0.0-5.0-38.0"},{"rt":1803.4000000916421,"response":{"pregunta9 likert":1},"question_order":[0],"trial_type":"survey-likert","trial_index":44,"time_elapsed":381735,"internal_node_id":"0.0-5.0-39.0"},{"rt":3252.3149996995926,"stimulus":"<p style=\"font-size: 120%\">Gracias por completar esta etapa del estudio. Ahora te invitamos a responder el cuestionario.<br><br></p>","response":0,"trial_type":"html-button-response","trial_index":45,"time_elapsed":385020,"internal_node_id":"0.0-6.0"},{"rt":6121.025000233203,"stimulus":"<h1 style=\"margin-top: 5%\">Cuestionario para la Evaluación de Metas Académicas</h1><p style=\"font-size: 120%; margin-left: 3%; margin-top: 5%\">Este es un cuestionario que permite conocer cuáles son los principales motivos por los que los estudiantes se esfuerzan en su trabajo académico. A continuación, se te presentarán una serie de afirmaciones acerca de los motivos que puedes tener para estudiar.<br>Te pedimos que contestes a dichas afirmaciones reflexionando sobre el contenido de cada una de ellas, que, aunque te parezcan semejantes, en realidad, no lo son.<br>NO HAY RESPUESTAS CORRECTAS o INCORRECTAS, sólo queremos que respondas con la mayor precisión y sinceridad posible a las preguntas que se plantean.","response":0,"trial_type":"html-button-response","trial_index":46,"time_elapsed":391149,"internal_node_id":"0.0-7.0"},{"rt":91749.71499992535,"response":{"Metas cuestionario pregunta1":3,"Metas cuestionario pregunta2":3,"Metas cuestionario pregunta3":2,"Metas cuestionario pregunta4":2,"Metas cuestionario pregunta5":3,"Metas cuestionario pregunta6":2,"Metas cuestionario pregunta7":3,"Metas cuestionario pregunta8":4,"Metas cuestionario pregunta9":4,"Metas cuestionario pregunta10":1,"Metas cuestionario pregunta11":0,"Metas cuestionario pregunta12":4,"Metas cuestionario pregunta13":3,"Metas cuestionario pregunta14":3,"Metas cuestionario pregunta15":4,"Metas cuestionario pregunta16":4,"Metas cuestionario pregunta17":4,"Metas cuestionario pregunta18":4,"Metas cuestionario pregunta19":4,"Metas cuestionario pregunta20":4},"question_order":[0,1,2,3,4,5,6,7,8,9,10,11,12,13,14,15,16,17,18,19],"trial_type":"survey-likert","trial_index":47,"time_elapsed":482969,"internal_node_id":"0.0-8.0"},{"rt":2248.9700000733137,"stimulus":"<p style=\"font-size: 120%\">Gracias por responder el cuestionario. Ahora te invitamos a seguir con el juego, que es muy breve.<br><br></p>","response":0,"trial_type":"html-button-response","trial_index":48,"time_elapsed":485251,"internal_node_id":"0.0-9.0"},{"rt":1444.4049997255206,"stimulus":"<h1>Juego</h1><p style=\"font-size: 120%;\">A continuación se te presentarán 16 pequeñas historias.<br>Por favor lee el texto presentado en cada una de ellas y luego haz click en el objeto de tu elección.<br>Si estás listo(a),<span style=\"color:red;\"> haz click en \"comenzar\"</span>.</p>","response":0,"trial_type":"html-button-response","trial_index":49,"time_elapsed":486705,"internal_node_id":"0.0-10.0"},{"rt":5436.945000197738,"grid":[[1,1,1,1],[1,1,1,1],[1,1,1,1],[1,1,1,1],[1,1,1,1],[1,1,1,1],[1,1,1,1],[1,1,1,1],[1,1,1,1],[1,1,1,1],[1,1,1,1]],"target":[0,0],"response":[1,2],"correct":false,"juego":14,"trial_type":"serial-reaction-time-mouse","trial_index":50,"time_elapsed":492174,"internal_node_id":"0.0-11.0-0.0"},{"rt":2984.344999771565,"grid":[[1,1,1,1,1]],"target":[0,0],"response":[0,3],"correct":false,"juego":1,"trial_type":"serial-reaction-time-mouse","trial_index":51,"time_elapsed":495167,"internal_node_id":"0.0-11.0-1.0"},{"rt":2599.2800001986325,"grid":[[1],[1],[1],[1],[1]],"target":[0,0],"response":[0,0],"correct":true,"juego":4,"trial_type":"serial-reaction-time-mouse","trial_index":52,"time_elapsed":497774,"internal_node_id":"0.0-11.0-2.0"},{"rt":7843.58000010252,"grid":[[1,1,1,1,1]],"target":[0,0],"response":[0,1],"correct":false,"juego":11,"trial_type":"serial-reaction-time-mouse","trial_index":53,"time_elapsed":505626,"internal_node_id":"0.0-11.0-3.0"},{"rt":4819.0850000828505,"grid":[[1,1,1,1],[1,1,1,1],[1,1,1,1],[1,1,1,1],[1,1,1,1],[1,1,1,1],[1,1,1,1],[1,1,1,1],[1,1,1,1],[1,1,1,1],[1,1,1,1]],"target":[0,0],"response":[5,2],"correct":false,"juego":15,"trial_type":"serial-reaction-time-mouse","trial_index":54,"time_elapsed":510463,"internal_node_id":"0.0-11.0-4.0"},{"rt":1520.479999948293,"grid":[[1,1,1,1,1]],"target":[0,0],"response":[0,2],"correct":false,"juego":7,"trial_type":"serial-reaction-time-mouse","trial_index":55,"time_elapsed":511990,"internal_node_id":"0.0-11.0-5.0"},{"rt":2658.7600000202656,"grid":[[1,1,1,1,1]],"target":[0,0],"response":[0,4],"correct":false,"juego":2,"trial_type":"serial-reaction-time-mouse","trial_index":56,"time_elapsed":514661,"internal_node_id":"0.0-11.0-6.0"},{"rt":3567.069999873638,"grid":[[1,1,1],[1,1,1],[1,1,1],[1,1,1],[1,1,1],[1,1,1],[1,1,1],[1,1,1],[1,1,1],[1,1,1],[1,1,1]],"target":[0,0],"response":[7,1],"correct":false,"juego":5,"trial_type":"serial-reaction-time-mouse","trial_index":57,"time_elapsed":518252,"internal_node_id":"0.0-11.0-7.0"},{"rt":2075.389999896288,"grid":[[1,1,1,1,1]],"target":[0,0],"response":[0,0],"correct":true,"juego":12,"trial_type":"serial-reaction-time-mouse","trial_index":58,"time_elapsed":520336,"internal_node_id":"0.0-11.0-8.0"},{"rt":1950.4899997264147,"grid":[[1,1,1],[1,1,1],[1,1,1],[1,1,1],[1,1,1],[1,1,1],[1,1,1],[1,1,1],[1,1,1],[1,1,1],[1,1,1]],"target":[0,0],"response":[3,2],"correct":false,"juego":10,"trial_type":"serial-reaction-time-mouse","trial_index":59,"time_elapsed":522314,"internal_node_id":"0.0-11.0-9.0"},{"rt":2465.735000092536,"grid":[[1,1,1],[1,1,1],[1,1,1],[1,1,1],[1,1,1],[1,1,1],[1,1,1],[1,1,1],[1,1,1],[1,1,1],[1,1,1]],"target":[0,0],"response":[1,1],"correct":false,"juego":6,"trial_type":"serial-reaction-time-mouse","trial_index":60,"time_elapsed":524799,"internal_node_id":"0.0-11.0-10.0"},{"rt":2587.379999924451,"grid":[[1,1,1,1,1]],"target":[0,0],"response":[0,4],"correct":false,"juego":9,"trial_type":"serial-reaction-time-mouse","trial_index":61,"time_elapsed":527395,"internal_node_id":"0.0-11.0-11.0"},{"rt":1821.1949998512864,"grid":[[1,1,1,1,1]],"target":[0,0],"response":[0,3],"correct":false,"juego":8,"trial_type":"serial-reaction-time-mouse","trial_index":62,"time_elapsed":529224,"internal_node_id":"0.0-11.0-12.0"},{"rt":2834.119999781251,"grid":[[1,1,1,1,1]],"target":[0,0],"response":[0,0],"correct":true,"juego":3,"trial_type":"serial-reaction-time-mouse","trial_index":63,"time_elapsed":532068,"internal_node_id":"0.0-11.0-13.0"},{"rt":4240.465000271797,"grid":[[1,1,1],[1,1,1],[1,1,1],[1,1,1],[1,1,1],[1,1,1],[1,1,1],[1,1,1],[1,1,1],[1,1,1],[1,1,1]],"target":[0,0],"response":[9,1],"correct":false,"juego":13,"trial_type":"serial-reaction-time-mouse","trial_index":64,"time_elapsed":536333,"internal_node_id":"0.0-11.0-14.0"}]