[{"rt":1056994.8999999762,"stimulus":"<h1 style=\"color:red; margin-top: 3%;\">¡Bienvenido(a)!</h1><p style=\"text-align:left; justify-content:space-between; margin-right: 5%; margin-left: 5%; margin-top: 5%\"> Antes de empezar el estudio, necesitamos que nos confirmes que estás de acuerdo con participar. Recuerda que tu participación es 100% voluntaria y que lo único que te pedimos es responder lo mejor que puedas. Recuerda también que el estudio incluye:</p><ol style=\"text-align:left; justify-content:space-between; margin-right: 5%; margin-left: 5%;\"><li> un ejercicio de resolución de preguntas de selección múltiple (30’),</li><li>un cuestionario breve (5’),</li><li>un juego muy breve (3’),</li></ol><p style=\"text-align:left; justify-content:space-between; margin-right: 5%; margin-left: 5%;\">Si quieres participar, haz clic en “Acepto” luego de leer lo siguiente:<br></p><p style=\"text-align:left; justify-content:space-between; margin-right: 5%; margin-left: 5%;\">Acepto participar en el estudio “Estrategias de lectura y resolución de preguntas de selección múltiple”, en los términos aquí señalados:<br></p><p style=\"text-align:left; justify-content:space-between; margin-right: 5%; margin-left: 5%;\"><a href=\"http://ciae.uchile.cl/download.php?file=noticias/Asentimiento.pdf\" target=\"_blank\">Link a la hoja de información del Consentimiento.</a></p><p style=\"text-align:left; justify-content:space-between; margin-right: 5%; margin-left: 5%;\">Declaro que he leído (o se me ha leído) y (he) comprendido, las condiciones de mi participación en este estudio. He tenido la oportunidad de hacer preguntas y éstas han sido respondidas. No tengo dudas al respecto.</p>","response":0,"condicion_MCQ":14,"condicion_JUEGO":74,"condicion_INTER":2,"numero_participante":74,"numero_version":1,"dimx":1366,"dimy":768,"color_profundidad":24,"pixel_profundidad":24,"Browser":"Google Chrome","dia":23,"mes":5,"hora":12,"minuto":7,"segundo":12,"trial_type":"html-button-response","trial_index":0,"time_elapsed":1057000,"internal_node_id":"0.0-0.0"},{"success":true,"trial_type":"fullscreen","trial_index":1,"time_elapsed":1066406,"internal_node_id":"0.0-1.0"},{"rt":10614206.299999952,"responses":"{\"Nombres\":\"Antonia Catalina\",\"Apellidos\":\"Muñoz Brenning\",\"Edad\":\"19\",\"Sexo\":\"mujer\",\"Curso\":\"Sección 1236\",\"Colegio\":\"Universidad Andrés Bello\",\"Contacto\":\"Brenningantonia@gmai.com\"}","trial_type":"survey-text","trial_index":2,"time_elapsed":11680632,"internal_node_id":"0.0-2.0"},{"success":true,"timeout":false,"failed_images":[],"failed_audio":[],"failed_video":[],"trial_type":"preload","trial_index":3,"time_elapsed":11683218,"internal_node_id":"0.0-3.0"},{"rt":21336.399999976158,"stimulus":"<h1 style:\"margin-top: 5%;\">Ejercicios de Comprensión de Lectura de la Universidad de Chile</h1><p style=\"font-size: 120%;\">En esta actividad, debes responder 20 preguntas de selección múltiple. Cada pregunta presenta 5 respuestas alternativas, pero sólo una de ellas es correcta. Por lo tanto, debes escoger una sola alternativa para cada pregunta. Además, debes reportar qué tan seguro(a) estás de la respuesta que das, con un:</p><ol style=\"font-size: 120%;text-align:left;margin-left: 40%;\"><li>No estoy seguro(a) para nada</li><li>No estoy muy seguro(a)</li><li>Estoy bastante seguro(a)</li><li>Estoy totalmente seguro(a)</li></ol><p style=\"font-size: 120%;\">Por favor lee bien los enunciados antes de responder. ¡Éxito!</p>","response":0,"trial_type":"html-button-response","trial_index":4,"time_elapsed":11704556,"internal_node_id":"0.0-4.0"},{"rt":103012.80000007153,"responses":"{\"pregunta18\":\"c) Se necesita un marco legal para delimitar lo público y lo privado en materia informativa.\"}","question_order":"[0]","trial_type":"survey-multi-choice","trial_index":5,"time_elapsed":11807571,"internal_node_id":"0.0-5.0-0.0"},{"rt":4066.7000000476837,"response":{"pregunta18 likert":2},"question_order":[0],"trial_type":"survey-likert","trial_index":6,"time_elapsed":11811643,"internal_node_id":"0.0-5.0-1.0"},{"rt":72330.20000004768,"responses":"{\"pregunta9\":\"a) Homenajear a quienes murieron.\"}","question_order":"[0]","trial_type":"survey-multi-choice","trial_index":7,"time_elapsed":11883979,"internal_node_id":"0.0-5.0-2.0"},{"rt":2258.7999999523163,"response":{"pregunta9 likert":2},"question_order":[0],"trial_type":"survey-likert","trial_index":8,"time_elapsed":11886242,"internal_node_id":"0.0-5.0-3.0"},{"rt":68770.5,"responses":"{\"pregunta6\":\"c) un recuerdo nostálgico.\"}","question_order":"[0]","trial_type":"survey-multi-choice","trial_index":9,"time_elapsed":11955018,"internal_node_id":"0.0-5.0-4.0"},{"rt":1619,"response":{"pregunta6 likert":2},"question_order":[0],"trial_type":"survey-likert","trial_index":10,"time_elapsed":11956642,"internal_node_id":"0.0-5.0-5.0"},{"rt":82930.10000002384,"responses":"{\"pregunta19\":\"c) el jardinero estará muerto al día siguiente.\"}","question_order":"[0]","trial_type":"survey-multi-choice","trial_index":11,"time_elapsed":12039577,"internal_node_id":"0.0-5.0-6.0"},{"rt":2594.600000023842,"response":{"pregunta19 likert":1},"question_order":[0],"trial_type":"survey-likert","trial_index":12,"time_elapsed":12042176,"internal_node_id":"0.0-5.0-7.0"},{"rt":50962.800000071526,"responses":"{\"pregunta10\":\"a) Al premio merecido después de tantos esfuerzos.\"}","question_order":"[0]","trial_type":"survey-multi-choice","trial_index":13,"time_elapsed":12093144,"internal_node_id":"0.0-5.0-8.0"},{"rt":1747.1000000238419,"response":{"pregunta10 likert":2},"question_order":[0],"trial_type":"survey-likert","trial_index":14,"time_elapsed":12094896,"internal_node_id":"0.0-5.0-9.0"},{"rt":89057.90000009537,"responses":"{\"pregunta7\":\"e) ritualistas y obsesivos.\"}","question_order":"[0]","trial_type":"survey-multi-choice","trial_index":15,"time_elapsed":12183960,"internal_node_id":"0.0-5.0-10.0"},{"rt":1810.9000000953674,"response":{"pregunta7 likert":2},"question_order":[0],"trial_type":"survey-likert","trial_index":16,"time_elapsed":12185776,"internal_node_id":"0.0-5.0-11.0"},{"rt":64666.700000047684,"responses":"{\"pregunta17\":\"b) El TLC causará una completa transformación de la economía chilena.\"}","question_order":"[0]","trial_type":"survey-multi-choice","trial_index":17,"time_elapsed":12250447,"internal_node_id":"0.0-5.0-12.0"},{"rt":1506.6000000238419,"response":{"pregunta17 likert":2},"question_order":[0],"trial_type":"survey-likert","trial_index":18,"time_elapsed":12251959,"internal_node_id":"0.0-5.0-13.0"},{"rt":135073.90000009537,"responses":"{\"pregunta16\":\"c) sufren dolores de espalda.\"}","question_order":"[0]","trial_type":"survey-multi-choice","trial_index":19,"time_elapsed":12387037,"internal_node_id":"0.0-5.0-14.0"},{"rt":2018.2000000476837,"response":{"pregunta16 likert":1},"question_order":[0],"trial_type":"survey-likert","trial_index":20,"time_elapsed":12389061,"internal_node_id":"0.0-5.0-15.0"},{"rt":90018.39999997616,"responses":"{\"pregunta3\":\"d) Los momentos triviales de los viajes, en la escritura se vuelven significativos.\"}","question_order":"[0]","trial_type":"survey-multi-choice","trial_index":21,"time_elapsed":12479084,"internal_node_id":"0.0-5.0-16.0"},{"rt":1315.1999999284744,"response":{"pregunta3 likert":2},"question_order":[0],"trial_type":"survey-likert","trial_index":22,"time_elapsed":12480404,"internal_node_id":"0.0-5.0-17.0"},{"rt":114922.29999995232,"responses":"{\"pregunta14\":\"a) A la negligencia de la empresa que los traía a Chile.\"}","question_order":"[0]","trial_type":"survey-multi-choice","trial_index":23,"time_elapsed":12595331,"internal_node_id":"0.0-5.0-18.0"},{"rt":1570.6000000238419,"response":{"pregunta14 likert":2},"question_order":[0],"trial_type":"survey-likert","trial_index":24,"time_elapsed":12596907,"internal_node_id":"0.0-5.0-19.0"},{"rt":47730.89999997616,"responses":"{\"pregunta11\":\"a) el mejor emperador es el que está muerto.\"}","question_order":"[0]","trial_type":"survey-multi-choice","trial_index":25,"time_elapsed":12644643,"internal_node_id":"0.0-5.0-20.0"},{"rt":1355,"response":{"pregunta11 likert":2},"question_order":[0],"trial_type":"survey-likert","trial_index":26,"time_elapsed":12646003,"internal_node_id":"0.0-5.0-21.0"},{"rt":115793.89999997616,"responses":"{\"pregunta8\":\"a) Provocar el deseo de la adquisición vertiginosa.\"}","question_order":"[0]","trial_type":"survey-multi-choice","trial_index":27,"time_elapsed":12761802,"internal_node_id":"0.0-5.0-22.0"},{"rt":1251.2999999523163,"response":{"pregunta8 likert":2},"question_order":[0],"trial_type":"survey-likert","trial_index":28,"time_elapsed":12763058,"internal_node_id":"0.0-5.0-23.0"},{"rt":53258.5,"responses":"{\"pregunta12\":\"a) la creación de elementos químicos artificiales ha resultado de la manipulación del uranio.\"}","question_order":"[0]","trial_type":"survey-multi-choice","trial_index":29,"time_elapsed":12816321,"internal_node_id":"0.0-5.0-24.0"},{"rt":1314.3999999761581,"response":{"pregunta12 likert":2},"question_order":[0],"trial_type":"survey-likert","trial_index":30,"time_elapsed":12817641,"internal_node_id":"0.0-5.0-25.0"},{"rt":41290.39999997616,"responses":"{\"pregunta20\":\"d) para el mexicano, la muerte es cotidiana.\"}","question_order":"[0]","trial_type":"survey-multi-choice","trial_index":31,"time_elapsed":12858937,"internal_node_id":"0.0-5.0-26.0"},{"rt":1771,"response":{"pregunta20 likert":2},"question_order":[0],"trial_type":"survey-likert","trial_index":32,"time_elapsed":12860713,"internal_node_id":"0.0-5.0-27.0"},{"rt":80874.59999990463,"responses":"{\"pregunta1\":\"c) Entregan una característica detallada del personaje, a través de la voz narrativa.\"}","question_order":"[0]","trial_type":"survey-multi-choice","trial_index":33,"time_elapsed":12941592,"internal_node_id":"0.0-5.0-28.0"},{"rt":1307.1999999284744,"response":{"pregunta1 likert":1},"question_order":[0],"trial_type":"survey-likert","trial_index":34,"time_elapsed":12942904,"internal_node_id":"0.0-5.0-29.0"},{"rt":93602.29999995232,"responses":"{\"pregunta5\":\"e) El ser humano se comporta de acuerdo con las circunstancias.\"}","question_order":"[0]","trial_type":"survey-multi-choice","trial_index":35,"time_elapsed":13036511,"internal_node_id":"0.0-5.0-30.0"},{"rt":1650.3000000715256,"response":{"pregunta5 likert":1},"question_order":[0],"trial_type":"survey-likert","trial_index":36,"time_elapsed":13038167,"internal_node_id":"0.0-5.0-31.0"},{"rt":34698.300000071526,"responses":"{\"pregunta13\":\"c) Por el riesgo que corren diariamente, los bomberos deberían tener mejores condiciones de seguridad.\"}","question_order":"[0]","trial_type":"survey-multi-choice","trial_index":37,"time_elapsed":13072871,"internal_node_id":"0.0-5.0-32.0"},{"rt":1314.8999999761581,"response":{"pregunta13 likert":3},"question_order":[0],"trial_type":"survey-likert","trial_index":38,"time_elapsed":13074191,"internal_node_id":"0.0-5.0-33.0"},{"rt":61522.10000002384,"responses":"{\"pregunta2\":\"b) A la relación entre civilización y sociedad.\"}","question_order":"[0]","trial_type":"survey-multi-choice","trial_index":39,"time_elapsed":13135718,"internal_node_id":"0.0-5.0-34.0"},{"rt":1635.3000000715256,"response":{"pregunta2 likert":2},"question_order":[0],"trial_type":"survey-likert","trial_index":40,"time_elapsed":13137358,"internal_node_id":"0.0-5.0-35.0"},{"rt":69666.90000009537,"responses":"{\"pregunta4\":\"a) Presentar positivamente las diversas tendencias del diseño de interiores a través de un comentario.\"}","question_order":"[0]","trial_type":"survey-multi-choice","trial_index":41,"time_elapsed":13207029,"internal_node_id":"0.0-5.0-36.0"},{"rt":1067.2000000476837,"response":{"pregunta4 likert":2},"question_order":[0],"trial_type":"survey-likert","trial_index":42,"time_elapsed":13208101,"internal_node_id":"0.0-5.0-37.0"},{"rt":72618.60000002384,"responses":"{\"pregunta15\":\"b) El receptor es habitualmente pasivo frente a la publicidad.\"}","question_order":"[0]","trial_type":"survey-multi-choice","trial_index":43,"time_elapsed":13280724,"internal_node_id":"0.0-5.0-38.0"},{"rt":1403.1999999284744,"response":{"pregunta15 likert":2},"question_order":[0],"trial_type":"survey-likert","trial_index":44,"time_elapsed":13282132,"internal_node_id":"0.0-5.0-39.0"},{"rt":3855.100000023842,"stimulus":"<p style=\"font-size: 120%\">Gracias por completar esta etapa del estudio. Ahora te invitamos a responder el cuestionario.<br><br></p>","response":0,"trial_type":"html-button-response","trial_index":45,"time_elapsed":13285996,"internal_node_id":"0.0-6.0"},{"rt":24334.200000047684,"stimulus":"<h1 style=\"margin-top: 5%\">Cuestionario para la Evaluación de Metas Académicas</h1><p style=\"font-size: 120%; margin-left: 3%; margin-top: 5%\">Este es un cuestionario que permite conocer cuáles son los principales motivos por los que los estudiantes se esfuerzan en su trabajo académico. A continuación, se te presentarán una serie de afirmaciones acerca de los motivos que puedes tener para estudiar.<br>Te pedimos que contestes a dichas afirmaciones reflexionando sobre el contenido de cada una de ellas, que, aunque te parezcan semejantes, en realidad, no lo son.<br>NO HAY RESPUESTAS CORRECTAS o INCORRECTAS, sólo queremos que respondas con la mayor precisión y sinceridad posible a las preguntas que se plantean.","response":0,"trial_type":"html-button-response","trial_index":46,"time_elapsed":13310332,"internal_node_id":"0.0-7.0"},{"rt":106868.79999995232,"response":{"Metas cuestionario pregunta1":2,"Metas cuestionario pregunta2":4,"Metas cuestionario pregunta3":4,"Metas cuestionario pregunta4":2,"Metas cuestionario pregunta5":3,"Metas cuestionario pregunta6":3,"Metas cuestionario pregunta7":4,"Metas cuestionario pregunta8":4,"Metas cuestionario pregunta9":2,"Metas cuestionario pregunta10":0,"Metas cuestionario pregunta11":0,"Metas cuestionario pregunta12":2,"Metas cuestionario pregunta13":2,"Metas cuestionario pregunta14":2,"Metas cuestionario pregunta15":4,"Metas cuestionario pregunta16":4,"Metas cuestionario pregunta17":4,"Metas cuestionario pregunta18":4,"Metas cuestionario pregunta19":4,"Metas cuestionario pregunta20":4},"question_order":[0,1,2,3,4,5,6,7,8,9,10,11,12,13,14,15,16,17,18,19],"trial_type":"survey-likert","trial_index":47,"time_elapsed":13417208,"internal_node_id":"0.0-8.0"}]