[{"rt":13679.300000011921,"stimulus":"<h1 style=\"color:red; margin-top: 3%;\">¡Bienvenido(a)!</h1><p style=\"text-align:left; justify-content:space-between; margin-right: 5%; margin-left: 5%; margin-top: 5%\"> Antes de empezar el estudio, necesitamos que nos confirmes que estás de acuerdo con participar. Recuerda que tu participación es 100% voluntaria y que lo único que te pedimos es responder lo mejor que puedas. Recuerda también que el estudio incluye:</p><ol style=\"text-align:left; justify-content:space-between; margin-right: 5%; margin-left: 5%;\"><li> un ejercicio de resolución de preguntas de selección múltiple (30’),</li><li>un cuestionario breve (5’),</li><li>un juego muy breve (3’),</li></ol><p style=\"text-align:left; justify-content:space-between; margin-right: 5%; margin-left: 5%;\">Si quieres participar, haz clic en “Acepto” luego de leer lo siguiente:<br></p><p style=\"text-align:left; justify-content:space-between; margin-right: 5%; margin-left: 5%;\">Acepto participar en el estudio “Estrategias de lectura y resolución de preguntas de selección múltiple”, en los términos aquí señalados:<br></p><p style=\"text-align:left; justify-content:space-between; margin-right: 5%; margin-left: 5%;\"><a href=\"http://ciae.uchile.cl/download.php?file=noticias/Asentimiento.pdf\" target=\"_blank\">Link a la hoja de información del Consentimiento.</a></p><p style=\"text-align:left; justify-content:space-between; margin-right: 5%; margin-left: 5%;\">Declaro que he leído (o se me ha leído) y (he) comprendido, las condiciones de mi participación en este estudio. He tenido la oportunidad de hacer preguntas y éstas han sido respondidas. No tengo dudas al respecto.</p>","response":0,"condicion_MCQ":5,"condicion_JUEGO":25,"condicion_INTER":1,"numero_participante":25,"numero_version":1,"dimx":412,"dimy":869,"color_profundidad":24,"pixel_profundidad":24,"Browser":"Google Chrome","dia":18,"mes":5,"hora":14,"minuto":17,"segundo":41,"trial_type":"html-button-response","trial_index":0,"time_elapsed":13683,"internal_node_id":"0.0-0.0"},{"success":true,"trial_type":"fullscreen","trial_index":1,"time_elapsed":20808,"internal_node_id":"0.0-1.0"},{"rt":56185.19999998808,"responses":"{\"Nombres\":\"Italo Andrés \",\"Apellidos\":\"Soto González\",\"Edad\":\"20\",\"Sexo\":\"Hombre\",\"Curso\":\"Seccion 200\",\"Colegio\":\"Universidad andres bello\",\"Contacto\":\"Italo.soto12@gmail.com\"}","trial_type":"survey-text","trial_index":2,"time_elapsed":77008,"internal_node_id":"0.0-2.0"},{"success":true,"timeout":false,"failed_images":[],"failed_audio":[],"failed_video":[],"trial_type":"preload","trial_index":3,"time_elapsed":78815,"internal_node_id":"0.0-3.0"},{"rt":10488.399999976158,"stimulus":"<h1 style:\"margin-top: 5%;\">Ejercicios de Comprensión de Lectura de la Universidad de Chile</h1><p style=\"font-size: 120%;\">En esta actividad, debes responder 20 preguntas de selección múltiple. Cada pregunta presenta 5 respuestas alternativas, pero sólo una de ellas es correcta. Por lo tanto, debes escoger una sola alternativa para cada pregunta. Además, debes reportar qué tan seguro(a) estás de la respuesta que das, con un:</p><ol style=\"font-size: 120%;text-align:left;margin-left: 40%;\"><li>No estoy seguro(a) para nada</li><li>No estoy muy seguro(a)</li><li>Estoy bastante seguro(a)</li><li>Estoy totalmente seguro(a)</li></ol><p style=\"font-size: 120%;\">Por favor lee bien los enunciados antes de responder. ¡Éxito!</p>","response":0,"trial_type":"html-button-response","trial_index":4,"time_elapsed":89306,"internal_node_id":"0.0-4.0"},{"rt":41680.700000047684,"responses":"{\"pregunta13\":\"e) Bomberos debería tener acceso a un seguro médico, al que pueda recurrir en caso de accidente.\"}","question_order":"[0]","trial_type":"survey-multi-choice","trial_index":5,"time_elapsed":130991,"internal_node_id":"0.0-5.0-0.0"},{"rt":2613,"response":{"pregunta13 likert":2},"question_order":[0],"trial_type":"survey-likert","trial_index":6,"time_elapsed":133609,"internal_node_id":"0.0-5.0-1.0"},{"rt":50574.69999998808,"responses":"{\"pregunta17\":\"a) Nuestra economía vivirá un proceso de ajuste a la nueva realidad.\"}","question_order":"[0]","trial_type":"survey-multi-choice","trial_index":7,"time_elapsed":184188,"internal_node_id":"0.0-5.0-2.0"},{"rt":1088.2000000476837,"response":{"pregunta17 likert":2},"question_order":[0],"trial_type":"survey-likert","trial_index":8,"time_elapsed":185280,"internal_node_id":"0.0-5.0-3.0"},{"rt":44555.200000047684,"responses":"{\"pregunta19\":\"a) el jardinero estará muerto al día siguiente.\"}","question_order":"[0]","trial_type":"survey-multi-choice","trial_index":9,"time_elapsed":229838,"internal_node_id":"0.0-5.0-4.0"},{"rt":1948.800000011921,"response":{"pregunta19 likert":3},"question_order":[0],"trial_type":"survey-likert","trial_index":10,"time_elapsed":231790,"internal_node_id":"0.0-5.0-5.0"},{"rt":75844.5,"responses":"{\"pregunta2\":\"b) A la relación entre pensamiento y estructura social.\"}","question_order":"[0]","trial_type":"survey-multi-choice","trial_index":11,"time_elapsed":307638,"internal_node_id":"0.0-5.0-6.0"},{"rt":1576,"response":{"pregunta2 likert":2},"question_order":[0],"trial_type":"survey-likert","trial_index":12,"time_elapsed":309217,"internal_node_id":"0.0-5.0-7.0"},{"rt":54547.69999998808,"responses":"{\"pregunta7\":\"c) ritualistas y obsesivos.\"}","question_order":"[0]","trial_type":"survey-multi-choice","trial_index":13,"time_elapsed":363768,"internal_node_id":"0.0-5.0-8.0"},{"rt":1364.9000000357628,"response":{"pregunta7 likert":3},"question_order":[0],"trial_type":"survey-likert","trial_index":14,"time_elapsed":365136,"internal_node_id":"0.0-5.0-9.0"},{"rt":47269.80000001192,"responses":"{\"pregunta14\":\"a) A la negligencia de la empresa que los traía a Chile.\"}","question_order":"[0]","trial_type":"survey-multi-choice","trial_index":15,"time_elapsed":412409,"internal_node_id":"0.0-5.0-10.0"},{"rt":1073.6000000238419,"response":{"pregunta14 likert":3},"question_order":[0],"trial_type":"survey-likert","trial_index":16,"time_elapsed":413487,"internal_node_id":"0.0-5.0-11.0"},{"rt":38897.5,"responses":"{\"pregunta12\":\"d) el uranio es el elemento natural con el mayor número de protones en el núcleo.\"}","question_order":"[0]","trial_type":"survey-multi-choice","trial_index":17,"time_elapsed":452388,"internal_node_id":"0.0-5.0-12.0"},{"rt":1399.7000000476837,"response":{"pregunta12 likert":3},"question_order":[0],"trial_type":"survey-likert","trial_index":18,"time_elapsed":453792,"internal_node_id":"0.0-5.0-13.0"},{"rt":38908.40000003576,"responses":"{\"pregunta10\":\"b) A la inutilidad de tanto esfuerzo si el objetivo es el reposo.\"}","question_order":"[0]","trial_type":"survey-multi-choice","trial_index":19,"time_elapsed":492704,"internal_node_id":"0.0-5.0-14.0"},{"rt":1645.4000000357628,"response":{"pregunta10 likert":3},"question_order":[0],"trial_type":"survey-likert","trial_index":20,"time_elapsed":494353,"internal_node_id":"0.0-5.0-15.0"},{"rt":74439.5,"responses":"{\"pregunta16\":\"e) sufren dolores de espalda.\"}","question_order":"[0]","trial_type":"survey-multi-choice","trial_index":21,"time_elapsed":568795,"internal_node_id":"0.0-5.0-16.0"},{"rt":1423.3999999761581,"response":{"pregunta16 likert":2},"question_order":[0],"trial_type":"survey-likert","trial_index":22,"time_elapsed":570222,"internal_node_id":"0.0-5.0-17.0"},{"rt":69436.30000001192,"responses":"{\"pregunta15\":\"e) El receptor es habitualmente pasivo frente a la publicidad.\"}","question_order":"[0]","trial_type":"survey-multi-choice","trial_index":23,"time_elapsed":639661,"internal_node_id":"0.0-5.0-18.0"},{"rt":1704.199999988079,"response":{"pregunta15 likert":3},"question_order":[0],"trial_type":"survey-likert","trial_index":24,"time_elapsed":641368,"internal_node_id":"0.0-5.0-19.0"},{"rt":74410.69999998808,"responses":"{\"pregunta11\":\"d) el mejor emperador es el que está muerto.\"}","question_order":"[0]","trial_type":"survey-multi-choice","trial_index":25,"time_elapsed":715781,"internal_node_id":"0.0-5.0-20.0"},{"rt":1030.5999999642372,"response":{"pregunta11 likert":3},"question_order":[0],"trial_type":"survey-likert","trial_index":26,"time_elapsed":716814,"internal_node_id":"0.0-5.0-21.0"},{"rt":38651,"responses":"{\"pregunta4\":\"e) Presentar positivamente las diversas tendencias del diseño de interiores a través de un comentario.\"}","question_order":"[0]","trial_type":"survey-multi-choice","trial_index":27,"time_elapsed":755468,"internal_node_id":"0.0-5.0-22.0"},{"rt":1110.300000011921,"response":{"pregunta4 likert":3},"question_order":[0],"trial_type":"survey-likert","trial_index":28,"time_elapsed":756581,"internal_node_id":"0.0-5.0-23.0"},{"rt":32471.700000047684,"responses":"{\"pregunta1\":\"b) Aportan informaciones con las que se reconstruye el personaje dentro de un relato.\"}","question_order":"[0]","trial_type":"survey-multi-choice","trial_index":29,"time_elapsed":789057,"internal_node_id":"0.0-5.0-24.0"},{"rt":2413.5,"response":{"pregunta1 likert":3},"question_order":[0],"trial_type":"survey-likert","trial_index":30,"time_elapsed":791474,"internal_node_id":"0.0-5.0-25.0"},{"rt":65317.80000001192,"responses":"{\"pregunta3\":\"c) La escritura olvida los momentos insignificantes de los viajes.\"}","question_order":"[0]","trial_type":"survey-multi-choice","trial_index":31,"time_elapsed":856795,"internal_node_id":"0.0-5.0-26.0"},{"rt":1830.1000000238419,"response":{"pregunta3 likert":3},"question_order":[0],"trial_type":"survey-likert","trial_index":32,"time_elapsed":858629,"internal_node_id":"0.0-5.0-27.0"},{"rt":60951.59999996424,"responses":"{\"pregunta6\":\"b) un recuerdo nostálgico.\"}","question_order":"[0]","trial_type":"survey-multi-choice","trial_index":33,"time_elapsed":919584,"internal_node_id":"0.0-5.0-28.0"},{"rt":3148.899999976158,"response":{"pregunta6 likert":2},"question_order":[0],"trial_type":"survey-likert","trial_index":34,"time_elapsed":922735,"internal_node_id":"0.0-5.0-29.0"},{"rt":68460.39999997616,"responses":"{\"pregunta9\":\"d) Homenajear a quienes murieron.\"}","question_order":"[0]","trial_type":"survey-multi-choice","trial_index":35,"time_elapsed":991199,"internal_node_id":"0.0-5.0-30.0"},{"rt":1673,"response":{"pregunta9 likert":3},"question_order":[0],"trial_type":"survey-likert","trial_index":36,"time_elapsed":992875,"internal_node_id":"0.0-5.0-31.0"},{"rt":45024.69999998808,"responses":"{\"pregunta8\":\"c) Provocar el deseo de la adquisición vertiginosa.\"}","question_order":"[0]","trial_type":"survey-multi-choice","trial_index":37,"time_elapsed":1037903,"internal_node_id":"0.0-5.0-32.0"},{"rt":951.6999999880791,"response":{"pregunta8 likert":3},"question_order":[0],"trial_type":"survey-likert","trial_index":38,"time_elapsed":1038858,"internal_node_id":"0.0-5.0-33.0"},{"rt":45662.60000002384,"responses":"{\"pregunta5\":\"c) El ser humano se comporta de acuerdo con las circunstancias.\"}","question_order":"[0]","trial_type":"survey-multi-choice","trial_index":39,"time_elapsed":1084525,"internal_node_id":"0.0-5.0-34.0"},{"rt":1092.800000011921,"response":{"pregunta5 likert":2},"question_order":[0],"trial_type":"survey-likert","trial_index":40,"time_elapsed":1085624,"internal_node_id":"0.0-5.0-35.0"},{"rt":61738.19999998808,"responses":"{\"pregunta18\":\"c) El derecho a informar y el derecho a la privacidad son inconciliables.\"}","question_order":"[0]","trial_type":"survey-multi-choice","trial_index":41,"time_elapsed":1147365,"internal_node_id":"0.0-5.0-36.0"},{"rt":1009.0999999642372,"response":{"pregunta18 likert":2},"question_order":[0],"trial_type":"survey-likert","trial_index":42,"time_elapsed":1148377,"internal_node_id":"0.0-5.0-37.0"},{"rt":28135.5,"responses":"{\"pregunta20\":\"a) para el mexicano, la muerte es cotidiana.\"}","question_order":"[0]","trial_type":"survey-multi-choice","trial_index":43,"time_elapsed":1176516,"internal_node_id":"0.0-5.0-38.0"},{"rt":1081.3999999761581,"response":{"pregunta20 likert":3},"question_order":[0],"trial_type":"survey-likert","trial_index":44,"time_elapsed":1177600,"internal_node_id":"0.0-5.0-39.0"}]