[{"rt":22947.099999904633,"stimulus":"<h1 style=\"color:red; margin-top: 3%;\">¡Bienvenido(a)!</h1><p style=\"text-align:left; justify-content:space-between; margin-right: 5%; margin-left: 5%; margin-top: 5%\"> Antes de empezar el estudio, necesitamos que nos confirmes que estás de acuerdo con participar. Recuerda que tu participación es 100% voluntaria y que lo único que te pedimos es responder lo mejor que puedas. Recuerda también que el estudio incluye:</p><ol style=\"text-align:left; justify-content:space-between; margin-right: 5%; margin-left: 5%;\"><li> un ejercicio de resolución de preguntas de selección múltiple (30’),</li><li>un cuestionario breve (5’),</li><li>un juego muy breve (3’),</li></ol><p style=\"text-align:left; justify-content:space-between; margin-right: 5%; margin-left: 5%;\">Si quieres participar, haz clic en “Acepto” luego de leer lo siguiente:<br></p><p style=\"text-align:left; justify-content:space-between; margin-right: 5%; margin-left: 5%;\">Acepto participar en el estudio “Estrategias de lectura y resolución de preguntas de selección múltiple”, en los términos aquí señalados:<br></p><p style=\"text-align:left; justify-content:space-between; margin-right: 5%; margin-left: 5%;\"><a href=\"http://ciae.uchile.cl/download.php?file=noticias/Asentimiento.pdf\" target=\"_blank\">Link a la hoja de información del Consentimiento.</a></p><p style=\"text-align:left; justify-content:space-between; margin-right: 5%; margin-left: 5%;\">Declaro que he leído (o se me ha leído) y (he) comprendido, las condiciones de mi participación en este estudio. He tenido la oportunidad de hacer preguntas y éstas han sido respondidas. No tengo dudas al respecto.</p>","response":0,"condicion_MCQ":12,"condicion_JUEGO":92,"condicion_INTER":20,"numero_participante":92,"numero_version":1,"dimx":1366,"dimy":768,"color_profundidad":24,"pixel_profundidad":24,"Browser":"Google Chrome","dia":23,"mes":5,"hora":22,"minuto":35,"segundo":36,"trial_type":"html-button-response","trial_index":0,"time_elapsed":22981,"internal_node_id":"0.0-0.0"},{"success":true,"trial_type":"fullscreen","trial_index":1,"time_elapsed":35794,"internal_node_id":"0.0-1.0"},{"rt":75766.60000002384,"responses":"{\"Nombres\":\"Macarena Paz\",\"Apellidos\":\"Lobos Silva\",\"Edad\":\"39\",\"Sexo\":\"mujer\",\"Curso\":\"primer año psicología vespertino\",\"Colegio\":\"UNAB\",\"Contacto\":\"macarenalobos.2006@gmail.com\"}","trial_type":"survey-text","trial_index":2,"time_elapsed":111586,"internal_node_id":"0.0-2.0"},{"success":true,"timeout":false,"failed_images":[],"failed_audio":[],"failed_video":[],"trial_type":"preload","trial_index":3,"time_elapsed":118975,"internal_node_id":"0.0-3.0"},{"rt":28928.299999952316,"stimulus":"<h1 style:\"margin-top: 5%;\">Ejercicios de Comprensión de Lectura de la Universidad de Chile</h1><p style=\"font-size: 120%;\">En esta actividad, debes responder 20 preguntas de selección múltiple. Cada pregunta presenta 5 respuestas alternativas, pero sólo una de ellas es correcta. Por lo tanto, debes escoger una sola alternativa para cada pregunta. Además, debes reportar qué tan seguro(a) estás de la respuesta que das, con un:</p><ol style=\"font-size: 120%;text-align:left;margin-left: 40%;\"><li>No estoy seguro(a) para nada</li><li>No estoy muy seguro(a)</li><li>Estoy bastante seguro(a)</li><li>Estoy totalmente seguro(a)</li></ol><p style=\"font-size: 120%;\">Por favor lee bien los enunciados antes de responder. ¡Éxito!</p>","response":0,"trial_type":"html-button-response","trial_index":4,"time_elapsed":147905,"internal_node_id":"0.0-4.0"},{"rt":324430,"responses":"{\"pregunta10\":\"b) A la inutilidad de tanto esfuerzo si el objetivo es el reposo.\"}","question_order":"[0]","trial_type":"survey-multi-choice","trial_index":5,"time_elapsed":472350,"internal_node_id":"0.0-5.0-0.0"},{"rt":7277.5,"response":{"pregunta10 likert":2},"question_order":[0],"trial_type":"survey-likert","trial_index":6,"time_elapsed":479631,"internal_node_id":"0.0-5.0-1.0"},{"rt":124214,"responses":"{\"pregunta4\":\"d) Promover la asistencia a un evento específico de decoración a través de una atractiva descripción.\"}","question_order":"[0]","trial_type":"survey-multi-choice","trial_index":7,"time_elapsed":603846,"internal_node_id":"0.0-5.0-2.0"},{"rt":3798,"response":{"pregunta4 likert":2},"question_order":[0],"trial_type":"survey-likert","trial_index":8,"time_elapsed":607646,"internal_node_id":"0.0-5.0-3.0"},{"rt":136766,"responses":"{\"pregunta6\":\"e) preparar los recuerdos del mañana.\"}","question_order":"[0]","trial_type":"survey-multi-choice","trial_index":9,"time_elapsed":744414,"internal_node_id":"0.0-5.0-4.0"},{"rt":2279,"response":{"pregunta6 likert":1},"question_order":[0],"trial_type":"survey-likert","trial_index":10,"time_elapsed":746694,"internal_node_id":"0.0-5.0-5.0"},{"rt":81582.20000004768,"responses":"{\"pregunta19\":\"c) el jardinero estará muerto al día siguiente.\"}","question_order":"[0]","trial_type":"survey-multi-choice","trial_index":11,"time_elapsed":828278,"internal_node_id":"0.0-5.0-6.0"},{"rt":3526.2999999523163,"response":{"pregunta19 likert":2},"question_order":[0],"trial_type":"survey-likert","trial_index":12,"time_elapsed":831806,"internal_node_id":"0.0-5.0-7.0"},{"rt":156885.89999997616,"responses":"{\"pregunta8\":\"c) Deleitar a sus receptores por medio de la belleza y el confort.\"}","question_order":"[0]","trial_type":"survey-multi-choice","trial_index":13,"time_elapsed":988695,"internal_node_id":"0.0-5.0-8.0"},{"rt":3541.899999976158,"response":{"pregunta8 likert":1},"question_order":[0],"trial_type":"survey-likert","trial_index":14,"time_elapsed":992239,"internal_node_id":"0.0-5.0-9.0"},{"rt":131877.59999990463,"responses":"{\"pregunta11\":\"c) la muerte de Wu Ti fue una bendición.\"}","question_order":"[0]","trial_type":"survey-multi-choice","trial_index":15,"time_elapsed":1124118,"internal_node_id":"0.0-5.0-10.0"},{"rt":3589.7000000476837,"response":{"pregunta11 likert":2},"question_order":[0],"trial_type":"survey-likert","trial_index":16,"time_elapsed":1127710,"internal_node_id":"0.0-5.0-11.0"},{"rt":200326.69999992847,"responses":"{\"pregunta16\":\"e) son propensas a fertilizar in vitro.\"}","question_order":"[0]","trial_type":"survey-multi-choice","trial_index":17,"time_elapsed":1328038,"internal_node_id":"0.0-5.0-12.0"},{"rt":2454.100000023842,"response":{"pregunta16 likert":1},"question_order":[0],"trial_type":"survey-likert","trial_index":18,"time_elapsed":1330493,"internal_node_id":"0.0-5.0-13.0"},{"rt":100102.70000004768,"responses":"{\"pregunta9\":\"d) Atraer a los turistas.\"}","question_order":"[0]","trial_type":"survey-multi-choice","trial_index":19,"time_elapsed":1430598,"internal_node_id":"0.0-5.0-14.0"},{"rt":2678.5999999046326,"response":{"pregunta9 likert":2},"question_order":[0],"trial_type":"survey-likert","trial_index":20,"time_elapsed":1433278,"internal_node_id":"0.0-5.0-15.0"},{"rt":69510.20000004768,"responses":"{\"pregunta18\":\"c) Se necesita un marco legal para delimitar lo público y lo privado en materia informativa.\"}","question_order":"[0]","trial_type":"survey-multi-choice","trial_index":21,"time_elapsed":1502790,"internal_node_id":"0.0-5.0-16.0"},{"rt":1974.4000000953674,"response":{"pregunta18 likert":2},"question_order":[0],"trial_type":"survey-likert","trial_index":22,"time_elapsed":1504766,"internal_node_id":"0.0-5.0-17.0"},{"rt":120782.39999997616,"responses":"{\"pregunta14\":\"b) A la influencia de grupos que rechazaban su música.\"}","question_order":"[0]","trial_type":"survey-multi-choice","trial_index":23,"time_elapsed":1625549,"internal_node_id":"0.0-5.0-18.0"},{"rt":2182.5,"response":{"pregunta14 likert":2},"question_order":[0],"trial_type":"survey-likert","trial_index":24,"time_elapsed":1627734,"internal_node_id":"0.0-5.0-19.0"},{"rt":144910.40000009537,"responses":"{\"pregunta13\":\"e) Por el riesgo que corren diariamente, los bomberos deberían tener mejores condiciones de seguridad.\"}","question_order":"[0]","trial_type":"survey-multi-choice","trial_index":25,"time_elapsed":1772646,"internal_node_id":"0.0-5.0-20.0"},{"rt":2917.5,"response":{"pregunta13 likert":2},"question_order":[0],"trial_type":"survey-likert","trial_index":26,"time_elapsed":1775566,"internal_node_id":"0.0-5.0-21.0"},{"rt":158197.5,"responses":"{\"pregunta1\":\"c) Aportan informaciones con las que se reconstruye el personaje dentro de un relato.\"}","question_order":"[0]","trial_type":"survey-multi-choice","trial_index":27,"time_elapsed":1933765,"internal_node_id":"0.0-5.0-22.0"},{"rt":1806.7000000476837,"response":{"pregunta1 likert":2},"question_order":[0],"trial_type":"survey-likert","trial_index":28,"time_elapsed":1935574,"internal_node_id":"0.0-5.0-23.0"},{"rt":48318.09999990463,"responses":"{\"pregunta20\":\"c) para el mexicano, la muerte es cotidiana.\"}","question_order":"[0]","trial_type":"survey-multi-choice","trial_index":29,"time_elapsed":1983893,"internal_node_id":"0.0-5.0-24.0"},{"rt":2134.399999976158,"response":{"pregunta20 likert":2},"question_order":[0],"trial_type":"survey-likert","trial_index":30,"time_elapsed":1986029,"internal_node_id":"0.0-5.0-25.0"},{"rt":124829.79999995232,"responses":"{\"pregunta2\":\"d) A la relación entre pensamiento y estructura social.\"}","question_order":"[0]","trial_type":"survey-multi-choice","trial_index":31,"time_elapsed":2110862,"internal_node_id":"0.0-5.0-26.0"},{"rt":1821.8999999761581,"response":{"pregunta2 likert":2},"question_order":[0],"trial_type":"survey-likert","trial_index":32,"time_elapsed":2112686,"internal_node_id":"0.0-5.0-27.0"},{"rt":149062.20000004768,"responses":"{\"pregunta12\":\"e) la creación de elementos químicos es altamente contaminante.\"}","question_order":"[0]","trial_type":"survey-multi-choice","trial_index":33,"time_elapsed":2261749,"internal_node_id":"0.0-5.0-28.0"},{"rt":2309.600000023842,"response":{"pregunta12 likert":2},"question_order":[0],"trial_type":"survey-likert","trial_index":34,"time_elapsed":2264061,"internal_node_id":"0.0-5.0-29.0"},{"rt":46613.39999997616,"responses":"{\"pregunta17\":\"e) El TLC causará una completa transformación de la economía chilena.\"}","question_order":"[0]","trial_type":"survey-multi-choice","trial_index":35,"time_elapsed":2310677,"internal_node_id":"0.0-5.0-30.0"},{"rt":1582.3000000715256,"response":{"pregunta17 likert":2},"question_order":[0],"trial_type":"survey-likert","trial_index":36,"time_elapsed":2312262,"internal_node_id":"0.0-5.0-31.0"},{"rt":132341.60000002384,"responses":"{\"pregunta7\":\"b) religiosos y precavidos.\"}","question_order":"[0]","trial_type":"survey-multi-choice","trial_index":37,"time_elapsed":2444605,"internal_node_id":"0.0-5.0-32.0"},{"rt":1733.7999999523163,"response":{"pregunta7 likert":1},"question_order":[0],"trial_type":"survey-likert","trial_index":38,"time_elapsed":2446342,"internal_node_id":"0.0-5.0-33.0"},{"rt":126645.29999995232,"responses":"{\"pregunta3\":\"b) La escritura plasma los mejores momentos de los viajes.\"}","question_order":"[0]","trial_type":"survey-multi-choice","trial_index":39,"time_elapsed":2572990,"internal_node_id":"0.0-5.0-34.0"},{"rt":2069.399999976158,"response":{"pregunta3 likert":1},"question_order":[0],"trial_type":"survey-likert","trial_index":40,"time_elapsed":2575062,"internal_node_id":"0.0-5.0-35.0"},{"rt":63621.39999997616,"responses":"{\"pregunta5\":\"d) El ser humano se comporta de acuerdo con las circunstancias.\"}","question_order":"[0]","trial_type":"survey-multi-choice","trial_index":41,"time_elapsed":2638686,"internal_node_id":"0.0-5.0-36.0"},{"rt":4021.7000000476837,"response":{"pregunta5 likert":1},"question_order":[0],"trial_type":"survey-likert","trial_index":42,"time_elapsed":2642710,"internal_node_id":"0.0-5.0-37.0"},{"rt":97461.5,"responses":"{\"pregunta15\":\"a) El receptor es el que posee la decisión sobre la publicidad.\"}","question_order":"[0]","trial_type":"survey-multi-choice","trial_index":43,"time_elapsed":2740173,"internal_node_id":"0.0-5.0-38.0"},{"rt":2205.6999999284744,"response":{"pregunta15 likert":2},"question_order":[0],"trial_type":"survey-likert","trial_index":44,"time_elapsed":2742380,"internal_node_id":"0.0-5.0-39.0"},{"rt":4266.100000023842,"stimulus":"<p style=\"font-size: 120%\">Gracias por completar esta etapa del estudio. Ahora te invitamos a responder el cuestionario.<br><br></p>","response":0,"trial_type":"html-button-response","trial_index":45,"time_elapsed":2746748,"internal_node_id":"0.0-6.0"},{"rt":30831,"stimulus":"<h1 style=\"margin-top: 5%\">Cuestionario para la Evaluación de Metas Académicas</h1><p style=\"font-size: 120%; margin-left: 3%; margin-top: 5%\">Este es un cuestionario que permite conocer cuáles son los principales motivos por los que los estudiantes se esfuerzan en su trabajo académico. A continuación, se te presentarán una serie de afirmaciones acerca de los motivos que puedes tener para estudiar.<br>Te pedimos que contestes a dichas afirmaciones reflexionando sobre el contenido de cada una de ellas, que, aunque te parezcan semejantes, en realidad, no lo son.<br>NO HAY RESPUESTAS CORRECTAS o INCORRECTAS, sólo queremos que respondas con la mayor precisión y sinceridad posible a las preguntas que se plantean.","response":0,"trial_type":"html-button-response","trial_index":46,"time_elapsed":2777580,"internal_node_id":"0.0-7.0"},{"rt":170838.39999997616,"response":{"Metas cuestionario pregunta1":3,"Metas cuestionario pregunta2":3,"Metas cuestionario pregunta3":3,"Metas cuestionario pregunta4":2,"Metas cuestionario pregunta5":4,"Metas cuestionario pregunta6":2,"Metas cuestionario pregunta7":3,"Metas cuestionario pregunta8":2,"Metas cuestionario pregunta9":1,"Metas cuestionario pregunta10":0,"Metas cuestionario pregunta11":0,"Metas cuestionario pregunta12":0,"Metas cuestionario pregunta13":0,"Metas cuestionario pregunta14":0,"Metas cuestionario pregunta15":4,"Metas cuestionario pregunta16":4,"Metas cuestionario pregunta17":4,"Metas cuestionario pregunta18":3,"Metas cuestionario pregunta19":3,"Metas cuestionario pregunta20":2},"question_order":[0,1,2,3,4,5,6,7,8,9,10,11,12,13,14,15,16,17,18,19],"trial_type":"survey-likert","trial_index":47,"time_elapsed":2948424,"internal_node_id":"0.0-8.0"},{"rt":4566.899999976158,"stimulus":"<p style=\"font-size: 120%\">Gracias por responder el cuestionario. Ahora te invitamos a seguir con el juego, que es muy breve.<br><br></p>","response":0,"trial_type":"html-button-response","trial_index":48,"time_elapsed":2952997,"internal_node_id":"0.0-9.0"},{"rt":16822,"stimulus":"<h1>Juego</h1><p style=\"font-size: 120%;\">A continuación se te presentarán 16 pequeñas historias.<br>Por favor lee el texto presentado en cada una de ellas y luego haz click en el objeto de tu elección.<br>Si estás listo(a),<span style=\"color:red;\"> haz click en \"comenzar\"</span>.</p>","response":0,"trial_type":"html-button-response","trial_index":49,"time_elapsed":2969820,"internal_node_id":"0.0-10.0"},{"rt":12785.800000071526,"grid":[[1,1,1,1,1]],"target":[0,0],"response":[0,2],"correct":false,"juego":2,"trial_type":"serial-reaction-time-mouse","trial_index":50,"time_elapsed":2982609,"internal_node_id":"0.0-11.0-0.0"},{"rt":5763.299999952316,"grid":[[1],[1],[1],[1],[1]],"target":[0,0],"response":[0,0],"correct":true,"juego":4,"trial_type":"serial-reaction-time-mouse","trial_index":51,"time_elapsed":2988375,"internal_node_id":"0.0-11.0-1.0"},{"rt":8791.5,"grid":[[1,1,1,1,1]],"target":[0,0],"response":[0,2],"correct":false,"juego":8,"trial_type":"serial-reaction-time-mouse","trial_index":52,"time_elapsed":2997169,"internal_node_id":"0.0-11.0-2.0"},{"rt":7916.200000047684,"grid":[[1,1,1,1,1]],"target":[0,0],"response":[0,3],"correct":false,"juego":7,"trial_type":"serial-reaction-time-mouse","trial_index":53,"time_elapsed":3005087,"internal_node_id":"0.0-11.0-3.0"},{"rt":8973.899999976158,"grid":[[1,1,1],[1,1,1],[1,1,1],[1,1,1],[1,1,1],[1,1,1],[1,1,1],[1,1,1],[1,1,1],[1,1,1],[1,1,1]],"target":[0,0],"response":[9,1],"correct":false,"juego":6,"trial_type":"serial-reaction-time-mouse","trial_index":54,"time_elapsed":3014064,"internal_node_id":"0.0-11.0-4.0"},{"rt":7682.699999928474,"grid":[[1,1,1],[1,1,1],[1,1,1],[1,1,1],[1,1,1],[1,1,1],[1,1,1],[1,1,1],[1,1,1],[1,1,1],[1,1,1]],"target":[0,0],"response":[3,1],"correct":false,"juego":5,"trial_type":"serial-reaction-time-mouse","trial_index":55,"time_elapsed":3021750,"internal_node_id":"0.0-11.0-5.0"},{"rt":6672.900000095367,"grid":[[1,1,1,1,1]],"target":[0,0],"response":[0,1],"correct":false,"juego":9,"trial_type":"serial-reaction-time-mouse","trial_index":56,"time_elapsed":3028424,"internal_node_id":"0.0-11.0-6.0"},{"rt":13227,"grid":[[1,1,1],[1,1,1],[1,1,1],[1,1,1],[1,1,1],[1,1,1],[1,1,1],[1,1,1],[1,1,1],[1,1,1],[1,1,1]],"target":[0,0],"response":[1,2],"correct":false,"juego":10,"trial_type":"serial-reaction-time-mouse","trial_index":57,"time_elapsed":3041656,"internal_node_id":"0.0-11.0-7.0"},{"rt":21709.399999976158,"grid":[[1,1,1,1,1]],"target":[0,0],"response":[0,0],"correct":true,"juego":11,"trial_type":"serial-reaction-time-mouse","trial_index":58,"time_elapsed":3063367,"internal_node_id":"0.0-11.0-8.0"},{"rt":6469.100000023842,"grid":[[1,1,1],[1,1,1],[1,1,1],[1,1,1],[1,1,1],[1,1,1],[1,1,1],[1,1,1],[1,1,1],[1,1,1],[1,1,1]],"target":[0,0],"response":[9,1],"correct":false,"juego":13,"trial_type":"serial-reaction-time-mouse","trial_index":59,"time_elapsed":3069838,"internal_node_id":"0.0-11.0-9.0"},{"rt":4183.599999904633,"grid":[[1,1,1,1],[1,1,1,1],[1,1,1,1],[1,1,1,1],[1,1,1,1],[1,1,1,1],[1,1,1,1],[1,1,1,1],[1,1,1,1],[1,1,1,1],[1,1,1,1]],"target":[0,0],"response":[7,2],"correct":false,"juego":14,"trial_type":"serial-reaction-time-mouse","trial_index":60,"time_elapsed":3074025,"internal_node_id":"0.0-11.0-10.0"},{"rt":4370.899999976158,"grid":[[1,1,1,1],[1,1,1,1],[1,1,1,1],[1,1,1,1],[1,1,1,1],[1,1,1,1],[1,1,1,1],[1,1,1,1],[1,1,1,1],[1,1,1,1],[1,1,1,1]],"target":[0,0],"response":[1,2],"correct":false,"juego":15,"trial_type":"serial-reaction-time-mouse","trial_index":61,"time_elapsed":3078400,"internal_node_id":"0.0-11.0-11.0"},{"rt":4730.599999904633,"grid":[[1,1,1,1,1]],"target":[0,0],"response":[0,3],"correct":false,"juego":12,"trial_type":"serial-reaction-time-mouse","trial_index":62,"time_elapsed":3083133,"internal_node_id":"0.0-11.0-12.0"},{"rt":2769.3000000715256,"grid":[[1,1,1,1,1]],"target":[0,0],"response":[0,3],"correct":false,"juego":3,"trial_type":"serial-reaction-time-mouse","trial_index":63,"time_elapsed":3085904,"internal_node_id":"0.0-11.0-13.0"},{"rt":2996.8000000715256,"grid":[[1,1,1,1,1]],"target":[0,0],"response":[0,1],"correct":false,"juego":1,"trial_type":"serial-reaction-time-mouse","trial_index":64,"time_elapsed":3088903,"internal_node_id":"0.0-11.0-14.0"}]