[{"rt":4158,"stimulus":"<h1 style=\"color:red; margin-top: 3%;\">¡Bienvenido(a)!</h1><p style=\"text-align:left; justify-content:space-between; margin-right: 5%; margin-left: 5%; margin-top: 5%\"> Antes de empezar el estudio, necesitamos que nos confirmes que estás de acuerdo con participar. Recuerda que tu participación es 100% voluntaria y que lo único que te pedimos es responder lo mejor que puedas. Recuerda también que el estudio incluye:</p><ol style=\"text-align:left; justify-content:space-between; margin-right: 5%; margin-left: 5%;\"><li> un ejercicio de resolución de preguntas de selección múltiple (30’),</li><li>un cuestionario breve (5’),</li><li>un juego muy breve (3’),</li></ol><p style=\"text-align:left; justify-content:space-between; margin-right: 5%; margin-left: 5%;\">Si quieres participar, haz clic en “Acepto” luego de leer lo siguiente:<br></p><p style=\"text-align:left; justify-content:space-between; margin-right: 5%; margin-left: 5%;\">Acepto participar en el estudio “Estrategias de lectura y resolución de preguntas de selección múltiple”, en los términos aquí señalados:<br></p><p style=\"text-align:left; justify-content:space-between; margin-right: 5%; margin-left: 5%;\"><a href=\"http://ciae.uchile.cl/download.php?file=noticias/Asentimiento.pdf\" target=\"_blank\">Link a la hoja de información del Consentimiento.</a></p><p style=\"text-align:left; justify-content:space-between; margin-right: 5%; margin-left: 5%;\">Declaro que he leído (o se me ha leído) y (he) comprendido, las condiciones de mi participación en este estudio. He tenido la oportunidad de hacer preguntas y éstas han sido respondidas. No tengo dudas al respecto.</p>","response":0,"condicion_MCQ":1,"condicion_JUEGO":101,"condicion_INTER":5,"numero_participante":101,"numero_version":2,"dimx":810,"dimy":1080,"color_profundidad":32,"pixel_profundidad":32,"Browser":"No identificado","dia":26,"mes":5,"hora":0,"minuto":28,"segundo":1,"trial_type":"html-button-response","trial_index":0,"time_elapsed":4164,"internal_node_id":"0.0-0.0"},{"success":true,"trial_type":"fullscreen","trial_index":1,"time_elapsed":13662,"internal_node_id":"0.0-1.0"},{"rt":219669.00000000003,"responses":"{\"Nombres\":\"Daniela Victoria \",\"Apellidos\":\"Oyarzún Lara\",\"Edad\":\"19\",\"Sexo\":\"mujer\",\"Curso\":\"Sección 201\",\"Colegio\":\"Andrés Bello\",\"Contacto\":\"daniela.oyarzun.lara@gmail.com\"}","trial_type":"survey-text","trial_index":2,"time_elapsed":233352,"internal_node_id":"0.0-2.0"},{"success":true,"timeout":false,"failed_images":[],"failed_audio":[],"failed_video":[],"trial_type":"preload","trial_index":3,"time_elapsed":235259,"internal_node_id":"0.0-3.0"},{"rt":18296.00000000003,"stimulus":"<h1 style:\"margin-top: 5%;\">Ejercicios de Comprensión de Lectura de la Universidad de Chile</h1><p style=\"font-size: 120%;\">En esta actividad, debes responder 20 preguntas de selección múltiple. Cada pregunta presenta 5 respuestas alternativas, pero sólo una de ellas es correcta. Por lo tanto, debes escoger una sola alternativa para cada pregunta. Además, debes reportar qué tan seguro(a) estás de la respuesta que das, con un:</p><ol style=\"font-size: 120%;text-align:left;margin-left: 40%;\"><li>No estoy seguro(a) para nada</li><li>No estoy muy seguro(a)</li><li>Estoy bastante seguro(a)</li><li>Estoy totalmente seguro(a)</li></ol><p style=\"font-size: 120%;\">Por favor lee bien los enunciados antes de responder. ¡Éxito!</p>","response":0,"trial_type":"html-button-response","trial_index":4,"time_elapsed":253557,"internal_node_id":"0.0-4.0"},{"rt":116063.99999999997,"responses":"{\"pregunta16\":\"e) llevan un control grupal de su embarazo.\"}","question_order":"[0]","trial_type":"survey-multi-choice","trial_index":5,"time_elapsed":369624,"internal_node_id":"0.0-5.0-0.0"},{"rt":8237,"response":{"pregunta16 likert":1},"question_order":[0],"trial_type":"survey-likert","trial_index":6,"time_elapsed":377867,"internal_node_id":"0.0-5.0-1.0"},{"rt":70268,"responses":"{\"pregunta10\":\"b) A la inutilidad de tanto esfuerzo si el objetivo es el reposo.\"}","question_order":"[0]","trial_type":"survey-multi-choice","trial_index":7,"time_elapsed":448134,"internal_node_id":"0.0-5.0-2.0"},{"rt":2676.999999999942,"response":{"pregunta10 likert":2},"question_order":[0],"trial_type":"survey-likert","trial_index":8,"time_elapsed":450816,"internal_node_id":"0.0-5.0-3.0"},{"rt":61479.00000000006,"responses":"{\"pregunta2\":\"a) A la relación entre pensamiento y estructura social.\"}","question_order":"[0]","trial_type":"survey-multi-choice","trial_index":9,"time_elapsed":512296,"internal_node_id":"0.0-5.0-4.0"},{"rt":3818.999999999942,"response":{"pregunta2 likert":2},"question_order":[0],"trial_type":"survey-likert","trial_index":10,"time_elapsed":516118,"internal_node_id":"0.0-5.0-5.0"},{"rt":99366,"responses":"{\"pregunta19\":\"e) el jardinero estará muerto al día siguiente.\"}","question_order":"[0]","trial_type":"survey-multi-choice","trial_index":11,"time_elapsed":615482,"internal_node_id":"0.0-5.0-6.0"},{"rt":3157,"response":{"pregunta19 likert":2},"question_order":[0],"trial_type":"survey-likert","trial_index":12,"time_elapsed":618643,"internal_node_id":"0.0-5.0-7.0"},{"rt":64575,"responses":"{\"pregunta6\":\"b) preparar los recuerdos del mañana.\"}","question_order":"[0]","trial_type":"survey-multi-choice","trial_index":13,"time_elapsed":683219,"internal_node_id":"0.0-5.0-8.0"},{"rt":1620,"response":{"pregunta6 likert":3},"question_order":[0],"trial_type":"survey-likert","trial_index":14,"time_elapsed":684842,"internal_node_id":"0.0-5.0-9.0"},{"rt":38486,"responses":"{\"pregunta20\":\"e) para el mexicano, la muerte es cotidiana.\"}","question_order":"[0]","trial_type":"survey-multi-choice","trial_index":15,"time_elapsed":723330,"internal_node_id":"0.0-5.0-10.0"},{"rt":4352.000000000116,"response":{"pregunta20 likert":3},"question_order":[0],"trial_type":"survey-likert","trial_index":16,"time_elapsed":727687,"internal_node_id":"0.0-5.0-11.0"},{"rt":47007,"responses":"{\"pregunta14\":\"d) A la influencia de grupos que rechazaban su música.\"}","question_order":"[0]","trial_type":"survey-multi-choice","trial_index":17,"time_elapsed":774694,"internal_node_id":"0.0-5.0-12.0"},{"rt":2162.9999999998836,"response":{"pregunta14 likert":3},"question_order":[0],"trial_type":"survey-likert","trial_index":18,"time_elapsed":776862,"internal_node_id":"0.0-5.0-13.0"},{"rt":54199,"responses":"{\"pregunta18\":\"e) Se necesita un marco legal para delimitar lo público y lo privado en materia informativa.\"}","question_order":"[0]","trial_type":"survey-multi-choice","trial_index":19,"time_elapsed":831126,"internal_node_id":"0.0-5.0-14.0"},{"rt":1418,"response":{"pregunta18 likert":2},"question_order":[0],"trial_type":"survey-likert","trial_index":20,"time_elapsed":832547,"internal_node_id":"0.0-5.0-15.0"},{"rt":65403,"responses":"{\"pregunta7\":\"b) ritualistas y obsesivos.\"}","question_order":"[0]","trial_type":"survey-multi-choice","trial_index":21,"time_elapsed":897951,"internal_node_id":"0.0-5.0-16.0"},{"rt":2387,"response":{"pregunta7 likert":1},"question_order":[0],"trial_type":"survey-likert","trial_index":22,"time_elapsed":900340,"internal_node_id":"0.0-5.0-17.0"},{"rt":72706,"responses":"{\"pregunta15\":\"d) El receptor es habitualmente pasivo frente a la publicidad.\"}","question_order":"[0]","trial_type":"survey-multi-choice","trial_index":23,"time_elapsed":973045,"internal_node_id":"0.0-5.0-18.0"},{"rt":3188.0000000001164,"response":{"pregunta15 likert":1},"question_order":[0],"trial_type":"survey-likert","trial_index":24,"time_elapsed":976235,"internal_node_id":"0.0-5.0-19.0"},{"rt":62953.00000000012,"responses":"{\"pregunta3\":\"d) La escritura plasma los mejores momentos de los viajes.\"}","question_order":"[0]","trial_type":"survey-multi-choice","trial_index":25,"time_elapsed":1039188,"internal_node_id":"0.0-5.0-20.0"},{"rt":1469,"response":{"pregunta3 likert":2},"question_order":[0],"trial_type":"survey-likert","trial_index":26,"time_elapsed":1040664,"internal_node_id":"0.0-5.0-21.0"},{"rt":77108.99999999988,"responses":"{\"pregunta8\":\"b) Provocar el deseo de la adquisición vertiginosa.\"}","question_order":"[0]","trial_type":"survey-multi-choice","trial_index":27,"time_elapsed":1117773,"internal_node_id":"0.0-5.0-22.0"},{"rt":2435,"response":{"pregunta8 likert":2},"question_order":[0],"trial_type":"survey-likert","trial_index":28,"time_elapsed":1120212,"internal_node_id":"0.0-5.0-23.0"},{"rt":55814.00000000023,"responses":"{\"pregunta11\":\"c) el mejor emperador es el que está muerto.\"}","question_order":"[0]","trial_type":"survey-multi-choice","trial_index":29,"time_elapsed":1176026,"internal_node_id":"0.0-5.0-24.0"},{"rt":1388,"response":{"pregunta11 likert":1},"question_order":[0],"trial_type":"survey-likert","trial_index":30,"time_elapsed":1177419,"internal_node_id":"0.0-5.0-25.0"},{"rt":36244,"responses":"{\"pregunta1\":\"a) Aportan informaciones con las que se reconstruye el personaje dentro de un relato.\"}","question_order":"[0]","trial_type":"survey-multi-choice","trial_index":31,"time_elapsed":1213664,"internal_node_id":"0.0-5.0-26.0"},{"rt":1837,"response":{"pregunta1 likert":3},"question_order":[0],"trial_type":"survey-likert","trial_index":32,"time_elapsed":1215504,"internal_node_id":"0.0-5.0-27.0"},{"rt":64494,"responses":"{\"pregunta9\":\"c) Homenajear a quienes murieron.\"}","question_order":"[0]","trial_type":"survey-multi-choice","trial_index":33,"time_elapsed":1280003,"internal_node_id":"0.0-5.0-28.0"},{"rt":1787,"response":{"pregunta9 likert":3},"question_order":[0],"trial_type":"survey-likert","trial_index":34,"time_elapsed":1281794,"internal_node_id":"0.0-5.0-29.0"},{"rt":41432,"responses":"{\"pregunta13\":\"d) Bomberos debería tener acceso a un seguro médico, al que pueda recurrir en caso de accidente.\"}","question_order":"[0]","trial_type":"survey-multi-choice","trial_index":35,"time_elapsed":1323228,"internal_node_id":"0.0-5.0-30.0"},{"rt":1582,"response":{"pregunta13 likert":2},"question_order":[0],"trial_type":"survey-likert","trial_index":36,"time_elapsed":1324813,"internal_node_id":"0.0-5.0-31.0"},{"rt":40232.00000000023,"responses":"{\"pregunta17\":\"e) Nuestra economía vivirá un proceso de ajuste a la nueva realidad.\"}","question_order":"[0]","trial_type":"survey-multi-choice","trial_index":37,"time_elapsed":1365048,"internal_node_id":"0.0-5.0-32.0"},{"rt":2098,"response":{"pregunta17 likert":2},"question_order":[0],"trial_type":"survey-likert","trial_index":38,"time_elapsed":1367149,"internal_node_id":"0.0-5.0-33.0"},{"rt":65966,"responses":"{\"pregunta4\":\"b) Exponer sobre los conceptos de decoración dominantes en nuestro país.\"}","question_order":"[0]","trial_type":"survey-multi-choice","trial_index":39,"time_elapsed":1433116,"internal_node_id":"0.0-5.0-34.0"},{"rt":2680,"response":{"pregunta4 likert":1},"question_order":[0],"trial_type":"survey-likert","trial_index":40,"time_elapsed":1435801,"internal_node_id":"0.0-5.0-35.0"},{"rt":51048,"responses":"{\"pregunta5\":\"b) El ser humano se comporta de acuerdo con las circunstancias.\"}","question_order":"[0]","trial_type":"survey-multi-choice","trial_index":41,"time_elapsed":1486850,"internal_node_id":"0.0-5.0-36.0"},{"rt":1944,"response":{"pregunta5 likert":2},"question_order":[0],"trial_type":"survey-likert","trial_index":42,"time_elapsed":1488797,"internal_node_id":"0.0-5.0-37.0"},{"rt":117038,"responses":"{\"pregunta12\":\"c) el uranio es el elemento natural con el mayor número de protones en el núcleo.\"}","question_order":"[0]","trial_type":"survey-multi-choice","trial_index":43,"time_elapsed":1605833,"internal_node_id":"0.0-5.0-38.0"},{"rt":2450,"response":{"pregunta12 likert":0},"question_order":[0],"trial_type":"survey-likert","trial_index":44,"time_elapsed":1608286,"internal_node_id":"0.0-5.0-39.0"},{"rt":3791,"stimulus":"<p style=\"font-size: 120%\">Gracias por completar esta etapa del estudio. Ahora te invitamos a responder el cuestionario.<br><br></p>","response":0,"trial_type":"html-button-response","trial_index":45,"time_elapsed":1612086,"internal_node_id":"0.0-6.0"},{"rt":23421.000000000233,"stimulus":"<h1 style=\"margin-top: 5%\">Cuestionario para la Evaluación de Metas Académicas</h1><p style=\"font-size: 120%; margin-left: 3%; margin-top: 5%\">Este es un cuestionario que permite conocer cuáles son los principales motivos por los que los estudiantes se esfuerzan en su trabajo académico. A continuación, se te presentarán una serie de afirmaciones acerca de los motivos que puedes tener para estudiar.<br>Te pedimos que contestes a dichas afirmaciones reflexionando sobre el contenido de cada una de ellas, que, aunque te parezcan semejantes, en realidad, no lo son.<br>NO HAY RESPUESTAS CORRECTAS o INCORRECTAS, sólo queremos que respondas con la mayor precisión y sinceridad posible a las preguntas que se plantean.","response":0,"trial_type":"html-button-response","trial_index":46,"time_elapsed":1635507,"internal_node_id":"0.0-7.0"},{"rt":129930.99999999977,"response":{"Metas cuestionario pregunta1":4,"Metas cuestionario pregunta2":4,"Metas cuestionario pregunta3":4,"Metas cuestionario pregunta4":4,"Metas cuestionario pregunta5":4,"Metas cuestionario pregunta6":4,"Metas cuestionario pregunta7":4,"Metas cuestionario pregunta8":4,"Metas cuestionario pregunta9":2,"Metas cuestionario pregunta10":0,"Metas cuestionario pregunta11":0,"Metas cuestionario pregunta12":2,"Metas cuestionario pregunta13":3,"Metas cuestionario pregunta14":1,"Metas cuestionario pregunta15":4,"Metas cuestionario pregunta16":4,"Metas cuestionario pregunta17":4,"Metas cuestionario pregunta18":4,"Metas cuestionario pregunta19":4,"Metas cuestionario pregunta20":3},"question_order":[0,1,2,3,4,5,6,7,8,9,10,11,12,13,14,15,16,17,18,19],"trial_type":"survey-likert","trial_index":47,"time_elapsed":1765469,"internal_node_id":"0.0-8.0"},{"rt":4228,"stimulus":"<p style=\"font-size: 120%\">Gracias por responder el cuestionario. Ahora te invitamos a seguir con el juego, que es muy breve.<br><br></p>","response":0,"trial_type":"html-button-response","trial_index":48,"time_elapsed":1769704,"internal_node_id":"0.0-9.0"},{"rt":10416,"stimulus":"<h1>Juego</h1><p style=\"font-size: 120%;\">A continuación se te presentarán 16 pequeñas historias.<br>Por favor lee el texto presentado en cada una de ellas y luego haz click en el objeto de tu elección.<br>Si estás listo(a),<span style=\"color:red;\"> haz click en \"comenzar\"</span>.</p>","response":0,"trial_type":"html-button-response","trial_index":49,"time_elapsed":1780123,"internal_node_id":"0.0-10.0"},{"rt":9701,"grid":[[1,1,1,1,1]],"target":[0,0],"response":[0,3],"correct":false,"juego":8,"trial_type":"serial-reaction-time-mouse","trial_index":50,"time_elapsed":1789829,"internal_node_id":"0.0-11.0-0.0"},{"rt":20678.000000000233,"grid":[[1,1,1,1],[1,1,1,1],[1,1,1,1],[1,1,1,1],[1,1,1,1],[1,1,1,1],[1,1,1,1],[1,1,1,1],[1,1,1,1],[1,1,1,1],[1,1,1,1]],"target":[0,0],"response":[5,2],"correct":false,"juego":15,"trial_type":"serial-reaction-time-mouse","trial_index":51,"time_elapsed":1810514,"internal_node_id":"0.0-11.0-1.0"},{"rt":7092,"grid":[[1],[1],[1],[1],[1]],"target":[0,0],"response":[2,0],"correct":false,"juego":4,"trial_type":"serial-reaction-time-mouse","trial_index":52,"time_elapsed":1817611,"internal_node_id":"0.0-11.0-2.0"},{"rt":13037,"grid":[[1,1,1,1,1]],"target":[0,0],"response":[0,3],"correct":false,"juego":3,"trial_type":"serial-reaction-time-mouse","trial_index":53,"time_elapsed":1830651,"internal_node_id":"0.0-11.0-3.0"},{"rt":13615,"grid":[[1,1,1,1,1]],"target":[0,0],"response":[0,2],"correct":false,"juego":12,"trial_type":"serial-reaction-time-mouse","trial_index":54,"time_elapsed":1844270,"internal_node_id":"0.0-11.0-4.0"},{"rt":15884.000000000233,"grid":[[1,1,1,1,1]],"target":[0,0],"response":[0,4],"correct":false,"juego":11,"trial_type":"serial-reaction-time-mouse","trial_index":55,"time_elapsed":1860156,"internal_node_id":"0.0-11.0-5.0"},{"rt":9570,"grid":[[1,1,1,1,1]],"target":[0,0],"response":[0,3],"correct":false,"juego":7,"trial_type":"serial-reaction-time-mouse","trial_index":56,"time_elapsed":1869728,"internal_node_id":"0.0-11.0-6.0"},{"rt":9926,"grid":[[1,1,1,1,1]],"target":[0,0],"response":[0,1],"correct":false,"juego":9,"trial_type":"serial-reaction-time-mouse","trial_index":57,"time_elapsed":1879656,"internal_node_id":"0.0-11.0-7.0"},{"rt":8611,"grid":[[1,1,1],[1,1,1],[1,1,1],[1,1,1],[1,1,1],[1,1,1],[1,1,1],[1,1,1],[1,1,1],[1,1,1],[1,1,1]],"target":[0,0],"response":[3,1],"correct":false,"juego":5,"trial_type":"serial-reaction-time-mouse","trial_index":58,"time_elapsed":1888271,"internal_node_id":"0.0-11.0-8.0"},{"rt":15666.000000000233,"grid":[[1,1,1],[1,1,1],[1,1,1],[1,1,1],[1,1,1],[1,1,1],[1,1,1],[1,1,1],[1,1,1],[1,1,1],[1,1,1]],"target":[0,0],"response":[1,0],"correct":false,"juego":10,"trial_type":"serial-reaction-time-mouse","trial_index":59,"time_elapsed":1903942,"internal_node_id":"0.0-11.0-9.0"},{"rt":18048,"grid":[[1,1,1,1],[1,1,1,1],[1,1,1,1],[1,1,1,1],[1,1,1,1],[1,1,1,1],[1,1,1,1],[1,1,1,1],[1,1,1,1],[1,1,1,1],[1,1,1,1]],"target":[0,0],"response":[3,2],"correct":false,"juego":14,"trial_type":"serial-reaction-time-mouse","trial_index":60,"time_elapsed":1921995,"internal_node_id":"0.0-11.0-10.0"},{"rt":11597,"grid":[[1,1,1,1,1]],"target":[0,0],"response":[0,3],"correct":false,"juego":2,"trial_type":"serial-reaction-time-mouse","trial_index":61,"time_elapsed":1933597,"internal_node_id":"0.0-11.0-11.0"},{"rt":7153,"grid":[[1,1,1],[1,1,1],[1,1,1],[1,1,1],[1,1,1],[1,1,1],[1,1,1],[1,1,1],[1,1,1],[1,1,1],[1,1,1]],"target":[0,0],"response":[3,1],"correct":false,"juego":6,"trial_type":"serial-reaction-time-mouse","trial_index":62,"time_elapsed":1940756,"internal_node_id":"0.0-11.0-12.0"},{"rt":12881.000000000233,"grid":[[1,1,1],[1,1,1],[1,1,1],[1,1,1],[1,1,1],[1,1,1],[1,1,1],[1,1,1],[1,1,1],[1,1,1],[1,1,1]],"target":[0,0],"response":[1,1],"correct":false,"juego":13,"trial_type":"serial-reaction-time-mouse","trial_index":63,"time_elapsed":1953643,"internal_node_id":"0.0-11.0-13.0"},{"rt":6613.000000000233,"grid":[[1,1,1,1,1]],"target":[0,0],"response":[0,2],"correct":false,"juego":1,"trial_type":"serial-reaction-time-mouse","trial_index":64,"time_elapsed":1960258,"internal_node_id":"0.0-11.0-14.0"}]