[{"rt":161945.5,"stimulus":"<h1 style=\"color:red; margin-top: 3%;\">¡Bienvenido(a)!</h1><p style=\"text-align:left; justify-content:space-between; margin-right: 5%; margin-left: 5%; margin-top: 5%\"> Antes de empezar el estudio, necesitamos que nos confirmes que estás de acuerdo con participar. Recuerda que tu participación es 100% voluntaria y que lo único que te pedimos es responder lo mejor que puedas. Recuerda también que el estudio incluye:</p><ol style=\"text-align:left; justify-content:space-between; margin-right: 5%; margin-left: 5%;\"><li> un ejercicio de resolución de preguntas de selección múltiple (30’),</li><li>un cuestionario breve (5’),</li><li>un juego muy breve (3’),</li></ol><p style=\"text-align:left; justify-content:space-between; margin-right: 5%; margin-left: 5%;\">Si quieres participar, haz clic en “Acepto” luego de leer lo siguiente:<br></p><p style=\"text-align:left; justify-content:space-between; margin-right: 5%; margin-left: 5%;\">Acepto participar en el estudio “Estrategias de lectura y resolución de preguntas de selección múltiple”, en los términos aquí señalados:<br></p><p style=\"text-align:left; justify-content:space-between; margin-right: 5%; margin-left: 5%;\"><a href=\"http://ciae.uchile.cl/download.php?file=noticias/Asentimiento.pdf\" target=\"_blank\">Link a la hoja de información del Consentimiento.</a></p><p style=\"text-align:left; justify-content:space-between; margin-right: 5%; margin-left: 5%;\">Declaro que he leído (o se me ha leído) y (he) comprendido, las condiciones de mi participación en este estudio. He tenido la oportunidad de hacer preguntas y éstas han sido respondidas. No tengo dudas al respecto.</p>","response":0,"condicion_MCQ":20,"condicion_JUEGO":100,"condicion_INTER":4,"numero_participante":100,"numero_version":1,"dimx":1366,"dimy":768,"color_profundidad":24,"pixel_profundidad":24,"Browser":"Google Chrome","dia":25,"mes":5,"hora":17,"minuto":29,"segundo":44,"trial_type":"html-button-response","trial_index":0,"time_elapsed":161953,"internal_node_id":"0.0-0.0"},{"success":true,"trial_type":"fullscreen","trial_index":1,"time_elapsed":169527,"internal_node_id":"0.0-1.0"},{"rt":70566.20000004768,"responses":"{\"Nombres\":\"Joaquín Ignacio \",\"Apellidos\":\"Orellana López \",\"Edad\":\"19\",\"Sexo\":\"Hombre\",\"Curso\":\"Sección 201\",\"Colegio\":\"Andrés Bello \",\"Contacto\":\"j.orellanalpez@uandresbello.edu \"}","trial_type":"survey-text","trial_index":2,"time_elapsed":240119,"internal_node_id":"0.0-2.0"},{"success":true,"timeout":false,"failed_images":[],"failed_audio":[],"failed_video":[],"trial_type":"preload","trial_index":3,"time_elapsed":242012,"internal_node_id":"0.0-3.0"},{"rt":15847.5,"stimulus":"<h1 style:\"margin-top: 5%;\">Ejercicios de Comprensión de Lectura de la Universidad de Chile</h1><p style=\"font-size: 120%;\">En esta actividad, debes responder 20 preguntas de selección múltiple. Cada pregunta presenta 5 respuestas alternativas, pero sólo una de ellas es correcta. Por lo tanto, debes escoger una sola alternativa para cada pregunta. Además, debes reportar qué tan seguro(a) estás de la respuesta que das, con un:</p><ol style=\"font-size: 120%;text-align:left;margin-left: 40%;\"><li>No estoy seguro(a) para nada</li><li>No estoy muy seguro(a)</li><li>Estoy bastante seguro(a)</li><li>Estoy totalmente seguro(a)</li></ol><p style=\"font-size: 120%;\">Por favor lee bien los enunciados antes de responder. ¡Éxito!</p>","response":0,"trial_type":"html-button-response","trial_index":4,"time_elapsed":257861,"internal_node_id":"0.0-4.0"},{"rt":72917.29999995232,"responses":"{\"pregunta13\":\"a) Los seguros médicos deberían considerar el ingreso de Bomberos, pues son los que más los necesitan.\"}","question_order":"[0]","trial_type":"survey-multi-choice","trial_index":5,"time_elapsed":330782,"internal_node_id":"0.0-5.0-0.0"},{"rt":4804,"response":{"pregunta13 likert":2},"question_order":[0],"trial_type":"survey-likert","trial_index":6,"time_elapsed":335590,"internal_node_id":"0.0-5.0-1.0"},{"rt":38580.5,"responses":"{\"pregunta20\":\"e) para el mexicano, la muerte es cotidiana.\"}","question_order":"[0]","trial_type":"survey-multi-choice","trial_index":7,"time_elapsed":374173,"internal_node_id":"0.0-5.0-2.0"},{"rt":2045.3000001907349,"response":{"pregunta20 likert":2},"question_order":[0],"trial_type":"survey-likert","trial_index":8,"time_elapsed":376221,"internal_node_id":"0.0-5.0-3.0"},{"rt":18333.299999952316,"responses":"{\"pregunta15\":\"b) La publicidad es dañina para sus receptores.\"}","question_order":"[0]","trial_type":"survey-multi-choice","trial_index":9,"time_elapsed":394556,"internal_node_id":"0.0-5.0-4.0"},{"rt":2165.899999856949,"response":{"pregunta15 likert":1},"question_order":[0],"trial_type":"survey-likert","trial_index":10,"time_elapsed":396724,"internal_node_id":"0.0-5.0-5.0"},{"rt":56004.200000047684,"responses":"{\"pregunta17\":\"d) Nuestra economía vivirá un proceso de ajuste a la nueva realidad.\"}","question_order":"[0]","trial_type":"survey-multi-choice","trial_index":11,"time_elapsed":452732,"internal_node_id":"0.0-5.0-6.0"},{"rt":1805,"response":{"pregunta17 likert":2},"question_order":[0],"trial_type":"survey-likert","trial_index":12,"time_elapsed":454540,"internal_node_id":"0.0-5.0-7.0"},{"rt":44181,"responses":"{\"pregunta7\":\"e) hedonistas y soñadores.\"}","question_order":"[0]","trial_type":"survey-multi-choice","trial_index":13,"time_elapsed":498724,"internal_node_id":"0.0-5.0-8.0"},{"rt":2069.2000000476837,"response":{"pregunta7 likert":1},"question_order":[0],"trial_type":"survey-likert","trial_index":14,"time_elapsed":500796,"internal_node_id":"0.0-5.0-9.0"},{"rt":108148.40000009537,"responses":"{\"pregunta16\":\"d) sufren dolores de espalda.\"}","question_order":"[0]","trial_type":"survey-multi-choice","trial_index":15,"time_elapsed":608947,"internal_node_id":"0.0-5.0-10.0"},{"rt":2021,"response":{"pregunta16 likert":1},"question_order":[0],"trial_type":"survey-likert","trial_index":16,"time_elapsed":610971,"internal_node_id":"0.0-5.0-11.0"},{"rt":26213,"responses":"{\"pregunta9\":\"b) Homenajear a quienes murieron.\"}","question_order":"[0]","trial_type":"survey-multi-choice","trial_index":17,"time_elapsed":637186,"internal_node_id":"0.0-5.0-12.0"},{"rt":3437.7999999523163,"response":{"pregunta9 likert":2},"question_order":[0],"trial_type":"survey-likert","trial_index":18,"time_elapsed":640626,"internal_node_id":"0.0-5.0-13.0"},{"rt":85140.20000004768,"responses":"{\"pregunta14\":\"a) A la inexistencia de un recinto adecuado para el recital.\"}","question_order":"[0]","trial_type":"survey-multi-choice","trial_index":19,"time_elapsed":725769,"internal_node_id":"0.0-5.0-14.0"},{"rt":4028.9000000953674,"response":{"pregunta14 likert":2},"question_order":[0],"trial_type":"survey-likert","trial_index":20,"time_elapsed":729801,"internal_node_id":"0.0-5.0-15.0"},{"rt":224027.5,"responses":"{\"pregunta10\":\"c) Al premio merecido después de tantos esfuerzos.\"}","question_order":"[0]","trial_type":"survey-multi-choice","trial_index":21,"time_elapsed":953831,"internal_node_id":"0.0-5.0-16.0"},{"rt":4028.600000143051,"response":{"pregunta10 likert":0},"question_order":[0],"trial_type":"survey-likert","trial_index":22,"time_elapsed":957862,"internal_node_id":"0.0-5.0-17.0"},{"rt":64621.699999809265,"responses":"{\"pregunta19\":\"e) el jardinero estará muerto al día siguiente.\"}","question_order":"[0]","trial_type":"survey-multi-choice","trial_index":23,"time_elapsed":1022486,"internal_node_id":"0.0-5.0-18.0"},{"rt":2821.7000000476837,"response":{"pregunta19 likert":1},"question_order":[0],"trial_type":"survey-likert","trial_index":24,"time_elapsed":1025310,"internal_node_id":"0.0-5.0-19.0"},{"rt":8229,"responses":"{\"pregunta6\":\"c) un conjunto de imágenes de recuerdos gratos.\"}","question_order":"[0]","trial_type":"survey-multi-choice","trial_index":25,"time_elapsed":1033541,"internal_node_id":"0.0-5.0-20.0"},{"rt":1838.0999999046326,"response":{"pregunta6 likert":1},"question_order":[0],"trial_type":"survey-likert","trial_index":26,"time_elapsed":1035382,"internal_node_id":"0.0-5.0-21.0"},{"rt":25876.60000014305,"responses":"{\"pregunta1\":\"c) Enjuician la acción del narrador dentro del relato.\"}","question_order":"[0]","trial_type":"survey-multi-choice","trial_index":27,"time_elapsed":1061261,"internal_node_id":"0.0-5.0-22.0"},{"rt":1710.1000001430511,"response":{"pregunta1 likert":2},"question_order":[0],"trial_type":"survey-likert","trial_index":28,"time_elapsed":1062974,"internal_node_id":"0.0-5.0-23.0"},{"rt":43028.5,"responses":"{\"pregunta2\":\"b) A la relación entre sociedad y constitución social.\"}","question_order":"[0]","trial_type":"survey-multi-choice","trial_index":29,"time_elapsed":1106005,"internal_node_id":"0.0-5.0-24.0"},{"rt":1453.9000000953674,"response":{"pregunta2 likert":2},"question_order":[0],"trial_type":"survey-likert","trial_index":30,"time_elapsed":1107462,"internal_node_id":"0.0-5.0-25.0"},{"rt":16453.400000095367,"responses":"{\"pregunta4\":\"e) Orientar la opción estética de un grupo de personas en lo que se refiere a la decoración de interiores.\"}","question_order":"[0]","trial_type":"survey-multi-choice","trial_index":31,"time_elapsed":1123917,"internal_node_id":"0.0-5.0-26.0"},{"rt":1741.6999998092651,"response":{"pregunta4 likert":1},"question_order":[0],"trial_type":"survey-likert","trial_index":32,"time_elapsed":1125662,"internal_node_id":"0.0-5.0-27.0"},{"rt":5965.299999952316,"responses":"{\"pregunta11\":\"a) la prosperidad del imperio se debió al Primer Ministro.\"}","question_order":"[0]","trial_type":"survey-multi-choice","trial_index":33,"time_elapsed":1131630,"internal_node_id":"0.0-5.0-28.0"},{"rt":2749.2000000476837,"response":{"pregunta11 likert":1},"question_order":[0],"trial_type":"survey-likert","trial_index":34,"time_elapsed":1134382,"internal_node_id":"0.0-5.0-29.0"},{"rt":89372.29999995232,"responses":"{\"pregunta5\":\"b) La conducta de un hombre en un asilo es idéntica a la de un hombre en un campo de concentración.\"}","question_order":"[0]","trial_type":"survey-multi-choice","trial_index":35,"time_elapsed":1223756,"internal_node_id":"0.0-5.0-30.0"},{"rt":1597.7000000476837,"response":{"pregunta5 likert":1},"question_order":[0],"trial_type":"survey-likert","trial_index":36,"time_elapsed":1225356,"internal_node_id":"0.0-5.0-31.0"},{"rt":44276.59999990463,"responses":"{\"pregunta3\":\"a) Los momentos triviales de los viajes, en la escritura se vuelven significativos.\"}","question_order":"[0]","trial_type":"survey-multi-choice","trial_index":37,"time_elapsed":1269636,"internal_node_id":"0.0-5.0-32.0"},{"rt":1779.7999999523163,"response":{"pregunta3 likert":2},"question_order":[0],"trial_type":"survey-likert","trial_index":38,"time_elapsed":1271419,"internal_node_id":"0.0-5.0-33.0"},{"rt":171829.09999990463,"responses":"{\"pregunta12\":\"c) el uranio es el elemento natural con el mayor número de protones en el núcleo.\"}","question_order":"[0]","trial_type":"survey-multi-choice","trial_index":39,"time_elapsed":1443250,"internal_node_id":"0.0-5.0-34.0"},{"rt":1636.0999999046326,"response":{"pregunta12 likert":0},"question_order":[0],"trial_type":"survey-likert","trial_index":40,"time_elapsed":1444890,"internal_node_id":"0.0-5.0-35.0"},{"rt":92452.10000014305,"responses":"{\"pregunta18\":\"a) El derecho a informar y el derecho a la privacidad son inconciliables.\"}","question_order":"[0]","trial_type":"survey-multi-choice","trial_index":41,"time_elapsed":1537345,"internal_node_id":"0.0-5.0-36.0"},{"rt":1308.5999999046326,"response":{"pregunta18 likert":2},"question_order":[0],"trial_type":"survey-likert","trial_index":42,"time_elapsed":1538657,"internal_node_id":"0.0-5.0-37.0"},{"rt":4604.5,"responses":"{\"pregunta8\":\"b) Provocar el deseo de la adquisición vertiginosa.\"}","question_order":"[0]","trial_type":"survey-multi-choice","trial_index":43,"time_elapsed":1543265,"internal_node_id":"0.0-5.0-38.0"},{"rt":1317,"response":{"pregunta8 likert":1},"question_order":[0],"trial_type":"survey-likert","trial_index":44,"time_elapsed":1544585,"internal_node_id":"0.0-5.0-39.0"},{"rt":1265.2000000476837,"stimulus":"<p style=\"font-size: 120%\">Gracias por completar esta etapa del estudio. Ahora te invitamos a responder el cuestionario.<br><br></p>","response":0,"trial_type":"html-button-response","trial_index":45,"time_elapsed":1545856,"internal_node_id":"0.0-6.0"},{"rt":22141.699999809265,"stimulus":"<h1 style=\"margin-top: 5%\">Cuestionario para la Evaluación de Metas Académicas</h1><p style=\"font-size: 120%; margin-left: 3%; margin-top: 5%\">Este es un cuestionario que permite conocer cuáles son los principales motivos por los que los estudiantes se esfuerzan en su trabajo académico. A continuación, se te presentarán una serie de afirmaciones acerca de los motivos que puedes tener para estudiar.<br>Te pedimos que contestes a dichas afirmaciones reflexionando sobre el contenido de cada una de ellas, que, aunque te parezcan semejantes, en realidad, no lo son.<br>NO HAY RESPUESTAS CORRECTAS o INCORRECTAS, sólo queremos que respondas con la mayor precisión y sinceridad posible a las preguntas que se plantean.","response":0,"trial_type":"html-button-response","trial_index":46,"time_elapsed":1568000,"internal_node_id":"0.0-7.0"},{"rt":103276.70000004768,"response":{"Metas cuestionario pregunta1":3,"Metas cuestionario pregunta2":3,"Metas cuestionario pregunta3":2,"Metas cuestionario pregunta4":1,"Metas cuestionario pregunta5":3,"Metas cuestionario pregunta6":2,"Metas cuestionario pregunta7":2,"Metas cuestionario pregunta8":3,"Metas cuestionario pregunta9":4,"Metas cuestionario pregunta10":3,"Metas cuestionario pregunta11":2,"Metas cuestionario pregunta12":2,"Metas cuestionario pregunta13":2,"Metas cuestionario pregunta14":0,"Metas cuestionario pregunta15":4,"Metas cuestionario pregunta16":4,"Metas cuestionario pregunta17":4,"Metas cuestionario pregunta18":4,"Metas cuestionario pregunta19":4,"Metas cuestionario pregunta20":4},"question_order":[0,1,2,3,4,5,6,7,8,9,10,11,12,13,14,15,16,17,18,19],"trial_type":"survey-likert","trial_index":47,"time_elapsed":1671284,"internal_node_id":"0.0-8.0"},{"rt":3252.600000143051,"stimulus":"<p style=\"font-size: 120%\">Gracias por responder el cuestionario. Ahora te invitamos a seguir con el juego, que es muy breve.<br><br></p>","response":0,"trial_type":"html-button-response","trial_index":48,"time_elapsed":1674542,"internal_node_id":"0.0-9.0"},{"rt":8158.5,"stimulus":"<h1>Juego</h1><p style=\"font-size: 120%;\">A continuación se te presentarán 16 pequeñas historias.<br>Por favor lee el texto presentado en cada una de ellas y luego haz click en el objeto de tu elección.<br>Si estás listo(a),<span style=\"color:red;\"> haz click en \"comenzar\"</span>.</p>","response":0,"trial_type":"html-button-response","trial_index":49,"time_elapsed":1682703,"internal_node_id":"0.0-10.0"},{"rt":24567.10000014305,"grid":[[1,1,1,1,1]],"target":[0,0],"response":[0,0],"correct":true,"juego":12,"trial_type":"serial-reaction-time-mouse","trial_index":50,"time_elapsed":1707274,"internal_node_id":"0.0-11.0-0.0"},{"rt":8995.799999952316,"grid":[[1,1,1,1,1]],"target":[0,0],"response":[0,2],"correct":false,"juego":8,"trial_type":"serial-reaction-time-mouse","trial_index":51,"time_elapsed":1716274,"internal_node_id":"0.0-11.0-1.0"},{"rt":4954.699999809265,"grid":[[1],[1],[1],[1],[1]],"target":[0,0],"response":[2,0],"correct":false,"juego":4,"trial_type":"serial-reaction-time-mouse","trial_index":52,"time_elapsed":1721233,"internal_node_id":"0.0-11.0-2.0"},{"rt":26740,"grid":[[1,1,1,1,1]],"target":[0,0],"response":[0,4],"correct":false,"juego":3,"trial_type":"serial-reaction-time-mouse","trial_index":53,"time_elapsed":1747977,"internal_node_id":"0.0-11.0-3.0"},{"rt":5281.5,"grid":[[1,1,1],[1,1,1],[1,1,1],[1,1,1],[1,1,1],[1,1,1],[1,1,1],[1,1,1],[1,1,1],[1,1,1],[1,1,1]],"target":[0,0],"response":[3,1],"correct":false,"juego":6,"trial_type":"serial-reaction-time-mouse","trial_index":54,"time_elapsed":1753264,"internal_node_id":"0.0-11.0-4.0"},{"rt":10865.200000047684,"grid":[[1,1,1,1],[1,1,1,1],[1,1,1,1],[1,1,1,1],[1,1,1,1],[1,1,1,1],[1,1,1,1],[1,1,1,1],[1,1,1,1],[1,1,1,1],[1,1,1,1]],"target":[0,0],"response":[5,2],"correct":false,"juego":14,"trial_type":"serial-reaction-time-mouse","trial_index":55,"time_elapsed":1764137,"internal_node_id":"0.0-11.0-5.0"},{"rt":5075.200000047684,"grid":[[1,1,1,1,1]],"target":[0,0],"response":[0,0],"correct":true,"juego":1,"trial_type":"serial-reaction-time-mouse","trial_index":56,"time_elapsed":1769216,"internal_node_id":"0.0-11.0-6.0"},{"rt":12277.400000095367,"grid":[[1,1,1,1,1]],"target":[0,0],"response":[0,2],"correct":false,"juego":11,"trial_type":"serial-reaction-time-mouse","trial_index":57,"time_elapsed":1781497,"internal_node_id":"0.0-11.0-7.0"},{"rt":13136.400000095367,"grid":[[1,1,1],[1,1,1],[1,1,1],[1,1,1],[1,1,1],[1,1,1],[1,1,1],[1,1,1],[1,1,1],[1,1,1],[1,1,1]],"target":[0,0],"response":[9,0],"correct":false,"juego":10,"trial_type":"serial-reaction-time-mouse","trial_index":58,"time_elapsed":1794641,"internal_node_id":"0.0-11.0-8.0"},{"rt":9439.899999856949,"grid":[[1,1,1,1],[1,1,1,1],[1,1,1,1],[1,1,1,1],[1,1,1,1],[1,1,1,1],[1,1,1,1],[1,1,1,1],[1,1,1,1],[1,1,1,1],[1,1,1,1]],"target":[0,0],"response":[9,2],"correct":false,"juego":15,"trial_type":"serial-reaction-time-mouse","trial_index":59,"time_elapsed":1804089,"internal_node_id":"0.0-11.0-9.0"},{"rt":6336.200000047684,"grid":[[1,1,1],[1,1,1],[1,1,1],[1,1,1],[1,1,1],[1,1,1],[1,1,1],[1,1,1],[1,1,1],[1,1,1],[1,1,1]],"target":[0,0],"response":[1,1],"correct":false,"juego":13,"trial_type":"serial-reaction-time-mouse","trial_index":60,"time_elapsed":1810432,"internal_node_id":"0.0-11.0-10.0"},{"rt":8756.200000047684,"grid":[[1,1,1,1,1]],"target":[0,0],"response":[0,3],"correct":false,"juego":7,"trial_type":"serial-reaction-time-mouse","trial_index":61,"time_elapsed":1819191,"internal_node_id":"0.0-11.0-11.0"},{"rt":10109.5,"grid":[[1,1,1,1,1]],"target":[0,0],"response":[0,1],"correct":false,"juego":9,"trial_type":"serial-reaction-time-mouse","trial_index":62,"time_elapsed":1829304,"internal_node_id":"0.0-11.0-12.0"},{"rt":9091.700000047684,"grid":[[1,1,1,1,1]],"target":[0,0],"response":[0,1],"correct":false,"juego":2,"trial_type":"serial-reaction-time-mouse","trial_index":63,"time_elapsed":1838399,"internal_node_id":"0.0-11.0-13.0"},{"rt":10058.400000095367,"grid":[[1,1,1],[1,1,1],[1,1,1],[1,1,1],[1,1,1],[1,1,1],[1,1,1],[1,1,1],[1,1,1],[1,1,1],[1,1,1]],"target":[0,0],"response":[3,1],"correct":false,"juego":5,"trial_type":"serial-reaction-time-mouse","trial_index":64,"time_elapsed":1848464,"internal_node_id":"0.0-11.0-14.0"},{"rt":3812.5999999046326,"stimulus":"<h1>Último juego</h1><p style=\"font-size: 130%;\">Tienes <span style=\"color:red\">35</span> segundos para recordar los pares de palabras que aparecerán a continuación. <br></p>","response":0,"trial_type":"html-button-response","trial_index":65,"time_elapsed":1852286,"internal_node_id":"0.0-12.0"},{"animation_sequence":[{"stimulus":"imagen_juego_interferencia.jpg","time":571.2999999523163},{"stimulus":"imagen_juego_interferencia.jpg","time":1002.2999999523163},{"stimulus":"imagen_juego_interferencia.jpg","time":1503.2999999523163},{"stimulus":"imagen_juego_interferencia.jpg","time":2001.5},{"stimulus":"imagen_juego_interferencia.jpg","time":2501.7000000476837},{"stimulus":"imagen_juego_interferencia.jpg","time":3002.2000000476837},{"stimulus":"imagen_juego_interferencia.jpg","time":3502.0999999046326},{"stimulus":"imagen_juego_interferencia.jpg","time":4002.5999999046326},{"stimulus":"imagen_juego_interferencia.jpg","time":4502.799999952316},{"stimulus":"imagen_juego_interferencia.jpg","time":5003.099999904633},{"stimulus":"imagen_juego_interferencia.jpg","time":5502.400000095367},{"stimulus":"imagen_juego_interferencia.jpg","time":6004.099999904633},{"stimulus":"imagen_juego_interferencia.jpg","time":6502.599999904633},{"stimulus":"imagen_juego_interferencia.jpg","time":7002.700000047684},{"stimulus":"imagen_juego_interferencia.jpg","time":7503},{"stimulus":"imagen_juego_interferencia.jpg","time":8002},{"stimulus":"imagen_juego_interferencia.jpg","time":8502.700000047684},{"stimulus":"imagen_juego_interferencia.jpg","time":9002.900000095367},{"stimulus":"imagen_juego_interferencia.jpg","time":9502.599999904633},{"stimulus":"imagen_juego_interferencia.jpg","time":10003.799999952316},{"stimulus":"imagen_juego_interferencia.jpg","time":10502.200000047684},{"stimulus":"imagen_juego_interferencia.jpg","time":11002.400000095367},{"stimulus":"imagen_juego_interferencia.jpg","time":11501.900000095367},{"stimulus":"imagen_juego_interferencia.jpg","time":12002.400000095367},{"stimulus":"imagen_juego_interferencia.jpg","time":12502.599999904633},{"stimulus":"imagen_juego_interferencia.jpg","time":13002.400000095367},{"stimulus":"imagen_juego_interferencia.jpg","time":13502.200000047684},{"stimulus":"imagen_juego_interferencia.jpg","time":14001.700000047684},{"stimulus":"imagen_juego_interferencia.jpg","time":14502.200000047684},{"stimulus":"imagen_juego_interferencia.jpg","time":15001.599999904633},{"stimulus":"imagen_juego_interferencia.jpg","time":15502.5},{"stimulus":"imagen_juego_interferencia.jpg","time":16002.900000095367},{"stimulus":"imagen_juego_interferencia.jpg","time":16503.099999904633},{"stimulus":"imagen_juego_interferencia.jpg","time":17002.599999904633},{"stimulus":"imagen_juego_interferencia.jpg","time":17502.799999952316},{"stimulus":"imagen_juego_interferencia.jpg","time":18003.200000047684},{"stimulus":"imagen_juego_interferencia.jpg","time":18503.200000047684},{"stimulus":"imagen_juego_interferencia.jpg","time":19002.299999952316},{"stimulus":"imagen_juego_interferencia.jpg","time":19502},{"stimulus":"imagen_juego_interferencia.jpg","time":20008.599999904633},{"stimulus":"imagen_juego_interferencia.jpg","time":20503.900000095367},{"stimulus":"imagen_juego_interferencia.jpg","time":21007.200000047684},{"stimulus":"imagen_juego_interferencia.jpg","time":21511.200000047684},{"stimulus":"imagen_juego_interferencia.jpg","time":22001.799999952316},{"stimulus":"imagen_juego_interferencia.jpg","time":22502.400000095367},{"stimulus":"imagen_juego_interferencia.jpg","time":23002},{"stimulus":"imagen_juego_interferencia.jpg","time":23502.099999904633},{"stimulus":"imagen_juego_interferencia.jpg","time":24002.099999904633},{"stimulus":"imagen_juego_interferencia.jpg","time":24502},{"stimulus":"imagen_juego_interferencia.jpg","time":25002.099999904633},{"stimulus":"imagen_juego_interferencia.jpg","time":25501.700000047684},{"stimulus":"imagen_juego_interferencia.jpg","time":26001.799999952316},{"stimulus":"imagen_juego_interferencia.jpg","time":26503.200000047684},{"stimulus":"imagen_juego_interferencia.jpg","time":27002.299999952316},{"stimulus":"imagen_juego_interferencia.jpg","time":27502.5},{"stimulus":"imagen_juego_interferencia.jpg","time":28002.200000047684},{"stimulus":"imagen_juego_interferencia.jpg","time":28501.5},{"stimulus":"imagen_juego_interferencia.jpg","time":29002.200000047684},{"stimulus":"imagen_juego_interferencia.jpg","time":29502.200000047684},{"stimulus":"imagen_juego_interferencia.jpg","time":30002.400000095367},{"stimulus":"imagen_juego_interferencia.jpg","time":30502.799999952316},{"stimulus":"imagen_juego_interferencia.jpg","time":31002.900000095367},{"stimulus":"imagen_juego_interferencia.jpg","time":31503.700000047684},{"stimulus":"imagen_juego_interferencia.jpg","time":32015.700000047684},{"stimulus":"imagen_juego_interferencia.jpg","time":32511.299999952316},{"stimulus":"imagen_juego_interferencia.jpg","time":33003.90000009537},{"stimulus":"imagen_juego_interferencia.jpg","time":33514.5},{"stimulus":"imagen_juego_interferencia.jpg","time":34004.200000047684},{"stimulus":"imagen_juego_interferencia.jpg","time":34501.90000009537},{"stimulus":"imagen_juego_interferencia.jpg","time":35002.59999990463}],"response":[],"trial_type":"animation","trial_index":66,"time_elapsed":1887790,"internal_node_id":"0.0-13.0"},{"rt":10530.800000190735,"responses":"{\"pregunta interferencia3\":\"aluminio\"}","question_order":"[0]","trial_type":"survey-multi-choice-cuest","trial_index":67,"time_elapsed":1898325,"internal_node_id":"0.0-14.0-0.0"},{"rt":9781.700000047684,"responses":"{\"pregunta interferencia2\":\"cucaracha\"}","question_order":"[0]","trial_type":"survey-multi-choice-cuest","trial_index":68,"time_elapsed":1908109,"internal_node_id":"0.0-14.0-1.0"},{"rt":6717.799999952316,"responses":"{\"pregunta interferencia4\":\"dentista\"}","question_order":"[0]","trial_type":"survey-multi-choice-cuest","trial_index":69,"time_elapsed":1914829,"internal_node_id":"0.0-14.0-2.0"},{"rt":3125.2999999523163,"responses":"{\"pregunta interferencia1\":\"naranja\"}","question_order":"[0]","trial_type":"survey-multi-choice-cuest","trial_index":70,"time_elapsed":1917957,"internal_node_id":"0.0-14.0-3.0"},{"success":true,"trial_type":"fullscreen","trial_index":71,"time_elapsed":1918975,"internal_node_id":"0.0-15.0"},{"rt":9540.899999856949,"responses":"{\"Telefono\":\"\"}","trial_type":"survey-text","trial_index":72,"time_elapsed":1928533,"internal_node_id":"0.0-16.0"}]