[{"rt":83043.00000000001,"stimulus":"<h1 style=\"color:red; margin-top: 3%;\">¡Bienvenido(a)!</h1><p style=\"text-align:left; justify-content:space-between; margin-right: 5%; margin-left: 5%; margin-top: 5%\"> Antes de empezar el estudio, necesitamos que nos confirmes que estás de acuerdo con participar. Recuerda que tu participación es 100% voluntaria y que lo único que te pedimos es responder lo mejor que puedas. Recuerda también que el estudio incluye:</p><ol style=\"text-align:left; justify-content:space-between; margin-right: 5%; margin-left: 5%;\"><li> un ejercicio de resolución de preguntas de selección múltiple (30’),</li><li>un cuestionario breve (5’),</li><li>un juego muy breve (3’),</li></ol><p style=\"text-align:left; justify-content:space-between; margin-right: 5%; margin-left: 5%;\">Si quieres participar, haz clic en “Acepto” luego de leer lo siguiente:<br></p><p style=\"text-align:left; justify-content:space-between; margin-right: 5%; margin-left: 5%;\">Acepto participar en el estudio “Estrategias de lectura y resolución de preguntas de selección múltiple”, en los términos aquí señalados:<br></p><p style=\"text-align:left; justify-content:space-between; margin-right: 5%; margin-left: 5%;\"><a href=\"http://ciae.uchile.cl/download.php?file=noticias/Asentimiento.pdf\" target=\"_blank\">Link a la hoja de información del Consentimiento.</a></p><p style=\"text-align:left; justify-content:space-between; margin-right: 5%; margin-left: 5%;\">Declaro que he leído (o se me ha leído) y (he) comprendido, las condiciones de mi participación en este estudio. He tenido la oportunidad de hacer preguntas y éstas han sido respondidas. No tengo dudas al respecto.</p>","response":0,"condicion_MCQ":10,"condicion_JUEGO":90,"condicion_INTER":18,"numero_participante":90,"numero_version":1,"dimx":1440,"dimy":900,"color_profundidad":24,"pixel_profundidad":24,"Browser":"Apple Safari","dia":23,"mes":5,"hora":22,"minuto":0,"segundo":32,"trial_type":"html-button-response","trial_index":0,"time_elapsed":83047,"internal_node_id":"0.0-0.0"},{"success":true,"trial_type":"fullscreen","trial_index":1,"time_elapsed":93014,"internal_node_id":"0.0-1.0"},{"rt":150590,"responses":"{\"Nombres\":\"José Adolfo\",\"Apellidos\":\"Vega Silva\",\"Edad\":\"66\",\"Sexo\":\"hombre\",\"Curso\":\"Psicología Vespertina\",\"Colegio\":\"U. Andrés Bello\",\"Contacto\":\"javs17@hotmail.com\"}","trial_type":"survey-text","trial_index":2,"time_elapsed":243853,"internal_node_id":"0.0-2.0"},{"success":true,"timeout":false,"failed_images":[],"failed_audio":[],"failed_video":[],"trial_type":"preload","trial_index":3,"time_elapsed":251978,"internal_node_id":"0.0-3.0"},{"rt":25396,"stimulus":"<h1 style:\"margin-top: 5%;\">Ejercicios de Comprensión de Lectura de la Universidad de Chile</h1><p style=\"font-size: 120%;\">En esta actividad, debes responder 20 preguntas de selección múltiple. Cada pregunta presenta 5 respuestas alternativas, pero sólo una de ellas es correcta. Por lo tanto, debes escoger una sola alternativa para cada pregunta. Además, debes reportar qué tan seguro(a) estás de la respuesta que das, con un:</p><ol style=\"font-size: 120%;text-align:left;margin-left: 40%;\"><li>No estoy seguro(a) para nada</li><li>No estoy muy seguro(a)</li><li>Estoy bastante seguro(a)</li><li>Estoy totalmente seguro(a)</li></ol><p style=\"font-size: 120%;\">Por favor lee bien los enunciados antes de responder. ¡Éxito!</p>","response":0,"trial_type":"html-button-response","trial_index":4,"time_elapsed":277375,"internal_node_id":"0.0-4.0"},{"rt":84792,"responses":"{\"pregunta16\":\"a) llevan un control grupal de su embarazo.\"}","question_order":"[0]","trial_type":"survey-multi-choice","trial_index":5,"time_elapsed":362169,"internal_node_id":"0.0-5.0-0.0"},{"rt":4638,"response":{"pregunta16 likert":3},"question_order":[0],"trial_type":"survey-likert","trial_index":6,"time_elapsed":366811,"internal_node_id":"0.0-5.0-1.0"},{"rt":76648,"responses":"{\"pregunta11\":\"e) el mejor emperador es el que está muerto.\"}","question_order":"[0]","trial_type":"survey-multi-choice","trial_index":7,"time_elapsed":443453,"internal_node_id":"0.0-5.0-2.0"},{"rt":3198,"response":{"pregunta11 likert":3},"question_order":[0],"trial_type":"survey-likert","trial_index":8,"time_elapsed":446654,"internal_node_id":"0.0-5.0-3.0"},{"rt":123261,"responses":"{\"pregunta3\":\"c) Los momentos triviales de los viajes, en la escritura se vuelven significativos.\"}","question_order":"[0]","trial_type":"survey-multi-choice","trial_index":9,"time_elapsed":569917,"internal_node_id":"0.0-5.0-4.0"},{"rt":3606,"response":{"pregunta3 likert":2},"question_order":[0],"trial_type":"survey-likert","trial_index":10,"time_elapsed":573525,"internal_node_id":"0.0-5.0-5.0"},{"rt":60314,"responses":"{\"pregunta20\":\"b) para el mexicano, la muerte es como una mujer.\"}","question_order":"[0]","trial_type":"survey-multi-choice","trial_index":11,"time_elapsed":633840,"internal_node_id":"0.0-5.0-6.0"},{"rt":2749,"response":{"pregunta20 likert":2},"question_order":[0],"trial_type":"survey-likert","trial_index":12,"time_elapsed":636591,"internal_node_id":"0.0-5.0-7.0"},{"rt":115738,"responses":"{\"pregunta18\":\"b) Se necesita un marco legal para delimitar lo público y lo privado en materia informativa.\"}","question_order":"[0]","trial_type":"survey-multi-choice","trial_index":13,"time_elapsed":752332,"internal_node_id":"0.0-5.0-8.0"},{"rt":2612.9999999998836,"response":{"pregunta18 likert":2},"question_order":[0],"trial_type":"survey-likert","trial_index":14,"time_elapsed":754947,"internal_node_id":"0.0-5.0-9.0"},{"rt":101002,"responses":"{\"pregunta2\":\"c) A la relación entre pensamiento y estructura social.\"}","question_order":"[0]","trial_type":"survey-multi-choice","trial_index":15,"time_elapsed":855951,"internal_node_id":"0.0-5.0-10.0"},{"rt":2636.9999999998836,"response":{"pregunta2 likert":2},"question_order":[0],"trial_type":"survey-likert","trial_index":16,"time_elapsed":858590,"internal_node_id":"0.0-5.0-11.0"},{"rt":62250,"responses":"{\"pregunta8\":\"e) Provocar el deseo de la adquisición vertiginosa.\"}","question_order":"[0]","trial_type":"survey-multi-choice","trial_index":17,"time_elapsed":920843,"internal_node_id":"0.0-5.0-12.0"},{"rt":3758.0000000001164,"response":{"pregunta8 likert":3},"question_order":[0],"trial_type":"survey-likert","trial_index":18,"time_elapsed":924603,"internal_node_id":"0.0-5.0-13.0"},{"rt":108194.00000000012,"responses":"{\"pregunta13\":\"a) Bomberos debería tener acceso a un seguro médico, al que pueda recurrir en caso de accidente.\"}","question_order":"[0]","trial_type":"survey-multi-choice","trial_index":19,"time_elapsed":1032799,"internal_node_id":"0.0-5.0-14.0"},{"rt":4033.9999999998836,"response":{"pregunta13 likert":2},"question_order":[0],"trial_type":"survey-likert","trial_index":20,"time_elapsed":1036835,"internal_node_id":"0.0-5.0-15.0"},{"rt":56225.99999999988,"responses":"{\"pregunta10\":\"c) A la inutilidad de tanto esfuerzo si el objetivo es el reposo.\"}","question_order":"[0]","trial_type":"survey-multi-choice","trial_index":21,"time_elapsed":1093062,"internal_node_id":"0.0-5.0-16.0"},{"rt":2853,"response":{"pregunta10 likert":3},"question_order":[0],"trial_type":"survey-likert","trial_index":22,"time_elapsed":1095917,"internal_node_id":"0.0-5.0-17.0"},{"rt":158591,"responses":"{\"pregunta7\":\"d) ritualistas y obsesivos.\"}","question_order":"[0]","trial_type":"survey-multi-choice","trial_index":23,"time_elapsed":1254510,"internal_node_id":"0.0-5.0-18.0"},{"rt":2445,"response":{"pregunta7 likert":2},"question_order":[0],"trial_type":"survey-likert","trial_index":24,"time_elapsed":1256958,"internal_node_id":"0.0-5.0-19.0"},{"rt":113029,"responses":"{\"pregunta15\":\"a) El receptor es habitualmente pasivo frente a la publicidad.\"}","question_order":"[0]","trial_type":"survey-multi-choice","trial_index":25,"time_elapsed":1370047,"internal_node_id":"0.0-5.0-20.0"},{"rt":3204,"response":{"pregunta15 likert":2},"question_order":[0],"trial_type":"survey-likert","trial_index":26,"time_elapsed":1373253,"internal_node_id":"0.0-5.0-21.0"},{"rt":100533,"responses":"{\"pregunta12\":\"a) el uranio es el elemento natural con el mayor número de protones en el núcleo.\"}","question_order":"[0]","trial_type":"survey-multi-choice","trial_index":27,"time_elapsed":1473791,"internal_node_id":"0.0-5.0-22.0"},{"rt":2926,"response":{"pregunta12 likert":3},"question_order":[0],"trial_type":"survey-likert","trial_index":28,"time_elapsed":1476719,"internal_node_id":"0.0-5.0-23.0"},{"rt":142316,"responses":"{\"pregunta5\":\"b) El concepto de normalidad es diferente para un psiquiatra que para nosotros.\"}","question_order":"[0]","trial_type":"survey-multi-choice","trial_index":29,"time_elapsed":1619040,"internal_node_id":"0.0-5.0-24.0"},{"rt":3254,"response":{"pregunta5 likert":1},"question_order":[0],"trial_type":"survey-likert","trial_index":30,"time_elapsed":1622296,"internal_node_id":"0.0-5.0-25.0"},{"rt":106650,"responses":"{\"pregunta6\":\"c) un recuerdo nostálgico.\"}","question_order":"[0]","trial_type":"survey-multi-choice","trial_index":31,"time_elapsed":1728951,"internal_node_id":"0.0-5.0-26.0"},{"rt":3724,"response":{"pregunta6 likert":1},"question_order":[0],"trial_type":"survey-likert","trial_index":32,"time_elapsed":1732678,"internal_node_id":"0.0-5.0-27.0"},{"rt":62701,"responses":"{\"pregunta14\":\"a) A la influencia de grupos que rechazaban su música.\"}","question_order":"[0]","trial_type":"survey-multi-choice","trial_index":33,"time_elapsed":1795382,"internal_node_id":"0.0-5.0-28.0"},{"rt":2641.999999999767,"response":{"pregunta14 likert":3},"question_order":[0],"trial_type":"survey-likert","trial_index":34,"time_elapsed":1798027,"internal_node_id":"0.0-5.0-29.0"},{"rt":51962.99999999977,"responses":"{\"pregunta1\":\"c) Aportan informaciones con las que se reconstruye el personaje dentro de un relato.\"}","question_order":"[0]","trial_type":"survey-multi-choice","trial_index":35,"time_elapsed":1849993,"internal_node_id":"0.0-5.0-30.0"},{"rt":2710,"response":{"pregunta1 likert":2},"question_order":[0],"trial_type":"survey-likert","trial_index":36,"time_elapsed":1852705,"internal_node_id":"0.0-5.0-31.0"},{"rt":59463,"responses":"{\"pregunta17\":\"b) Nuestra economía vivirá un proceso de ajuste a la nueva realidad.\"}","question_order":"[0]","trial_type":"survey-multi-choice","trial_index":37,"time_elapsed":1912171,"internal_node_id":"0.0-5.0-32.0"},{"rt":2541.000000000233,"response":{"pregunta17 likert":2},"question_order":[0],"trial_type":"survey-likert","trial_index":38,"time_elapsed":1914715,"internal_node_id":"0.0-5.0-33.0"},{"rt":41372.00000000023,"responses":"{\"pregunta4\":\"d) Promover la asistencia a un evento específico de decoración a través de una atractiva descripción.\"}","question_order":"[0]","trial_type":"survey-multi-choice","trial_index":39,"time_elapsed":1956090,"internal_node_id":"0.0-5.0-34.0"},{"rt":2492,"response":{"pregunta4 likert":3},"question_order":[0],"trial_type":"survey-likert","trial_index":40,"time_elapsed":1958584,"internal_node_id":"0.0-5.0-35.0"},{"rt":81918,"responses":"{\"pregunta9\":\"e) Homenajear a quienes murieron.\"}","question_order":"[0]","trial_type":"survey-multi-choice","trial_index":41,"time_elapsed":2040507,"internal_node_id":"0.0-5.0-36.0"},{"rt":2708.000000000233,"response":{"pregunta9 likert":3},"question_order":[0],"trial_type":"survey-likert","trial_index":42,"time_elapsed":2043217,"internal_node_id":"0.0-5.0-37.0"},{"rt":79999,"responses":"{\"pregunta19\":\"b) el jardinero estará muerto al día siguiente.\"}","question_order":"[0]","trial_type":"survey-multi-choice","trial_index":43,"time_elapsed":2123220,"internal_node_id":"0.0-5.0-38.0"},{"rt":2722,"response":{"pregunta19 likert":3},"question_order":[0],"trial_type":"survey-likert","trial_index":44,"time_elapsed":2125944,"internal_node_id":"0.0-5.0-39.0"},{"rt":2578,"stimulus":"<p style=\"font-size: 120%\">Gracias por completar esta etapa del estudio. Ahora te invitamos a responder el cuestionario.<br><br></p>","response":0,"trial_type":"html-button-response","trial_index":45,"time_elapsed":2128526,"internal_node_id":"0.0-6.0"},{"rt":20340,"stimulus":"<h1 style=\"margin-top: 5%\">Cuestionario para la Evaluación de Metas Académicas</h1><p style=\"font-size: 120%; margin-left: 3%; margin-top: 5%\">Este es un cuestionario que permite conocer cuáles son los principales motivos por los que los estudiantes se esfuerzan en su trabajo académico. A continuación, se te presentarán una serie de afirmaciones acerca de los motivos que puedes tener para estudiar.<br>Te pedimos que contestes a dichas afirmaciones reflexionando sobre el contenido de cada una de ellas, que, aunque te parezcan semejantes, en realidad, no lo son.<br>NO HAY RESPUESTAS CORRECTAS o INCORRECTAS, sólo queremos que respondas con la mayor precisión y sinceridad posible a las preguntas que se plantean.","response":0,"trial_type":"html-button-response","trial_index":46,"time_elapsed":2148868,"internal_node_id":"0.0-7.0"},{"rt":133282,"response":{"Metas cuestionario pregunta1":3,"Metas cuestionario pregunta2":3,"Metas cuestionario pregunta3":4,"Metas cuestionario pregunta4":3,"Metas cuestionario pregunta5":4,"Metas cuestionario pregunta6":4,"Metas cuestionario pregunta7":4,"Metas cuestionario pregunta8":3,"Metas cuestionario pregunta9":0,"Metas cuestionario pregunta10":0,"Metas cuestionario pregunta11":0,"Metas cuestionario pregunta12":0,"Metas cuestionario pregunta13":0,"Metas cuestionario pregunta14":0,"Metas cuestionario pregunta15":3,"Metas cuestionario pregunta16":3,"Metas cuestionario pregunta17":4,"Metas cuestionario pregunta18":4,"Metas cuestionario pregunta19":4,"Metas cuestionario pregunta20":3},"question_order":[0,1,2,3,4,5,6,7,8,9,10,11,12,13,14,15,16,17,18,19],"trial_type":"survey-likert","trial_index":47,"time_elapsed":2282139,"internal_node_id":"0.0-8.0"}]