[{"rt":12686,"stimulus":"<h1 style=\"color:red; margin-top: 3%;\">¡Bienvenido(a)!</h1><p style=\"text-align:left; justify-content:space-between; margin-right: 5%; margin-left: 5%; margin-top: 5%\"> Antes de empezar el estudio, necesitamos que nos confirmes que estás de acuerdo con participar. Recuerda que tu participación es 100% voluntaria y que lo único que te pedimos es responder lo mejor que puedas. Recuerda también que el estudio incluye:</p><ol style=\"text-align:left; justify-content:space-between; margin-right: 5%; margin-left: 5%;\"><li> un ejercicio de resolución de preguntas de selección múltiple (30’),</li><li>un cuestionario breve (5’),</li><li>un juego muy breve (3’),</li></ol><p style=\"text-align:left; justify-content:space-between; margin-right: 5%; margin-left: 5%;\">Si quieres participar, haz clic en “Acepto” luego de leer lo siguiente:<br></p><p style=\"text-align:left; justify-content:space-between; margin-right: 5%; margin-left: 5%;\">Acepto participar en el estudio “Estrategias de lectura y resolución de preguntas de selección múltiple”, en los términos aquí señalados:<br></p><p style=\"text-align:left; justify-content:space-between; margin-right: 5%; margin-left: 5%;\"><a href=\"http://ciae.uchile.cl/download.php?file=noticias/Asentimiento.pdf\" target=\"_blank\">Link a la hoja de información del Consentimiento.</a></p><p style=\"text-align:left; justify-content:space-between; margin-right: 5%; margin-left: 5%;\">Declaro que he leído (o se me ha leído) y (he) comprendido, las condiciones de mi participación en este estudio. He tenido la oportunidad de hacer preguntas y éstas han sido respondidas. No tengo dudas al respecto.</p>","response":0,"condicion_MCQ":5,"condicion_JUEGO":65,"condicion_INTER":17,"numero_participante":65,"numero_version":1,"dimx":375,"dimy":667,"color_profundidad":32,"pixel_profundidad":32,"Browser":"Apple Safari","dia":22,"mes":5,"hora":0,"minuto":25,"segundo":49,"trial_type":"html-button-response","trial_index":0,"time_elapsed":12695,"internal_node_id":"0.0-0.0"},{"success":true,"trial_type":"fullscreen","trial_index":1,"time_elapsed":67809,"internal_node_id":"0.0-1.0"},{"rt":72424,"responses":"{\"Nombres\":\"Bastián Maitu\",\"Apellidos\":\"Valenzuela Muñoz \",\"Edad\":\"19\",\"Sexo\":\"Hombre\",\"Curso\":\"200\",\"Colegio\":\"Universidad Andres Bello\",\"Contacto\":\"bastianmvmunoz@gmail.com\"}","trial_type":"survey-text","trial_index":2,"time_elapsed":140304,"internal_node_id":"0.0-2.0"},{"success":true,"timeout":false,"failed_images":[],"failed_audio":[],"failed_video":[],"trial_type":"preload","trial_index":3,"time_elapsed":142162,"internal_node_id":"0.0-3.0"},{"rt":22808.00000000003,"stimulus":"<h1 style:\"margin-top: 5%;\">Ejercicios de Comprensión de Lectura de la Universidad de Chile</h1><p style=\"font-size: 120%;\">En esta actividad, debes responder 20 preguntas de selección múltiple. Cada pregunta presenta 5 respuestas alternativas, pero sólo una de ellas es correcta. Por lo tanto, debes escoger una sola alternativa para cada pregunta. Además, debes reportar qué tan seguro(a) estás de la respuesta que das, con un:</p><ol style=\"font-size: 120%;text-align:left;margin-left: 40%;\"><li>No estoy seguro(a) para nada</li><li>No estoy muy seguro(a)</li><li>Estoy bastante seguro(a)</li><li>Estoy totalmente seguro(a)</li></ol><p style=\"font-size: 120%;\">Por favor lee bien los enunciados antes de responder. ¡Éxito!</p>","response":0,"trial_type":"html-button-response","trial_index":4,"time_elapsed":164976,"internal_node_id":"0.0-4.0"},{"rt":79094,"responses":"{\"pregunta8\":\"c) Provocar el deseo de la adquisición vertiginosa.\"}","question_order":"[0]","trial_type":"survey-multi-choice","trial_index":5,"time_elapsed":244081,"internal_node_id":"0.0-5.0-0.0"},{"rt":4223,"response":{"pregunta8 likert":2},"question_order":[0],"trial_type":"survey-likert","trial_index":6,"time_elapsed":248311,"internal_node_id":"0.0-5.0-1.0"},{"rt":31184,"responses":"{\"pregunta6\":\"c) preparar los recuerdos del mañana.\"}","question_order":"[0]","trial_type":"survey-multi-choice","trial_index":7,"time_elapsed":279499,"internal_node_id":"0.0-5.0-2.0"},{"rt":1987,"response":{"pregunta6 likert":2},"question_order":[0],"trial_type":"survey-likert","trial_index":8,"time_elapsed":281492,"internal_node_id":"0.0-5.0-3.0"},{"rt":130405,"responses":"{\"pregunta17\":\"d) El TLC puede traer más dificultades que progresos.\"}","question_order":"[0]","trial_type":"survey-multi-choice","trial_index":9,"time_elapsed":411909,"internal_node_id":"0.0-5.0-4.0"},{"rt":3765,"response":{"pregunta17 likert":1},"question_order":[0],"trial_type":"survey-likert","trial_index":10,"time_elapsed":415686,"internal_node_id":"0.0-5.0-5.0"},{"rt":235458,"responses":"{\"pregunta2\":\"b) A la relación entre pensamiento y estructura social.\"}","question_order":"[0]","trial_type":"survey-multi-choice","trial_index":11,"time_elapsed":651159,"internal_node_id":"0.0-5.0-6.0"},{"rt":2185,"response":{"pregunta2 likert":2},"question_order":[0],"trial_type":"survey-likert","trial_index":12,"time_elapsed":653358,"internal_node_id":"0.0-5.0-7.0"},{"rt":65098,"responses":"{\"pregunta10\":\"d) Al premio merecido después de tantos esfuerzos.\"}","question_order":"[0]","trial_type":"survey-multi-choice","trial_index":13,"time_elapsed":718469,"internal_node_id":"0.0-5.0-8.0"},{"rt":3320.9999999998836,"response":{"pregunta10 likert":3},"question_order":[0],"trial_type":"survey-likert","trial_index":14,"time_elapsed":721804,"internal_node_id":"0.0-5.0-9.0"},{"rt":124709,"responses":"{\"pregunta12\":\"c) la creación de elementos químicos es altamente contaminante.\"}","question_order":"[0]","trial_type":"survey-multi-choice","trial_index":15,"time_elapsed":846530,"internal_node_id":"0.0-5.0-10.0"},{"rt":2194,"response":{"pregunta12 likert":0},"question_order":[0],"trial_type":"survey-likert","trial_index":16,"time_elapsed":848740,"internal_node_id":"0.0-5.0-11.0"},{"rt":237953,"responses":"{\"pregunta18\":\"b) El interés público debe prevalecer sobre la defensa de la privacidad.\"}","question_order":"[0]","trial_type":"survey-multi-choice","trial_index":17,"time_elapsed":1086702,"internal_node_id":"0.0-5.0-12.0"},{"rt":2678,"response":{"pregunta18 likert":1},"question_order":[0],"trial_type":"survey-likert","trial_index":18,"time_elapsed":1089392,"internal_node_id":"0.0-5.0-13.0"},{"rt":270124,"responses":"{\"pregunta3\":\"d) La escritura plasma los mejores momentos de los viajes.\"}","question_order":"[0]","trial_type":"survey-multi-choice","trial_index":19,"time_elapsed":1359526,"internal_node_id":"0.0-5.0-14.0"},{"rt":6253,"response":{"pregunta3 likert":1},"question_order":[0],"trial_type":"survey-likert","trial_index":20,"time_elapsed":1365794,"internal_node_id":"0.0-5.0-15.0"},{"rt":246082,"responses":"{\"pregunta5\":\"c) El ser humano se comporta de acuerdo con las circunstancias.\"}","question_order":"[0]","trial_type":"survey-multi-choice","trial_index":21,"time_elapsed":1611891,"internal_node_id":"0.0-5.0-16.0"},{"rt":5707,"response":{"pregunta5 likert":2},"question_order":[0],"trial_type":"survey-likert","trial_index":22,"time_elapsed":1617611,"internal_node_id":"0.0-5.0-17.0"},{"rt":450962.00000000023,"responses":"{\"pregunta11\":\"b) el Primer Ministro debía morir por ambicioso.\"}","question_order":"[0]","trial_type":"survey-multi-choice","trial_index":23,"time_elapsed":2068596,"internal_node_id":"0.0-5.0-18.0"},{"rt":2309.000000000233,"response":{"pregunta11 likert":0},"question_order":[0],"trial_type":"survey-likert","trial_index":24,"time_elapsed":2070925,"internal_node_id":"0.0-5.0-19.0"},{"rt":65851,"responses":"{\"pregunta19\":\"a) el jardinero estará muerto al día siguiente.\"}","question_order":"[0]","trial_type":"survey-multi-choice","trial_index":25,"time_elapsed":2136782,"internal_node_id":"0.0-5.0-20.0"},{"rt":3459,"response":{"pregunta19 likert":3},"question_order":[0],"trial_type":"survey-likert","trial_index":26,"time_elapsed":2140248,"internal_node_id":"0.0-5.0-21.0"},{"rt":108693,"responses":"{\"pregunta9\":\"d) Homenajear a quienes murieron.\"}","question_order":"[0]","trial_type":"survey-multi-choice","trial_index":27,"time_elapsed":2248948,"internal_node_id":"0.0-5.0-22.0"},{"rt":2738,"response":{"pregunta9 likert":3},"question_order":[0],"trial_type":"survey-likert","trial_index":28,"time_elapsed":2251690,"internal_node_id":"0.0-5.0-23.0"},{"rt":49433,"responses":"{\"pregunta14\":\"a) A la negligencia de la empresa que los traía a Chile.\"}","question_order":"[0]","trial_type":"survey-multi-choice","trial_index":29,"time_elapsed":2301127,"internal_node_id":"0.0-5.0-24.0"},{"rt":2131,"response":{"pregunta14 likert":3},"question_order":[0],"trial_type":"survey-likert","trial_index":30,"time_elapsed":2303262,"internal_node_id":"0.0-5.0-25.0"},{"rt":92359,"responses":"{\"pregunta1\":\"b) Aportan informaciones con las que se reconstruye el personaje dentro de un relato.\"}","question_order":"[0]","trial_type":"survey-multi-choice","trial_index":31,"time_elapsed":2395625,"internal_node_id":"0.0-5.0-26.0"},{"rt":1552,"response":{"pregunta1 likert":2},"question_order":[0],"trial_type":"survey-likert","trial_index":32,"time_elapsed":2397182,"internal_node_id":"0.0-5.0-27.0"},{"rt":34315,"responses":"{\"pregunta13\":\"a) Por el riesgo que corren diariamente, los bomberos deberían tener mejores condiciones de seguridad.\"}","question_order":"[0]","trial_type":"survey-multi-choice","trial_index":33,"time_elapsed":2431502,"internal_node_id":"0.0-5.0-28.0"},{"rt":1945,"response":{"pregunta13 likert":3},"question_order":[0],"trial_type":"survey-likert","trial_index":34,"time_elapsed":2433455,"internal_node_id":"0.0-5.0-29.0"},{"rt":20478,"responses":"{\"pregunta20\":\"a) para el mexicano, la muerte es cotidiana.\"}","question_order":"[0]","trial_type":"survey-multi-choice","trial_index":35,"time_elapsed":2453937,"internal_node_id":"0.0-5.0-30.0"},{"rt":1814,"response":{"pregunta20 likert":3},"question_order":[0],"trial_type":"survey-likert","trial_index":36,"time_elapsed":2455756,"internal_node_id":"0.0-5.0-31.0"},{"rt":136732,"responses":"{\"pregunta4\":\"b) Promover la asistencia a un evento específico de decoración a través de una atractiva descripción.\"}","question_order":"[0]","trial_type":"survey-multi-choice","trial_index":37,"time_elapsed":2592491,"internal_node_id":"0.0-5.0-32.0"},{"rt":1446,"response":{"pregunta4 likert":1},"question_order":[0],"trial_type":"survey-likert","trial_index":38,"time_elapsed":2593943,"internal_node_id":"0.0-5.0-33.0"},{"rt":20707.000000000466,"responses":"{\"pregunta15\":\"e) El receptor es habitualmente pasivo frente a la publicidad.\"}","question_order":"[0]","trial_type":"survey-multi-choice","trial_index":39,"time_elapsed":2614654,"internal_node_id":"0.0-5.0-34.0"},{"rt":2883,"response":{"pregunta15 likert":3},"question_order":[0],"trial_type":"survey-likert","trial_index":40,"time_elapsed":2617541,"internal_node_id":"0.0-5.0-35.0"},{"rt":9686.999999999534,"responses":"{\"pregunta7\":\"a) frívolos y previsores.\"}","question_order":"[0]","trial_type":"survey-multi-choice","trial_index":41,"time_elapsed":2627234,"internal_node_id":"0.0-5.0-36.0"},{"rt":1908,"response":{"pregunta7 likert":2},"question_order":[0],"trial_type":"survey-likert","trial_index":42,"time_elapsed":2629145,"internal_node_id":"0.0-5.0-37.0"},{"rt":44068,"responses":"{\"pregunta16\":\"d) llevan un control grupal de su embarazo.\"}","question_order":"[0]","trial_type":"survey-multi-choice","trial_index":43,"time_elapsed":2673219,"internal_node_id":"0.0-5.0-38.0"},{"rt":2248,"response":{"pregunta16 likert":2},"question_order":[0],"trial_type":"survey-likert","trial_index":44,"time_elapsed":2675473,"internal_node_id":"0.0-5.0-39.0"},{"rt":2187,"stimulus":"<p style=\"font-size: 120%\">Gracias por completar esta etapa del estudio. Ahora te invitamos a responder el cuestionario.<br><br></p>","response":0,"trial_type":"html-button-response","trial_index":45,"time_elapsed":2677698,"internal_node_id":"0.0-6.0"},{"rt":11189,"stimulus":"<h1 style=\"margin-top: 5%\">Cuestionario para la Evaluación de Metas Académicas</h1><p style=\"font-size: 120%; margin-left: 3%; margin-top: 5%\">Este es un cuestionario que permite conocer cuáles son los principales motivos por los que los estudiantes se esfuerzan en su trabajo académico. A continuación, se te presentarán una serie de afirmaciones acerca de los motivos que puedes tener para estudiar.<br>Te pedimos que contestes a dichas afirmaciones reflexionando sobre el contenido de cada una de ellas, que, aunque te parezcan semejantes, en realidad, no lo son.<br>NO HAY RESPUESTAS CORRECTAS o INCORRECTAS, sólo queremos que respondas con la mayor precisión y sinceridad posible a las preguntas que se plantean.","response":0,"trial_type":"html-button-response","trial_index":46,"time_elapsed":2688891,"internal_node_id":"0.0-7.0"},{"rt":120069,"response":{"Metas cuestionario pregunta1":4,"Metas cuestionario pregunta2":2,"Metas cuestionario pregunta3":4,"Metas cuestionario pregunta4":2,"Metas cuestionario pregunta5":3,"Metas cuestionario pregunta6":3,"Metas cuestionario pregunta7":3,"Metas cuestionario pregunta8":3,"Metas cuestionario pregunta9":2,"Metas cuestionario pregunta10":0,"Metas cuestionario pregunta11":0,"Metas cuestionario pregunta12":1,"Metas cuestionario pregunta13":1,"Metas cuestionario pregunta14":2,"Metas cuestionario pregunta15":3,"Metas cuestionario pregunta16":4,"Metas cuestionario pregunta17":4,"Metas cuestionario pregunta18":4,"Metas cuestionario pregunta19":4,"Metas cuestionario pregunta20":4},"question_order":[0,1,2,3,4,5,6,7,8,9,10,11,12,13,14,15,16,17,18,19],"trial_type":"survey-likert","trial_index":47,"time_elapsed":2808981,"internal_node_id":"0.0-8.0"}]