[{"rt":100755,"stimulus":"<h1 style=\"color:red; margin-top: 3%;\">¡Bienvenido(a)!</h1><p style=\"text-align:left; justify-content:space-between; margin-right: 5%; margin-left: 5%; margin-top: 5%\"> Antes de empezar el estudio, necesitamos que nos confirmes que estás de acuerdo con participar. Recuerda que tu participación es 100% voluntaria y que lo único que te pedimos es responder lo mejor que puedas. Recuerda también que el estudio incluye:</p><ol style=\"text-align:left; justify-content:space-between; margin-right: 5%; margin-left: 5%;\"><li> un ejercicio de resolución de preguntas de selección múltiple (30’),</li><li>un cuestionario breve (5’),</li><li>un juego muy breve (3’),</li></ol><p style=\"text-align:left; justify-content:space-between; margin-right: 5%; margin-left: 5%;\">Si quieres participar, haz clic en “Acepto” luego de leer lo siguiente:<br></p><p style=\"text-align:left; justify-content:space-between; margin-right: 5%; margin-left: 5%;\">Acepto participar en el estudio “Estrategias de lectura y resolución de preguntas de selección múltiple”, en los términos aquí señalados:<br></p><p style=\"text-align:left; justify-content:space-between; margin-right: 5%; margin-left: 5%;\"><a href=\"http://ciae.uchile.cl/download.php?file=noticias/Asentimiento.pdf\" target=\"_blank\">Link a la hoja de información del Consentimiento.</a></p><p style=\"text-align:left; justify-content:space-between; margin-right: 5%; margin-left: 5%;\">Declaro que he leído (o se me ha leído) y (he) comprendido, las condiciones de mi participación en este estudio. He tenido la oportunidad de hacer preguntas y éstas han sido respondidas. No tengo dudas al respecto.</p>","response":0,"condicion_MCQ":13,"condicion_JUEGO":73,"condicion_INTER":1,"numero_participante":73,"numero_version":2,"dimx":1920,"dimy":1080,"color_profundidad":24,"pixel_profundidad":24,"Browser":"Mozilla Firefox","dia":23,"mes":5,"hora":14,"minuto":13,"segundo":58,"trial_type":"html-button-response","trial_index":0,"time_elapsed":100756,"internal_node_id":"0.0-0.0"},{"success":true,"trial_type":"fullscreen","trial_index":1,"time_elapsed":102571,"internal_node_id":"0.0-1.0"},{"rt":54702,"responses":"{\"Nombres\":\"Tomislav Brian\",\"Apellidos\":\"Goic Macleod\",\"Edad\":\"22\",\"Sexo\":\"Hombre\",\"Curso\":\"Sección 1236 Neurobiología\",\"Colegio\":\"U. Andres Bello\",\"Contacto\":\"T.goicmacleod@uandresbello.edu\"}","trial_type":"survey-text","trial_index":2,"time_elapsed":157275,"internal_node_id":"0.0-2.0"},{"success":true,"timeout":false,"failed_images":[],"failed_audio":[],"failed_video":[],"trial_type":"preload","trial_index":3,"time_elapsed":159859,"internal_node_id":"0.0-3.0"},{"rt":12841,"stimulus":"<h1 style:\"margin-top: 5%;\">Ejercicios de Comprensión de Lectura de la Universidad de Chile</h1><p style=\"font-size: 120%;\">En esta actividad, debes responder 20 preguntas de selección múltiple. Cada pregunta presenta 5 respuestas alternativas, pero sólo una de ellas es correcta. Por lo tanto, debes escoger una sola alternativa para cada pregunta. Además, debes reportar qué tan seguro(a) estás de la respuesta que das, con un:</p><ol style=\"font-size: 120%;text-align:left;margin-left: 40%;\"><li>No estoy seguro(a) para nada</li><li>No estoy muy seguro(a)</li><li>Estoy bastante seguro(a)</li><li>Estoy totalmente seguro(a)</li></ol><p style=\"font-size: 120%;\">Por favor lee bien los enunciados antes de responder. ¡Éxito!</p>","response":0,"trial_type":"html-button-response","trial_index":4,"time_elapsed":172700,"internal_node_id":"0.0-4.0"},{"rt":38280,"responses":"{\"pregunta18\":\"c) Se necesita un marco legal para delimitar lo público y lo privado en materia informativa.\"}","question_order":"[0]","trial_type":"survey-multi-choice","trial_index":5,"time_elapsed":210980,"internal_node_id":"0.0-5.0-0.0"},{"rt":2663,"response":{"pregunta18 likert":2},"question_order":[0],"trial_type":"survey-likert","trial_index":6,"time_elapsed":213645,"internal_node_id":"0.0-5.0-1.0"},{"rt":75526,"responses":"{\"pregunta4\":\"d) Promover la asistencia a un evento específico de decoración a través de una atractiva descripción.\"}","question_order":"[0]","trial_type":"survey-multi-choice","trial_index":7,"time_elapsed":289172,"internal_node_id":"0.0-5.0-2.0"},{"rt":2112,"response":{"pregunta4 likert":3},"question_order":[0],"trial_type":"survey-likert","trial_index":8,"time_elapsed":291284,"internal_node_id":"0.0-5.0-3.0"},{"rt":93695,"responses":"{\"pregunta16\":\"b) sufren dolores de espalda.\"}","question_order":"[0]","trial_type":"survey-multi-choice","trial_index":9,"time_elapsed":384980,"internal_node_id":"0.0-5.0-4.0"},{"rt":1815,"response":{"pregunta16 likert":1},"question_order":[0],"trial_type":"survey-likert","trial_index":10,"time_elapsed":386796,"internal_node_id":"0.0-5.0-5.0"},{"rt":70183,"responses":"{\"pregunta7\":\"e) ritualistas y obsesivos.\"}","question_order":"[0]","trial_type":"survey-multi-choice","trial_index":11,"time_elapsed":456980,"internal_node_id":"0.0-5.0-6.0"},{"rt":2024,"response":{"pregunta7 likert":2},"question_order":[0],"trial_type":"survey-likert","trial_index":12,"time_elapsed":459004,"internal_node_id":"0.0-5.0-7.0"},{"rt":66543,"responses":"{\"pregunta11\":\"a) el mejor emperador es el que está muerto.\"}","question_order":"[0]","trial_type":"survey-multi-choice","trial_index":13,"time_elapsed":525548,"internal_node_id":"0.0-5.0-8.0"},{"rt":1928,"response":{"pregunta11 likert":1},"question_order":[0],"trial_type":"survey-likert","trial_index":14,"time_elapsed":527476,"internal_node_id":"0.0-5.0-9.0"},{"rt":52951,"responses":"{\"pregunta2\":\"b) A la relación entre sociedad y constitución social.\"}","question_order":"[0]","trial_type":"survey-multi-choice","trial_index":15,"time_elapsed":580428,"internal_node_id":"0.0-5.0-10.0"},{"rt":2335,"response":{"pregunta2 likert":1},"question_order":[0],"trial_type":"survey-likert","trial_index":16,"time_elapsed":582763,"internal_node_id":"0.0-5.0-11.0"},{"rt":92687,"responses":"{\"pregunta19\":\"c) el jardinero estará muerto al día siguiente.\"}","question_order":"[0]","trial_type":"survey-multi-choice","trial_index":17,"time_elapsed":675452,"internal_node_id":"0.0-5.0-12.0"},{"rt":1927,"response":{"pregunta19 likert":3},"question_order":[0],"trial_type":"survey-likert","trial_index":18,"time_elapsed":677380,"internal_node_id":"0.0-5.0-13.0"},{"rt":90447,"responses":"{\"pregunta1\":\"d) Aportan informaciones con las que se reconstruye el personaje dentro de un relato.\"}","question_order":"[0]","trial_type":"survey-multi-choice","trial_index":19,"time_elapsed":767828,"internal_node_id":"0.0-5.0-14.0"},{"rt":2759,"response":{"pregunta1 likert":3},"question_order":[0],"trial_type":"survey-likert","trial_index":20,"time_elapsed":770588,"internal_node_id":"0.0-5.0-15.0"},{"rt":84271,"responses":"{\"pregunta14\":\"a) A la negligencia de la empresa que los traía a Chile.\"}","question_order":"[0]","trial_type":"survey-multi-choice","trial_index":21,"time_elapsed":854859,"internal_node_id":"0.0-5.0-16.0"},{"rt":1719,"response":{"pregunta14 likert":0},"question_order":[0],"trial_type":"survey-likert","trial_index":22,"time_elapsed":856579,"internal_node_id":"0.0-5.0-17.0"},{"rt":45647,"responses":"{\"pregunta13\":\"b) Bomberos debería tener acceso a un seguro médico, al que pueda recurrir en caso de accidente.\"}","question_order":"[0]","trial_type":"survey-multi-choice","trial_index":23,"time_elapsed":902228,"internal_node_id":"0.0-5.0-18.0"},{"rt":2775,"response":{"pregunta13 likert":2},"question_order":[0],"trial_type":"survey-likert","trial_index":24,"time_elapsed":905003,"internal_node_id":"0.0-5.0-19.0"},{"rt":40031,"responses":"{\"pregunta5\":\"e) El ser humano se comporta de acuerdo con las circunstancias.\"}","question_order":"[0]","trial_type":"survey-multi-choice","trial_index":25,"time_elapsed":945036,"internal_node_id":"0.0-5.0-20.0"},{"rt":1695,"response":{"pregunta5 likert":3},"question_order":[0],"trial_type":"survey-likert","trial_index":26,"time_elapsed":946732,"internal_node_id":"0.0-5.0-21.0"},{"rt":30943,"responses":"{\"pregunta20\":\"c) para el mexicano, la muerte es cotidiana.\"}","question_order":"[0]","trial_type":"survey-multi-choice","trial_index":27,"time_elapsed":977676,"internal_node_id":"0.0-5.0-22.0"},{"rt":1951,"response":{"pregunta20 likert":2},"question_order":[0],"trial_type":"survey-likert","trial_index":28,"time_elapsed":979627,"internal_node_id":"0.0-5.0-23.0"},{"rt":65528,"responses":"{\"pregunta15\":\"b) El receptor es habitualmente pasivo frente a la publicidad.\"}","question_order":"[0]","trial_type":"survey-multi-choice","trial_index":29,"time_elapsed":1045155,"internal_node_id":"0.0-5.0-24.0"},{"rt":1832,"response":{"pregunta15 likert":3},"question_order":[0],"trial_type":"survey-likert","trial_index":30,"time_elapsed":1046987,"internal_node_id":"0.0-5.0-25.0"},{"rt":107152,"responses":"{\"pregunta8\":\"e) Provocar el deseo de la adquisición vertiginosa.\"}","question_order":"[0]","trial_type":"survey-multi-choice","trial_index":31,"time_elapsed":1154140,"internal_node_id":"0.0-5.0-26.0"},{"rt":1590,"response":{"pregunta8 likert":1},"question_order":[0],"trial_type":"survey-likert","trial_index":32,"time_elapsed":1155732,"internal_node_id":"0.0-5.0-27.0"},{"rt":51600,"responses":"{\"pregunta6\":\"e) preparar los recuerdos del mañana.\"}","question_order":"[0]","trial_type":"survey-multi-choice","trial_index":33,"time_elapsed":1207331,"internal_node_id":"0.0-5.0-28.0"},{"rt":1807,"response":{"pregunta6 likert":3},"question_order":[0],"trial_type":"survey-likert","trial_index":34,"time_elapsed":1209139,"internal_node_id":"0.0-5.0-29.0"},{"rt":61319,"responses":"{\"pregunta9\":\"a) Homenajear a quienes murieron.\"}","question_order":"[0]","trial_type":"survey-multi-choice","trial_index":35,"time_elapsed":1270459,"internal_node_id":"0.0-5.0-30.0"},{"rt":2863,"response":{"pregunta9 likert":2},"question_order":[0],"trial_type":"survey-likert","trial_index":36,"time_elapsed":1273324,"internal_node_id":"0.0-5.0-31.0"},{"rt":28687,"responses":"{\"pregunta12\":\"a) el uranio es el elemento natural con el mayor número de protones en el núcleo.\"}","question_order":"[0]","trial_type":"survey-multi-choice","trial_index":37,"time_elapsed":1302011,"internal_node_id":"0.0-5.0-32.0"},{"rt":1479,"response":{"pregunta12 likert":2},"question_order":[0],"trial_type":"survey-likert","trial_index":38,"time_elapsed":1303491,"internal_node_id":"0.0-5.0-33.0"},{"rt":55824,"responses":"{\"pregunta10\":\"a) Al premio merecido después de tantos esfuerzos.\"}","question_order":"[0]","trial_type":"survey-multi-choice","trial_index":39,"time_elapsed":1359315,"internal_node_id":"0.0-5.0-34.0"},{"rt":2223,"response":{"pregunta10 likert":1},"question_order":[0],"trial_type":"survey-likert","trial_index":40,"time_elapsed":1361540,"internal_node_id":"0.0-5.0-35.0"},{"rt":41824,"responses":"{\"pregunta3\":\"e) En los viajes es esencial el momento mismo de la escritura.\"}","question_order":"[0]","trial_type":"survey-multi-choice","trial_index":41,"time_elapsed":1403364,"internal_node_id":"0.0-5.0-36.0"},{"rt":3023,"response":{"pregunta3 likert":1},"question_order":[0],"trial_type":"survey-likert","trial_index":42,"time_elapsed":1406387,"internal_node_id":"0.0-5.0-37.0"},{"rt":50006,"responses":"{\"pregunta17\":\"c) Nuestra economía vivirá un proceso de ajuste a la nueva realidad.\"}","question_order":"[0]","trial_type":"survey-multi-choice","trial_index":43,"time_elapsed":1456395,"internal_node_id":"0.0-5.0-38.0"},{"rt":1136,"response":{"pregunta17 likert":1},"question_order":[0],"trial_type":"survey-likert","trial_index":44,"time_elapsed":1457532,"internal_node_id":"0.0-5.0-39.0"}]