[{"rt":45850.68999999203,"stimulus":"<h1 style=\"color:red; margin-top: 3%;\">¡Bienvenido(a)!</h1><p style=\"text-align:left; justify-content:space-between; margin-right: 5%; margin-left: 5%; margin-top: 5%\"> Antes de empezar el estudio, necesitamos que nos confirmes que estás de acuerdo con participar. Recuerda que tu participación es 100% voluntaria y que lo único que te pedimos es responder lo mejor que puedas. Recuerda también que el estudio incluye:</p><ol style=\"text-align:left; justify-content:space-between; margin-right: 5%; margin-left: 5%;\"><li> un ejercicio de resolución de preguntas de selección múltiple (30’),</li><li>un cuestionario breve (5’),</li><li>un juego muy breve (3’),</li></ol><p style=\"text-align:left; justify-content:space-between; margin-right: 5%; margin-left: 5%;\">Si quieres participar, haz clic en “Acepto” luego de leer lo siguiente:<br></p><p style=\"text-align:left; justify-content:space-between; margin-right: 5%; margin-left: 5%;\">Acepto participar en el estudio “Estrategias de lectura y resolución de preguntas de selección múltiple”, en los términos aquí señalados:<br></p><p style=\"text-align:left; justify-content:space-between; margin-right: 5%; margin-left: 5%;\"><a href=\"http://ciae.uchile.cl/download.php?file=noticias/Asentimiento.pdf\" target=\"_blank\">Link a la hoja de información del Consentimiento.</a></p><p style=\"text-align:left; justify-content:space-between; margin-right: 5%; margin-left: 5%;\">Declaro que he leído (o se me ha leído) y (he) comprendido, las condiciones de mi participación en este estudio. He tenido la oportunidad de hacer preguntas y éstas han sido respondidas. No tengo dudas al respecto.</p>","response":0,"condicion_MCQ":2,"condicion_JUEGO":82,"condicion_INTER":10,"numero_participante":82,"numero_version":1,"dimx":1280,"dimy":800,"color_profundidad":24,"pixel_profundidad":24,"Browser":"Google Chrome","dia":23,"mes":5,"hora":13,"minuto":39,"segundo":12,"trial_type":"html-button-response","trial_index":0,"time_elapsed":45854,"internal_node_id":"0.0-0.0"},{"success":true,"trial_type":"fullscreen","trial_index":1,"time_elapsed":53562,"internal_node_id":"0.0-1.0"},{"rt":108931.35999998776,"responses":"{\"Nombres\":\"Sofía Andrea\",\"Apellidos\":\"González Krautwurst\",\"Edad\":\"19\",\"Sexo\":\"mujer\",\"Curso\":\"Sección 1236\",\"Colegio\":\"Uiversidad Andres Bello\",\"Contacto\":\"s.gonzlezkrautwurst@uandresbello.edu\"}","trial_type":"survey-text","trial_index":2,"time_elapsed":162522,"internal_node_id":"0.0-2.0"},{"success":true,"timeout":false,"failed_images":[],"failed_audio":[],"failed_video":[],"trial_type":"preload","trial_index":3,"time_elapsed":164159,"internal_node_id":"0.0-3.0"},{"rt":17311.314999999013,"stimulus":"<h1 style:\"margin-top: 5%;\">Ejercicios de Comprensión de Lectura de la Universidad de Chile</h1><p style=\"font-size: 120%;\">En esta actividad, debes responder 20 preguntas de selección múltiple. Cada pregunta presenta 5 respuestas alternativas, pero sólo una de ellas es correcta. Por lo tanto, debes escoger una sola alternativa para cada pregunta. Además, debes reportar qué tan seguro(a) estás de la respuesta que das, con un:</p><ol style=\"font-size: 120%;text-align:left;margin-left: 40%;\"><li>No estoy seguro(a) para nada</li><li>No estoy muy seguro(a)</li><li>Estoy bastante seguro(a)</li><li>Estoy totalmente seguro(a)</li></ol><p style=\"font-size: 120%;\">Por favor lee bien los enunciados antes de responder. ¡Éxito!</p>","response":0,"trial_type":"html-button-response","trial_index":4,"time_elapsed":181472,"internal_node_id":"0.0-4.0"},{"rt":43941.259999992326,"responses":"{\"pregunta20\":\"a) para el mexicano, la muerte es cotidiana.\"}","question_order":"[0]","trial_type":"survey-multi-choice","trial_index":5,"time_elapsed":225416,"internal_node_id":"0.0-5.0-0.0"},{"rt":5624.920000031125,"response":{"pregunta20 likert":3},"question_order":[0],"trial_type":"survey-likert","trial_index":6,"time_elapsed":231048,"internal_node_id":"0.0-5.0-1.0"},{"rt":41128.759999992326,"responses":"{\"pregunta18\":\"c) El derecho a informar y el derecho a la privacidad son inconciliables.\"}","question_order":"[0]","trial_type":"survey-multi-choice","trial_index":7,"time_elapsed":272184,"internal_node_id":"0.0-5.0-2.0"},{"rt":1784.029999980703,"response":{"pregunta18 likert":2},"question_order":[0],"trial_type":"survey-likert","trial_index":8,"time_elapsed":273974,"internal_node_id":"0.0-5.0-3.0"},{"rt":41083.900000026915,"responses":"{\"pregunta17\":\"e) Nuestra economía vivirá un proceso de ajuste a la nueva realidad.\"}","question_order":"[0]","trial_type":"survey-multi-choice","trial_index":9,"time_elapsed":315064,"internal_node_id":"0.0-5.0-4.0"},{"rt":3459.7349999821745,"response":{"pregunta17 likert":1},"question_order":[0],"trial_type":"survey-likert","trial_index":10,"time_elapsed":318529,"internal_node_id":"0.0-5.0-5.0"},{"rt":58048.7800000119,"responses":"{\"pregunta3\":\"a) Los momentos triviales de los viajes, en la escritura se vuelven significativos.\"}","question_order":"[0]","trial_type":"survey-multi-choice","trial_index":11,"time_elapsed":376584,"internal_node_id":"0.0-5.0-6.0"},{"rt":1839.3649999634363,"response":{"pregunta3 likert":2},"question_order":[0],"trial_type":"survey-likert","trial_index":12,"time_elapsed":378430,"internal_node_id":"0.0-5.0-7.0"},{"rt":67454.38000001013,"responses":"{\"pregunta11\":\"c) el mejor emperador es el que está muerto.\"}","question_order":"[0]","trial_type":"survey-multi-choice","trial_index":13,"time_elapsed":445891,"internal_node_id":"0.0-5.0-8.0"},{"rt":3898.7449999549426,"response":{"pregunta11 likert":3},"question_order":[0],"trial_type":"survey-likert","trial_index":14,"time_elapsed":449795,"internal_node_id":"0.0-5.0-9.0"},{"rt":45947.190000035334,"responses":"{\"pregunta14\":\"a) A la negligencia de la empresa que los traía a Chile.\"}","question_order":"[0]","trial_type":"survey-multi-choice","trial_index":15,"time_elapsed":495749,"internal_node_id":"0.0-5.0-10.0"},{"rt":2812.0750000234693,"response":{"pregunta14 likert":3},"question_order":[0],"trial_type":"survey-likert","trial_index":16,"time_elapsed":498567,"internal_node_id":"0.0-5.0-11.0"},{"rt":95905.81000002567,"responses":"{\"pregunta5\":\"b) El ser humano se comporta de acuerdo con las circunstancias.\"}","question_order":"[0]","trial_type":"survey-multi-choice","trial_index":17,"time_elapsed":594479,"internal_node_id":"0.0-5.0-12.0"},{"rt":2213.415000005625,"response":{"pregunta5 likert":1},"question_order":[0],"trial_type":"survey-likert","trial_index":18,"time_elapsed":596700,"internal_node_id":"0.0-5.0-13.0"},{"rt":64050.53999996744,"responses":"{\"pregunta10\":\"d) A la inutilidad de tanto esfuerzo si el objetivo es el reposo.\"}","question_order":"[0]","trial_type":"survey-multi-choice","trial_index":19,"time_elapsed":660757,"internal_node_id":"0.0-5.0-14.0"},{"rt":2426.38999997871,"response":{"pregunta10 likert":1},"question_order":[0],"trial_type":"survey-likert","trial_index":20,"time_elapsed":663189,"internal_node_id":"0.0-5.0-15.0"},{"rt":58346.14999999758,"responses":"{\"pregunta1\":\"a) Aportan informaciones con las que se reconstruye el personaje dentro de un relato.\"}","question_order":"[0]","trial_type":"survey-multi-choice","trial_index":21,"time_elapsed":721541,"internal_node_id":"0.0-5.0-16.0"},{"rt":3346.4599999715574,"response":{"pregunta1 likert":2},"question_order":[0],"trial_type":"survey-likert","trial_index":22,"time_elapsed":724893,"internal_node_id":"0.0-5.0-17.0"},{"rt":63733.71000000043,"responses":"{\"pregunta9\":\"b) Atraer a los turistas.\"}","question_order":"[0]","trial_type":"survey-multi-choice","trial_index":23,"time_elapsed":788636,"internal_node_id":"0.0-5.0-18.0"},{"rt":2466.2699999753386,"response":{"pregunta9 likert":1},"question_order":[0],"trial_type":"survey-likert","trial_index":24,"time_elapsed":791108,"internal_node_id":"0.0-5.0-19.0"},{"rt":181934.38500002958,"responses":"{\"pregunta19\":\"e) el jardinero estará muerto al día siguiente.\"}","question_order":"[0]","trial_type":"survey-multi-choice","trial_index":25,"time_elapsed":973048,"internal_node_id":"0.0-5.0-20.0"},{"rt":2037.7999999909662,"response":{"pregunta19 likert":2},"question_order":[0],"trial_type":"survey-likert","trial_index":26,"time_elapsed":975092,"internal_node_id":"0.0-5.0-21.0"},{"rt":41187.39999999525,"responses":"{\"pregunta8\":\"e) Poner en escena objetos y servicios.\"}","question_order":"[0]","trial_type":"survey-multi-choice","trial_index":27,"time_elapsed":1016285,"internal_node_id":"0.0-5.0-22.0"},{"rt":2413.8549999915995,"response":{"pregunta8 likert":2},"question_order":[0],"trial_type":"survey-likert","trial_index":28,"time_elapsed":1018705,"internal_node_id":"0.0-5.0-23.0"},{"rt":66953.91500002006,"responses":"{\"pregunta15\":\"d) El receptor es habitualmente pasivo frente a la publicidad.\"}","question_order":"[0]","trial_type":"survey-multi-choice","trial_index":29,"time_elapsed":1085665,"internal_node_id":"0.0-5.0-24.0"},{"rt":2095.934999990277,"response":{"pregunta15 likert":1},"question_order":[0],"trial_type":"survey-likert","trial_index":30,"time_elapsed":1087767,"internal_node_id":"0.0-5.0-25.0"},{"rt":106322.14499998372,"responses":"{\"pregunta16\":\"e) sufren dolores de espalda.\"}","question_order":"[0]","trial_type":"survey-multi-choice","trial_index":31,"time_elapsed":1194095,"internal_node_id":"0.0-5.0-26.0"},{"rt":1754.5500000123866,"response":{"pregunta16 likert":1},"question_order":[0],"trial_type":"survey-likert","trial_index":32,"time_elapsed":1195856,"internal_node_id":"0.0-5.0-27.0"},{"rt":37573.32500000484,"responses":"{\"pregunta13\":\"b) Por el riesgo que corren diariamente, los bomberos deberían tener mejores condiciones de seguridad.\"}","question_order":"[0]","trial_type":"survey-multi-choice","trial_index":33,"time_elapsed":1233435,"internal_node_id":"0.0-5.0-28.0"},{"rt":2354.384999955073,"response":{"pregunta13 likert":2},"question_order":[0],"trial_type":"survey-likert","trial_index":34,"time_elapsed":1235795,"internal_node_id":"0.0-5.0-29.0"},{"rt":42955.23999998113,"responses":"{\"pregunta2\":\"a) A la relación entre pensamiento y estructura social.\"}","question_order":"[0]","trial_type":"survey-multi-choice","trial_index":35,"time_elapsed":1278757,"internal_node_id":"0.0-5.0-30.0"},{"rt":1812.6899999915622,"response":{"pregunta2 likert":2},"question_order":[0],"trial_type":"survey-likert","trial_index":36,"time_elapsed":1280576,"internal_node_id":"0.0-5.0-31.0"},{"rt":60982.939999958035,"responses":"{\"pregunta4\":\"b) Promover la asistencia a un evento específico de decoración a través de una atractiva descripción.\"}","question_order":"[0]","trial_type":"survey-multi-choice","trial_index":37,"time_elapsed":1341565,"internal_node_id":"0.0-5.0-32.0"},{"rt":1970.325000002049,"response":{"pregunta4 likert":2},"question_order":[0],"trial_type":"survey-likert","trial_index":38,"time_elapsed":1343542,"internal_node_id":"0.0-5.0-33.0"},{"rt":42261.6599999601,"responses":"{\"pregunta6\":\"b) preparar los recuerdos del mañana.\"}","question_order":"[0]","trial_type":"survey-multi-choice","trial_index":39,"time_elapsed":1385810,"internal_node_id":"0.0-5.0-34.0"},{"rt":2074.1450000205077,"response":{"pregunta6 likert":3},"question_order":[0],"trial_type":"survey-likert","trial_index":40,"time_elapsed":1387890,"internal_node_id":"0.0-5.0-35.0"},{"rt":61263.91000003787,"responses":"{\"pregunta7\":\"e) religiosos y precavidos.\"}","question_order":"[0]","trial_type":"survey-multi-choice","trial_index":41,"time_elapsed":1449160,"internal_node_id":"0.0-5.0-36.0"},{"rt":2924.1800000309013,"response":{"pregunta7 likert":3},"question_order":[0],"trial_type":"survey-likert","trial_index":42,"time_elapsed":1452090,"internal_node_id":"0.0-5.0-37.0"},{"rt":51905.44499998214,"responses":"{\"pregunta12\":\"c) a partir de la manipulación del núcleo se han creado elementos químicos naturales.\"}","question_order":"[0]","trial_type":"survey-multi-choice","trial_index":43,"time_elapsed":1504001,"internal_node_id":"0.0-5.0-38.0"},{"rt":1847.5949999992736,"response":{"pregunta12 likert":0},"question_order":[0],"trial_type":"survey-likert","trial_index":44,"time_elapsed":1505855,"internal_node_id":"0.0-5.0-39.0"},{"rt":2677.544999984093,"stimulus":"<p style=\"font-size: 120%\">Gracias por completar esta etapa del estudio. Ahora te invitamos a responder el cuestionario.<br><br></p>","response":0,"trial_type":"html-button-response","trial_index":45,"time_elapsed":1508551,"internal_node_id":"0.0-6.0"},{"rt":18767.084999999497,"stimulus":"<h1 style=\"margin-top: 5%\">Cuestionario para la Evaluación de Metas Académicas</h1><p style=\"font-size: 120%; margin-left: 3%; margin-top: 5%\">Este es un cuestionario que permite conocer cuáles son los principales motivos por los que los estudiantes se esfuerzan en su trabajo académico. A continuación, se te presentarán una serie de afirmaciones acerca de los motivos que puedes tener para estudiar.<br>Te pedimos que contestes a dichas afirmaciones reflexionando sobre el contenido de cada una de ellas, que, aunque te parezcan semejantes, en realidad, no lo son.<br>NO HAY RESPUESTAS CORRECTAS o INCORRECTAS, sólo queremos que respondas con la mayor precisión y sinceridad posible a las preguntas que se plantean.","response":0,"trial_type":"html-button-response","trial_index":46,"time_elapsed":1527319,"internal_node_id":"0.0-7.0"},{"rt":110697.50500004739,"response":{"Metas cuestionario pregunta1":4,"Metas cuestionario pregunta2":2,"Metas cuestionario pregunta3":4,"Metas cuestionario pregunta4":2,"Metas cuestionario pregunta5":4,"Metas cuestionario pregunta6":4,"Metas cuestionario pregunta7":4,"Metas cuestionario pregunta8":3,"Metas cuestionario pregunta9":2,"Metas cuestionario pregunta10":2,"Metas cuestionario pregunta11":0,"Metas cuestionario pregunta12":1,"Metas cuestionario pregunta13":3,"Metas cuestionario pregunta14":3,"Metas cuestionario pregunta15":4,"Metas cuestionario pregunta16":2,"Metas cuestionario pregunta17":4,"Metas cuestionario pregunta18":4,"Metas cuestionario pregunta19":1,"Metas cuestionario pregunta20":1},"question_order":[0,1,2,3,4,5,6,7,8,9,10,11,12,13,14,15,16,17,18,19],"trial_type":"survey-likert","trial_index":47,"time_elapsed":1638025,"internal_node_id":"0.0-8.0"},{"rt":2269.0249999868684,"stimulus":"<p style=\"font-size: 120%\">Gracias por responder el cuestionario. Ahora te invitamos a seguir con el juego, que es muy breve.<br><br></p>","response":0,"trial_type":"html-button-response","trial_index":48,"time_elapsed":1640350,"internal_node_id":"0.0-9.0"},{"rt":7484.089999983553,"stimulus":"<h1>Juego</h1><p style=\"font-size: 120%;\">A continuación se te presentarán 16 pequeñas historias.<br>Por favor lee el texto presentado en cada una de ellas y luego haz click en el objeto de tu elección.<br>Si estás listo(a),<span style=\"color:red;\"> haz click en \"comenzar\"</span>.</p>","response":0,"trial_type":"html-button-response","trial_index":49,"time_elapsed":1647836,"internal_node_id":"0.0-10.0"},{"rt":14067.959999956656,"grid":[[1,1,1,1],[1,1,1,1],[1,1,1,1],[1,1,1,1],[1,1,1,1],[1,1,1,1],[1,1,1,1],[1,1,1,1],[1,1,1,1],[1,1,1,1],[1,1,1,1]],"target":[0,0],"response":[3,2],"correct":false,"juego":14,"trial_type":"serial-reaction-time-mouse","trial_index":50,"time_elapsed":1661907,"internal_node_id":"0.0-11.0-0.0"},{"rt":9472.354999976233,"grid":[[1,1,1],[1,1,1],[1,1,1],[1,1,1],[1,1,1],[1,1,1],[1,1,1],[1,1,1],[1,1,1],[1,1,1],[1,1,1]],"target":[0,0],"response":[1,1],"correct":false,"juego":6,"trial_type":"serial-reaction-time-mouse","trial_index":51,"time_elapsed":1671382,"internal_node_id":"0.0-11.0-1.0"},{"rt":14761.475000006612,"grid":[[1,1,1,1],[1,1,1,1],[1,1,1,1],[1,1,1,1],[1,1,1,1],[1,1,1,1],[1,1,1,1],[1,1,1,1],[1,1,1,1],[1,1,1,1],[1,1,1,1]],"target":[0,0],"response":[3,2],"correct":false,"juego":15,"trial_type":"serial-reaction-time-mouse","trial_index":52,"time_elapsed":1686147,"internal_node_id":"0.0-11.0-2.0"},{"rt":9170.255000004545,"grid":[[1,1,1,1,1]],"target":[0,0],"response":[0,1],"correct":false,"juego":12,"trial_type":"serial-reaction-time-mouse","trial_index":53,"time_elapsed":1695318,"internal_node_id":"0.0-11.0-3.0"},{"rt":21253.159999963827,"grid":[[1,1,1,1,1]],"target":[0,0],"response":[0,1],"correct":false,"juego":8,"trial_type":"serial-reaction-time-mouse","trial_index":54,"time_elapsed":1716573,"internal_node_id":"0.0-11.0-4.0"},{"rt":9012.624999973923,"grid":[[1,1,1,1,1]],"target":[0,0],"response":[0,4],"correct":false,"juego":1,"trial_type":"serial-reaction-time-mouse","trial_index":55,"time_elapsed":1725587,"internal_node_id":"0.0-11.0-5.0"},{"rt":3790.7000000122935,"grid":[[1],[1],[1],[1],[1]],"target":[0,0],"response":[4,0],"correct":false,"juego":4,"trial_type":"serial-reaction-time-mouse","trial_index":56,"time_elapsed":1729379,"internal_node_id":"0.0-11.0-6.0"},{"rt":7951.8450000323355,"grid":[[1,1,1,1,1]],"target":[0,0],"response":[0,0],"correct":true,"juego":7,"trial_type":"serial-reaction-time-mouse","trial_index":57,"time_elapsed":1737332,"internal_node_id":"0.0-11.0-7.0"},{"rt":3745.504999998957,"grid":[[1,1,1],[1,1,1],[1,1,1],[1,1,1],[1,1,1],[1,1,1],[1,1,1],[1,1,1],[1,1,1],[1,1,1],[1,1,1]],"target":[0,0],"response":[3,1],"correct":false,"juego":5,"trial_type":"serial-reaction-time-mouse","trial_index":58,"time_elapsed":1741081,"internal_node_id":"0.0-11.0-8.0"},{"rt":9788.13000000082,"grid":[[1,1,1,1,1]],"target":[0,0],"response":[0,2],"correct":false,"juego":11,"trial_type":"serial-reaction-time-mouse","trial_index":59,"time_elapsed":1750871,"internal_node_id":"0.0-11.0-9.0"},{"rt":4428.725000005215,"grid":[[1,1,1,1,1]],"target":[0,0],"response":[0,4],"correct":false,"juego":9,"trial_type":"serial-reaction-time-mouse","trial_index":60,"time_elapsed":1755301,"internal_node_id":"0.0-11.0-10.0"},{"rt":6891.319999995176,"grid":[[1,1,1],[1,1,1],[1,1,1],[1,1,1],[1,1,1],[1,1,1],[1,1,1],[1,1,1],[1,1,1],[1,1,1],[1,1,1]],"target":[0,0],"response":[5,1],"correct":false,"juego":13,"trial_type":"serial-reaction-time-mouse","trial_index":61,"time_elapsed":1762195,"internal_node_id":"0.0-11.0-11.0"},{"rt":7538.449999992736,"grid":[[1,1,1,1,1]],"target":[0,0],"response":[0,4],"correct":false,"juego":3,"trial_type":"serial-reaction-time-mouse","trial_index":62,"time_elapsed":1769734,"internal_node_id":"0.0-11.0-12.0"},{"rt":9133.315000042785,"grid":[[1,1,1],[1,1,1],[1,1,1],[1,1,1],[1,1,1],[1,1,1],[1,1,1],[1,1,1],[1,1,1],[1,1,1],[1,1,1]],"target":[0,0],"response":[5,0],"correct":false,"juego":10,"trial_type":"serial-reaction-time-mouse","trial_index":63,"time_elapsed":1778870,"internal_node_id":"0.0-11.0-13.0"},{"rt":7397.545000014361,"grid":[[1,1,1,1,1]],"target":[0,0],"response":[0,2],"correct":false,"juego":2,"trial_type":"serial-reaction-time-mouse","trial_index":64,"time_elapsed":1786269,"internal_node_id":"0.0-11.0-14.0"},{"rt":3170.319999975618,"stimulus":"<h1>Último juego</h1><p style=\"font-size: 130%;\">Tienes <span style=\"color:red\">35</span> segundos para recordar los pares de palabras que aparecerán a continuación. <br></p>","response":0,"trial_type":"html-button-response","trial_index":65,"time_elapsed":1789442,"internal_node_id":"0.0-12.0"},{"animation_sequence":[{"stimulus":"imagen_juego_interferencia.jpg","time":510.6849999865517},{"stimulus":"imagen_juego_interferencia.jpg","time":1004.2300000204705},{"stimulus":"imagen_juego_interferencia.jpg","time":1501.9650000031106},{"stimulus":"imagen_juego_interferencia.jpg","time":2002.634999982547},{"stimulus":"imagen_juego_interferencia.jpg","time":2501.8000000272878},{"stimulus":"imagen_juego_interferencia.jpg","time":3003.0400000396185},{"stimulus":"imagen_juego_interferencia.jpg","time":3502.290000033099},{"stimulus":"imagen_juego_interferencia.jpg","time":4001.430000003893},{"stimulus":"imagen_juego_interferencia.jpg","time":4505.560000019614},{"stimulus":"imagen_juego_interferencia.jpg","time":5006.095000018831},{"stimulus":"imagen_juego_interferencia.jpg","time":5505.095000029542},{"stimulus":"imagen_juego_interferencia.jpg","time":6004.305000009481},{"stimulus":"imagen_juego_interferencia.jpg","time":6503.61499999417},{"stimulus":"imagen_juego_interferencia.jpg","time":7002.825000032317},{"stimulus":"imagen_juego_interferencia.jpg","time":7505.68000000203},{"stimulus":"imagen_juego_interferencia.jpg","time":8004.98000002699},{"stimulus":"imagen_juego_interferencia.jpg","time":8504.15500003146},{"stimulus":"imagen_juego_interferencia.jpg","time":9003.135000006296},{"stimulus":"imagen_juego_interferencia.jpg","time":9501.870000036433},{"stimulus":"imagen_juego_interferencia.jpg","time":10001.760000013746},{"stimulus":"imagen_juego_interferencia.jpg","time":10503.215000033379},{"stimulus":"imagen_juego_interferencia.jpg","time":11002.485000004526},{"stimulus":"imagen_juego_interferencia.jpg","time":11501.51500001084},{"stimulus":"imagen_juego_interferencia.jpg","time":12006.370000017341},{"stimulus":"imagen_juego_interferencia.jpg","time":12505.935000022873},{"stimulus":"imagen_juego_interferencia.jpg","time":13001.855000038631},{"stimulus":"imagen_juego_interferencia.jpg","time":13504.40500001423},{"stimulus":"imagen_juego_interferencia.jpg","time":14003.695000021253},{"stimulus":"imagen_juego_interferencia.jpg","time":14502.78999999864},{"stimulus":"imagen_juego_interferencia.jpg","time":15005.555000039749},{"stimulus":"imagen_juego_interferencia.jpg","time":15504.30500000948},{"stimulus":"imagen_juego_interferencia.jpg","time":16004.185000027064},{"stimulus":"imagen_juego_interferencia.jpg","time":16503.360000031535},{"stimulus":"imagen_juego_interferencia.jpg","time":17002.695000031963},{"stimulus":"imagen_juego_interferencia.jpg","time":17501.860000018496},{"stimulus":"imagen_juego_interferencia.jpg","time":18003.194999997504},{"stimulus":"imagen_juego_interferencia.jpg","time":18502.325000008568},{"stimulus":"imagen_juego_interferencia.jpg","time":19003.5650000209},{"stimulus":"imagen_juego_interferencia.jpg","time":19506.5450000111},{"stimulus":"imagen_juego_interferencia.jpg","time":20005.914999987},{"stimulus":"imagen_juego_interferencia.jpg","time":20505.145000002813},{"stimulus":"imagen_juego_interferencia.jpg","time":21004.43000002997},{"stimulus":"imagen_juego_interferencia.jpg","time":21503.610000014305},{"stimulus":"imagen_juego_interferencia.jpg","time":22002.910000039265},{"stimulus":"imagen_juego_interferencia.jpg","time":22505.75499999104},{"stimulus":"imagen_juego_interferencia.jpg","time":23004.935000033583},{"stimulus":"imagen_juego_interferencia.jpg","time":23504.209999984596},{"stimulus":"imagen_juego_interferencia.jpg","time":24003.445000038482},{"stimulus":"imagen_juego_interferencia.jpg","time":24502.610000025015},{"stimulus":"imagen_juego_interferencia.jpg","time":25001.93999998737},{"stimulus":"imagen_juego_interferencia.jpg","time":25503.324999997858},{"stimulus":"imagen_juego_interferencia.jpg","time":26002.520000038203},{"stimulus":"imagen_juego_interferencia.jpg","time":26501.610000035726},{"stimulus":"imagen_juego_interferencia.jpg","time":27006.345000001602},{"stimulus":"imagen_juego_interferencia.jpg","time":27506.010000011884},{"stimulus":"imagen_juego_interferencia.jpg","time":28005.19500003429},{"stimulus":"imagen_juego_interferencia.jpg","time":28504.39000001643},{"stimulus":"imagen_juego_interferencia.jpg","time":29003.735000034794},{"stimulus":"imagen_juego_interferencia.jpg","time":29503.000000026077},{"stimulus":"imagen_juego_interferencia.jpg","time":30005.75499999104},{"stimulus":"imagen_juego_interferencia.jpg","time":30505.149999982677},{"stimulus":"imagen_juego_interferencia.jpg","time":31004.20500000473},{"stimulus":"imagen_juego_interferencia.jpg","time":31503.51499998942},{"stimulus":"imagen_juego_interferencia.jpg","time":32002.704999991693},{"stimulus":"imagen_juego_interferencia.jpg","time":32502.03999999212},{"stimulus":"imagen_juego_interferencia.jpg","time":33003.209999995306},{"stimulus":"imagen_juego_interferencia.jpg","time":33502.54000001587},{"stimulus":"imagen_juego_interferencia.jpg","time":34001.670000026934},{"stimulus":"imagen_juego_interferencia.jpg","time":34506.36500003748},{"stimulus":"imagen_juego_interferencia.jpg","time":35006.02000002982}],"response":[],"trial_type":"animation","trial_index":66,"time_elapsed":1824949,"internal_node_id":"0.0-13.0"},{"rt":17956.645000027493,"responses":"{\"pregunta interferencia3\":\"aluminio\"}","question_order":"[0]","trial_type":"survey-multi-choice-cuest","trial_index":67,"time_elapsed":1842908,"internal_node_id":"0.0-14.0-0.0"},{"rt":6509.260000020731,"responses":"{\"pregunta interferencia2\":\"cucaracha\"}","question_order":"[0]","trial_type":"survey-multi-choice-cuest","trial_index":68,"time_elapsed":1849423,"internal_node_id":"0.0-14.0-1.0"},{"rt":6990.384999953676,"responses":"{\"pregunta interferencia1\":\"naranja\"}","question_order":"[0]","trial_type":"survey-multi-choice-cuest","trial_index":69,"time_elapsed":1856419,"internal_node_id":"0.0-14.0-2.0"},{"rt":3641.1699999589473,"responses":"{\"pregunta interferencia4\":\"contador\"}","question_order":"[0]","trial_type":"survey-multi-choice-cuest","trial_index":70,"time_elapsed":1860067,"internal_node_id":"0.0-14.0-3.0"},{"success":true,"trial_type":"fullscreen","trial_index":71,"time_elapsed":1861081,"internal_node_id":"0.0-15.0"},{"rt":9711.609999998473,"responses":"{\"Telefono\":\"\"}","trial_type":"survey-text","trial_index":72,"time_elapsed":1870801,"internal_node_id":"0.0-16.0"}]