[{"rt":26937.39999999106,"stimulus":"<h1 style=\"color:red; margin-top: 3%;\">¡Bienvenido(a)!</h1><p style=\"text-align:left; justify-content:space-between; margin-right: 5%; margin-left: 5%; margin-top: 5%\"> Antes de empezar el estudio, necesitamos que nos confirmes que estás de acuerdo con participar. Recuerda que tu participación es 100% voluntaria y que lo único que te pedimos es responder lo mejor que puedas. Recuerda también que el estudio incluye:</p><ol style=\"text-align:left; justify-content:space-between; margin-right: 5%; margin-left: 5%;\"><li> un ejercicio de resolución de preguntas de selección múltiple (30’),</li><li>un cuestionario breve (5’),</li><li>un juego muy breve (3’),</li></ol><p style=\"text-align:left; justify-content:space-between; margin-right: 5%; margin-left: 5%;\">Si quieres participar, haz clic en “Acepto” luego de leer lo siguiente:<br></p><p style=\"text-align:left; justify-content:space-between; margin-right: 5%; margin-left: 5%;\">Acepto participar en el estudio “Estrategias de lectura y resolución de preguntas de selección múltiple”, en los términos aquí señalados:<br></p><p style=\"text-align:left; justify-content:space-between; margin-right: 5%; margin-left: 5%;\"><a href=\"http://ciae.uchile.cl/download.php?file=noticias/Asentimiento.pdf\" target=\"_blank\">Link a la hoja de información del Consentimiento.</a></p><p style=\"text-align:left; justify-content:space-between; margin-right: 5%; margin-left: 5%;\">Declaro que he leído (o se me ha leído) y (he) comprendido, las condiciones de mi participación en este estudio. He tenido la oportunidad de hacer preguntas y éstas han sido respondidas. No tengo dudas al respecto.</p>","response":0,"condicion_MCQ":5,"condicion_JUEGO":105,"condicion_INTER":9,"numero_participante":105,"numero_version":1,"dimx":412,"dimy":915,"color_profundidad":24,"pixel_profundidad":24,"Browser":"Google Chrome","dia":27,"mes":5,"hora":11,"minuto":5,"segundo":30,"trial_type":"html-button-response","trial_index":0,"time_elapsed":26946,"internal_node_id":"0.0-0.0"},{"success":true,"trial_type":"fullscreen","trial_index":1,"time_elapsed":37439,"internal_node_id":"0.0-1.0"},{"rt":67146.90000000596,"responses":"{\"Nombres\":\"Aline Catalina \",\"Apellidos\":\"Ponce Cruces \",\"Edad\":\"20\",\"Sexo\":\"Mujer\",\"Curso\":\"Sección 200\",\"Colegio\":\"Universidad \",\"Contacto\":\"Aline.ponce2000@gmail.com \"}","trial_type":"survey-text","trial_index":2,"time_elapsed":104615,"internal_node_id":"0.0-2.0"},{"success":true,"timeout":false,"failed_images":[],"failed_audio":[],"failed_video":[],"trial_type":"preload","trial_index":3,"time_elapsed":106422,"internal_node_id":"0.0-3.0"},{"rt":18777.5,"stimulus":"<h1 style:\"margin-top: 5%;\">Ejercicios de Comprensión de Lectura de la Universidad de Chile</h1><p style=\"font-size: 120%;\">En esta actividad, debes responder 20 preguntas de selección múltiple. Cada pregunta presenta 5 respuestas alternativas, pero sólo una de ellas es correcta. Por lo tanto, debes escoger una sola alternativa para cada pregunta. Además, debes reportar qué tan seguro(a) estás de la respuesta que das, con un:</p><ol style=\"font-size: 120%;text-align:left;margin-left: 40%;\"><li>No estoy seguro(a) para nada</li><li>No estoy muy seguro(a)</li><li>Estoy bastante seguro(a)</li><li>Estoy totalmente seguro(a)</li></ol><p style=\"font-size: 120%;\">Por favor lee bien los enunciados antes de responder. ¡Éxito!</p>","response":0,"trial_type":"html-button-response","trial_index":4,"time_elapsed":125204,"internal_node_id":"0.0-4.0"},{"rt":80438.70000000298,"responses":"{\"pregunta8\":\"c) Provocar el deseo de la adquisición vertiginosa.\"}","question_order":"[0]","trial_type":"survey-multi-choice","trial_index":5,"time_elapsed":205649,"internal_node_id":"0.0-5.0-0.0"},{"rt":3195.2999999970198,"response":{"pregunta8 likert":2},"question_order":[0],"trial_type":"survey-likert","trial_index":6,"time_elapsed":208853,"internal_node_id":"0.0-5.0-1.0"},{"rt":116742.79999999702,"responses":"{\"pregunta13\":\"a) Por el riesgo que corren diariamente, los bomberos deberían tener mejores condiciones de seguridad.\"}","question_order":"[0]","trial_type":"survey-multi-choice","trial_index":7,"time_elapsed":325603,"internal_node_id":"0.0-5.0-2.0"},{"rt":1496.6000000089407,"response":{"pregunta13 likert":2},"question_order":[0],"trial_type":"survey-likert","trial_index":8,"time_elapsed":327106,"internal_node_id":"0.0-5.0-3.0"},{"rt":69928.39999999106,"responses":"{\"pregunta16\":\"d) llevan un control grupal de su embarazo.\"}","question_order":"[0]","trial_type":"survey-multi-choice","trial_index":9,"time_elapsed":397040,"internal_node_id":"0.0-5.0-4.0"},{"rt":1399.5,"response":{"pregunta16 likert":1},"question_order":[0],"trial_type":"survey-likert","trial_index":10,"time_elapsed":398447,"internal_node_id":"0.0-5.0-5.0"},{"rt":65098.5,"responses":"{\"pregunta20\":\"a) para el mexicano, la muerte es cotidiana.\"}","question_order":"[0]","trial_type":"survey-multi-choice","trial_index":11,"time_elapsed":463550,"internal_node_id":"0.0-5.0-6.0"},{"rt":2520.5999999940395,"response":{"pregunta20 likert":3},"question_order":[0],"trial_type":"survey-likert","trial_index":12,"time_elapsed":466076,"internal_node_id":"0.0-5.0-7.0"},{"rt":180876,"responses":"{\"pregunta17\":\"a) Nuestra economía vivirá un proceso de ajuste a la nueva realidad.\"}","question_order":"[0]","trial_type":"survey-multi-choice","trial_index":13,"time_elapsed":646959,"internal_node_id":"0.0-5.0-8.0"},{"rt":1391.2000000029802,"response":{"pregunta17 likert":2},"question_order":[0],"trial_type":"survey-likert","trial_index":14,"time_elapsed":648359,"internal_node_id":"0.0-5.0-9.0"},{"rt":134329.20000000298,"responses":"{\"pregunta6\":\"c) preparar los recuerdos del mañana.\"}","question_order":"[0]","trial_type":"survey-multi-choice","trial_index":15,"time_elapsed":782697,"internal_node_id":"0.0-5.0-10.0"},{"rt":1523.1000000089407,"response":{"pregunta6 likert":2},"question_order":[0],"trial_type":"survey-likert","trial_index":16,"time_elapsed":784228,"internal_node_id":"0.0-5.0-11.0"},{"rt":82326.90000000596,"responses":"{\"pregunta7\":\"c) ritualistas y obsesivos.\"}","question_order":"[0]","trial_type":"survey-multi-choice","trial_index":17,"time_elapsed":866561,"internal_node_id":"0.0-5.0-12.0"},{"rt":2414.4000000059605,"response":{"pregunta7 likert":2},"question_order":[0],"trial_type":"survey-likert","trial_index":18,"time_elapsed":868984,"internal_node_id":"0.0-5.0-13.0"},{"rt":37137.60000000894,"responses":"{\"pregunta2\":\"c) A la relación entre sociedad y constitución social.\"}","question_order":"[0]","trial_type":"survey-multi-choice","trial_index":19,"time_elapsed":906127,"internal_node_id":"0.0-5.0-14.0"},{"rt":1052.9000000059605,"response":{"pregunta2 likert":2},"question_order":[0],"trial_type":"survey-likert","trial_index":20,"time_elapsed":907186,"internal_node_id":"0.0-5.0-15.0"},{"rt":193258.80000001192,"responses":"{\"pregunta9\":\"d) Homenajear a quienes murieron.\"}","question_order":"[0]","trial_type":"survey-multi-choice","trial_index":21,"time_elapsed":1100449,"internal_node_id":"0.0-5.0-16.0"},{"rt":1275.7999999970198,"response":{"pregunta9 likert":2},"question_order":[0],"trial_type":"survey-likert","trial_index":22,"time_elapsed":1101730,"internal_node_id":"0.0-5.0-17.0"},{"rt":104433.20000000298,"responses":"{\"pregunta3\":\"e) En los viajes es esencial el momento mismo de la escritura.\"}","question_order":"[0]","trial_type":"survey-multi-choice","trial_index":23,"time_elapsed":1206169,"internal_node_id":"0.0-5.0-18.0"},{"rt":1772,"response":{"pregunta3 likert":2},"question_order":[0],"trial_type":"survey-likert","trial_index":24,"time_elapsed":1207947,"internal_node_id":"0.0-5.0-19.0"},{"rt":52136,"responses":"{\"pregunta19\":\"b) la Muerte acostumbraba a aparecer en Ispahán.\"}","question_order":"[0]","trial_type":"survey-multi-choice","trial_index":25,"time_elapsed":1260088,"internal_node_id":"0.0-5.0-20.0"},{"rt":1944.2000000029802,"response":{"pregunta19 likert":1},"question_order":[0],"trial_type":"survey-likert","trial_index":26,"time_elapsed":1262038,"internal_node_id":"0.0-5.0-21.0"},{"rt":52258.79999999702,"responses":"{\"pregunta5\":\"a) El concepto de normalidad es diferente para un psiquiatra que para nosotros.\"}","question_order":"[0]","trial_type":"survey-multi-choice","trial_index":27,"time_elapsed":1314305,"internal_node_id":"0.0-5.0-22.0"},{"rt":1532.4000000059605,"response":{"pregunta5 likert":3},"question_order":[0],"trial_type":"survey-likert","trial_index":28,"time_elapsed":1315843,"internal_node_id":"0.0-5.0-23.0"},{"rt":152359.59999999404,"responses":"{\"pregunta10\":\"d) Al premio merecido después de tantos esfuerzos.\"}","question_order":"[0]","trial_type":"survey-multi-choice","trial_index":29,"time_elapsed":1468209,"internal_node_id":"0.0-5.0-24.0"},{"rt":1093.7999999970198,"response":{"pregunta10 likert":2},"question_order":[0],"trial_type":"survey-likert","trial_index":30,"time_elapsed":1469308,"internal_node_id":"0.0-5.0-25.0"},{"rt":137332.5,"responses":"{\"pregunta4\":\"c) Criticar la mezcla de estilos que se puede observar en la muestra que exhibe Casa Mater.\"}","question_order":"[0]","trial_type":"survey-multi-choice","trial_index":31,"time_elapsed":1606646,"internal_node_id":"0.0-5.0-26.0"},{"rt":1027.2999999970198,"response":{"pregunta4 likert":2},"question_order":[0],"trial_type":"survey-likert","trial_index":32,"time_elapsed":1607679,"internal_node_id":"0.0-5.0-27.0"},{"rt":90747.79999999702,"responses":"{\"pregunta15\":\"a) El receptor es el que posee la decisión sobre la publicidad.\"}","question_order":"[0]","trial_type":"survey-multi-choice","trial_index":33,"time_elapsed":1698435,"internal_node_id":"0.0-5.0-28.0"},{"rt":1607,"response":{"pregunta15 likert":2},"question_order":[0],"trial_type":"survey-likert","trial_index":34,"time_elapsed":1700047,"internal_node_id":"0.0-5.0-29.0"},{"rt":4000.5999999940395,"responses":"{\"pregunta12\":\"c) la creación de elementos químicos es altamente contaminante.\"}","question_order":"[0]","trial_type":"survey-multi-choice","trial_index":35,"time_elapsed":1704054,"internal_node_id":"0.0-5.0-30.0"},{"rt":1049.7000000029802,"response":{"pregunta12 likert":2},"question_order":[0],"trial_type":"survey-likert","trial_index":36,"time_elapsed":1705109,"internal_node_id":"0.0-5.0-31.0"},{"rt":1978.3999999910593,"responses":"{\"pregunta18\":\"a) Se necesita un marco legal para delimitar lo público y lo privado en materia informativa.\"}","question_order":"[0]","trial_type":"survey-multi-choice","trial_index":37,"time_elapsed":1707093,"internal_node_id":"0.0-5.0-32.0"},{"rt":2089.8999999910593,"response":{"pregunta18 likert":2},"question_order":[0],"trial_type":"survey-likert","trial_index":38,"time_elapsed":1709188,"internal_node_id":"0.0-5.0-33.0"},{"rt":3456.7999999970198,"responses":"{\"pregunta14\":\"d) Al orden de la productora para no turistear por el país.\"}","question_order":"[0]","trial_type":"survey-multi-choice","trial_index":39,"time_elapsed":1712650,"internal_node_id":"0.0-5.0-34.0"},{"rt":1188.2000000029802,"response":{"pregunta14 likert":2},"question_order":[0],"trial_type":"survey-likert","trial_index":40,"time_elapsed":1713845,"internal_node_id":"0.0-5.0-35.0"},{"rt":67557.20000000298,"responses":"{\"pregunta11\":\"d) el mejor emperador es el que está muerto.\"}","question_order":"[0]","trial_type":"survey-multi-choice","trial_index":41,"time_elapsed":1781407,"internal_node_id":"0.0-5.0-36.0"},{"rt":2027.7000000029802,"response":{"pregunta11 likert":3},"question_order":[0],"trial_type":"survey-likert","trial_index":42,"time_elapsed":1783441,"internal_node_id":"0.0-5.0-37.0"},{"rt":27619,"responses":"{\"pregunta1\":\"a) Muestran las opiniones expuestas por los personajes en un relato.\"}","question_order":"[0]","trial_type":"survey-multi-choice","trial_index":43,"time_elapsed":1811067,"internal_node_id":"0.0-5.0-38.0"},{"rt":1152.2999999970198,"response":{"pregunta1 likert":2},"question_order":[0],"trial_type":"survey-likert","trial_index":44,"time_elapsed":1812226,"internal_node_id":"0.0-5.0-39.0"},{"rt":693.8000000119209,"stimulus":"<p style=\"font-size: 120%\">Gracias por completar esta etapa del estudio. Ahora te invitamos a responder el cuestionario.<br><br></p>","response":0,"trial_type":"html-button-response","trial_index":45,"time_elapsed":1812931,"internal_node_id":"0.0-6.0"},{"rt":3933.7000000029802,"stimulus":"<h1 style=\"margin-top: 5%\">Cuestionario para la Evaluación de Metas Académicas</h1><p style=\"font-size: 120%; margin-left: 3%; margin-top: 5%\">Este es un cuestionario que permite conocer cuáles son los principales motivos por los que los estudiantes se esfuerzan en su trabajo académico. A continuación, se te presentarán una serie de afirmaciones acerca de los motivos que puedes tener para estudiar.<br>Te pedimos que contestes a dichas afirmaciones reflexionando sobre el contenido de cada una de ellas, que, aunque te parezcan semejantes, en realidad, no lo son.<br>NO HAY RESPUESTAS CORRECTAS o INCORRECTAS, sólo queremos que respondas con la mayor precisión y sinceridad posible a las preguntas que se plantean.","response":0,"trial_type":"html-button-response","trial_index":46,"time_elapsed":1816868,"internal_node_id":"0.0-7.0"},{"rt":74540.89999999106,"response":{"Metas cuestionario pregunta1":4,"Metas cuestionario pregunta2":4,"Metas cuestionario pregunta3":4,"Metas cuestionario pregunta4":2,"Metas cuestionario pregunta5":4,"Metas cuestionario pregunta6":3,"Metas cuestionario pregunta7":4,"Metas cuestionario pregunta8":4,"Metas cuestionario pregunta9":3,"Metas cuestionario pregunta10":2,"Metas cuestionario pregunta11":0,"Metas cuestionario pregunta12":2,"Metas cuestionario pregunta13":0,"Metas cuestionario pregunta14":0,"Metas cuestionario pregunta15":4,"Metas cuestionario pregunta16":4,"Metas cuestionario pregunta17":4,"Metas cuestionario pregunta18":4,"Metas cuestionario pregunta19":4,"Metas cuestionario pregunta20":4},"question_order":[0,1,2,3,4,5,6,7,8,9,10,11,12,13,14,15,16,17,18,19],"trial_type":"survey-likert","trial_index":47,"time_elapsed":1891422,"internal_node_id":"0.0-8.0"}]