[{"rt":3567.300000000745,"stimulus":"<h1 style=\"color:red; margin-top: 3%;\">¡Bienvenido(a)!</h1><p style=\"text-align:left; justify-content:space-between; margin-right: 5%; margin-left: 5%; margin-top: 5%\"> Antes de empezar el estudio, necesitamos que nos confirmes que estás de acuerdo con participar. Recuerda que tu participación es 100% voluntaria y que lo único que te pedimos es responder lo mejor que puedas. Recuerda también que el estudio incluye:</p><ol style=\"text-align:left; justify-content:space-between; margin-right: 5%; margin-left: 5%;\"><li> un ejercicio de resolución de preguntas de selección múltiple (30’),</li><li>un cuestionario breve (5’),</li><li>un juego muy breve (3’),</li></ol><p style=\"text-align:left; justify-content:space-between; margin-right: 5%; margin-left: 5%;\">Si quieres participar, haz clic en “Acepto” luego de leer lo siguiente:<br></p><p style=\"text-align:left; justify-content:space-between; margin-right: 5%; margin-left: 5%;\">Acepto participar en el estudio “Estrategias de lectura y resolución de preguntas de selección múltiple”, en los términos aquí señalados:<br></p><p style=\"text-align:left; justify-content:space-between; margin-right: 5%; margin-left: 5%;\"><a href=\"http://ciae.uchile.cl/download.php?file=noticias/Asentimiento.pdf\" target=\"_blank\">Link a la hoja de información del Consentimiento.</a></p><p style=\"text-align:left; justify-content:space-between; margin-right: 5%; margin-left: 5%;\">Declaro que he leído (o se me ha leído) y (he) comprendido, las condiciones de mi participación en este estudio. He tenido la oportunidad de hacer preguntas y éstas han sido respondidas. No tengo dudas al respecto.</p>","response":0,"condicion_MCQ":14,"condicion_JUEGO":94,"condicion_INTER":22,"numero_participante":94,"numero_version":1,"dimx":1440,"dimy":900,"color_profundidad":24,"pixel_profundidad":24,"Browser":"Google Chrome","dia":24,"mes":5,"hora":14,"minuto":31,"segundo":52,"trial_type":"html-button-response","trial_index":0,"time_elapsed":3571,"internal_node_id":"0.0-0.0"},{"success":true,"trial_type":"fullscreen","trial_index":1,"time_elapsed":5681,"internal_node_id":"0.0-1.0"},{"rt":76049.5,"responses":"{\"Nombres\":\"maria jose \",\"Apellidos\":\"hamed moncada\",\"Edad\":\"31\",\"Sexo\":\"mujer\",\"Curso\":\"neurobiologia /psicologia \",\"Colegio\":\"universidad andres bello\",\"Contacto\":\"cote.hamed@gmail.com\"}","trial_type":"survey-text","trial_index":2,"time_elapsed":81739,"internal_node_id":"0.0-2.0"},{"success":true,"timeout":false,"failed_images":[],"failed_audio":[],"failed_video":[],"trial_type":"preload","trial_index":3,"time_elapsed":82715,"internal_node_id":"0.0-3.0"},{"rt":10054.299999999814,"stimulus":"<h1 style:\"margin-top: 5%;\">Ejercicios de Comprensión de Lectura de la Universidad de Chile</h1><p style=\"font-size: 120%;\">En esta actividad, debes responder 20 preguntas de selección múltiple. Cada pregunta presenta 5 respuestas alternativas, pero sólo una de ellas es correcta. Por lo tanto, debes escoger una sola alternativa para cada pregunta. Además, debes reportar qué tan seguro(a) estás de la respuesta que das, con un:</p><ol style=\"font-size: 120%;text-align:left;margin-left: 40%;\"><li>No estoy seguro(a) para nada</li><li>No estoy muy seguro(a)</li><li>Estoy bastante seguro(a)</li><li>Estoy totalmente seguro(a)</li></ol><p style=\"font-size: 120%;\">Por favor lee bien los enunciados antes de responder. ¡Éxito!</p>","response":0,"trial_type":"html-button-response","trial_index":4,"time_elapsed":92771,"internal_node_id":"0.0-4.0"},{"rt":94745.29999999981,"responses":"{\"pregunta3\":\"d) Los momentos triviales de los viajes, en la escritura se vuelven significativos.\"}","question_order":"[0]","trial_type":"survey-multi-choice","trial_index":5,"time_elapsed":187522,"internal_node_id":"0.0-5.0-0.0"},{"rt":3781.7000000001863,"response":{"pregunta3 likert":2},"question_order":[0],"trial_type":"survey-likert","trial_index":6,"time_elapsed":191306,"internal_node_id":"0.0-5.0-1.0"},{"rt":128729.79999999981,"responses":"{\"pregunta15\":\"a) El receptor es el que posee la decisión sobre la publicidad.\"}","question_order":"[0]","trial_type":"survey-multi-choice","trial_index":7,"time_elapsed":320042,"internal_node_id":"0.0-5.0-2.0"},{"rt":3291.9000000003725,"response":{"pregunta15 likert":1},"question_order":[0],"trial_type":"survey-likert","trial_index":8,"time_elapsed":323336,"internal_node_id":"0.0-5.0-3.0"},{"rt":55068.59999999963,"responses":"{\"pregunta5\":\"e) El ser humano se comporta de acuerdo con las circunstancias.\"}","question_order":"[0]","trial_type":"survey-multi-choice","trial_index":9,"time_elapsed":378409,"internal_node_id":"0.0-5.0-4.0"},{"rt":3103.7999999998137,"response":{"pregunta5 likert":2},"question_order":[0],"trial_type":"survey-likert","trial_index":10,"time_elapsed":381515,"internal_node_id":"0.0-5.0-5.0"},{"rt":69185,"responses":"{\"pregunta1\":\"d) Aportan informaciones con las que se reconstruye el personaje dentro de un relato.\"}","question_order":"[0]","trial_type":"survey-multi-choice","trial_index":11,"time_elapsed":450704,"internal_node_id":"0.0-5.0-6.0"},{"rt":2241.7000000001863,"response":{"pregunta1 likert":2},"question_order":[0],"trial_type":"survey-likert","trial_index":12,"time_elapsed":452947,"internal_node_id":"0.0-5.0-7.0"},{"rt":145439.09999999963,"responses":"{\"pregunta11\":\"a) el mejor emperador es el que está muerto.\"}","question_order":"[0]","trial_type":"survey-multi-choice","trial_index":13,"time_elapsed":598392,"internal_node_id":"0.0-5.0-8.0"},{"rt":2843.399999999441,"response":{"pregunta11 likert":1},"question_order":[0],"trial_type":"survey-likert","trial_index":14,"time_elapsed":601237,"internal_node_id":"0.0-5.0-9.0"},{"rt":154780.39999999944,"responses":"{\"pregunta19\":\"e) la Muerte vaticina el futuro mediante gestos.\"}","question_order":"[0]","trial_type":"survey-multi-choice","trial_index":15,"time_elapsed":756033,"internal_node_id":"0.0-5.0-10.0"},{"rt":6113.799999999814,"response":{"pregunta19 likert":1},"question_order":[0],"trial_type":"survey-likert","trial_index":16,"time_elapsed":762149,"internal_node_id":"0.0-5.0-11.0"},{"rt":84970.59999999963,"responses":"{\"pregunta6\":\"d) la persistencia de la melancolía y la desesperanza.\"}","question_order":"[0]","trial_type":"survey-multi-choice","trial_index":17,"time_elapsed":847124,"internal_node_id":"0.0-5.0-12.0"},{"rt":2647.2000000001863,"response":{"pregunta6 likert":1},"question_order":[0],"trial_type":"survey-likert","trial_index":18,"time_elapsed":849773,"internal_node_id":"0.0-5.0-13.0"},{"rt":102362.70000000019,"responses":"{\"pregunta13\":\"d) Se debe crear un seguro médico especial para esta institución, pues es de alto riesgo.\"}","question_order":"[0]","trial_type":"survey-multi-choice","trial_index":19,"time_elapsed":952141,"internal_node_id":"0.0-5.0-14.0"},{"rt":2647.7999999998137,"response":{"pregunta13 likert":2},"question_order":[0],"trial_type":"survey-likert","trial_index":20,"time_elapsed":954791,"internal_node_id":"0.0-5.0-15.0"},{"rt":75525.20000000019,"responses":"{\"pregunta14\":\"b) A la influencia de grupos que rechazaban su música.\"}","question_order":"[0]","trial_type":"survey-multi-choice","trial_index":21,"time_elapsed":1030321,"internal_node_id":"0.0-5.0-16.0"},{"rt":3952.5999999996275,"response":{"pregunta14 likert":2},"question_order":[0],"trial_type":"survey-likert","trial_index":22,"time_elapsed":1034275,"internal_node_id":"0.0-5.0-17.0"},{"rt":68934.20000000019,"responses":"{\"pregunta17\":\"c) Nuestra economía vivirá un proceso de ajuste a la nueva realidad.\"}","question_order":"[0]","trial_type":"survey-multi-choice","trial_index":23,"time_elapsed":1103213,"internal_node_id":"0.0-5.0-18.0"},{"rt":3129.5999999996275,"response":{"pregunta17 likert":1},"question_order":[0],"trial_type":"survey-likert","trial_index":24,"time_elapsed":1106345,"internal_node_id":"0.0-5.0-19.0"},{"rt":91470.79999999981,"responses":"{\"pregunta8\":\"a) Provocar el deseo de la adquisición vertiginosa.\"}","question_order":"[0]","trial_type":"survey-multi-choice","trial_index":25,"time_elapsed":1197820,"internal_node_id":"0.0-5.0-20.0"},{"rt":2383.2999999998137,"response":{"pregunta8 likert":1},"question_order":[0],"trial_type":"survey-likert","trial_index":26,"time_elapsed":1200206,"internal_node_id":"0.0-5.0-21.0"},{"rt":61089.200000000186,"responses":"{\"pregunta12\":\"a) la creación de elementos químicos artificiales ha resultado de la manipulación del uranio.\"}","question_order":"[0]","trial_type":"survey-multi-choice","trial_index":27,"time_elapsed":1261298,"internal_node_id":"0.0-5.0-22.0"},{"rt":2803.800000000745,"response":{"pregunta12 likert":2},"question_order":[0],"trial_type":"survey-likert","trial_index":28,"time_elapsed":1264104,"internal_node_id":"0.0-5.0-23.0"},{"rt":73912.59999999963,"responses":"{\"pregunta7\":\"e) ritualistas y obsesivos.\"}","question_order":"[0]","trial_type":"survey-multi-choice","trial_index":29,"time_elapsed":1338021,"internal_node_id":"0.0-5.0-24.0"},{"rt":2932.5999999996275,"response":{"pregunta7 likert":2},"question_order":[0],"trial_type":"survey-likert","trial_index":30,"time_elapsed":1340956,"internal_node_id":"0.0-5.0-25.0"},{"rt":80657.80000000075,"responses":"{\"pregunta4\":\"e) Promover la asistencia a un evento específico de decoración a través de una atractiva descripción.\"}","question_order":"[0]","trial_type":"survey-multi-choice","trial_index":31,"time_elapsed":1421618,"internal_node_id":"0.0-5.0-26.0"},{"rt":2567.9000000003725,"response":{"pregunta4 likert":2},"question_order":[0],"trial_type":"survey-likert","trial_index":32,"time_elapsed":1424188,"internal_node_id":"0.0-5.0-27.0"},{"rt":134227.09999999963,"responses":"{\"pregunta9\":\"b) Revivir un periodo histórico.\"}","question_order":"[0]","trial_type":"survey-multi-choice","trial_index":33,"time_elapsed":1558421,"internal_node_id":"0.0-5.0-28.0"},{"rt":3047.699999999255,"response":{"pregunta9 likert":0},"question_order":[0],"trial_type":"survey-likert","trial_index":34,"time_elapsed":1561471,"internal_node_id":"0.0-5.0-29.0"},{"rt":71849.5,"responses":"{\"pregunta10\":\"c) A la conveniencia de no postergar el descanso personal.\"}","question_order":"[0]","trial_type":"survey-multi-choice","trial_index":35,"time_elapsed":1633332,"internal_node_id":"0.0-5.0-30.0"},{"rt":3786,"response":{"pregunta10 likert":1},"question_order":[0],"trial_type":"survey-likert","trial_index":36,"time_elapsed":1637120,"internal_node_id":"0.0-5.0-31.0"},{"rt":131531.30000000075,"responses":"{\"pregunta16\":\"c) sufren dolores de espalda.\"}","question_order":"[0]","trial_type":"survey-multi-choice","trial_index":37,"time_elapsed":1768659,"internal_node_id":"0.0-5.0-32.0"},{"rt":3625.9000000003725,"response":{"pregunta16 likert":1},"question_order":[0],"trial_type":"survey-likert","trial_index":38,"time_elapsed":1772287,"internal_node_id":"0.0-5.0-33.0"},{"rt":54213.90000000037,"responses":"{\"pregunta2\":\"d) A la relación entre pensamiento y estructura social.\"}","question_order":"[0]","trial_type":"survey-multi-choice","trial_index":39,"time_elapsed":1826504,"internal_node_id":"0.0-5.0-34.0"},{"rt":3297,"response":{"pregunta2 likert":2},"question_order":[0],"trial_type":"survey-likert","trial_index":40,"time_elapsed":1829803,"internal_node_id":"0.0-5.0-35.0"},{"rt":35030.5,"responses":"{\"pregunta18\":\"c) Se necesita un marco legal para delimitar lo público y lo privado en materia informativa.\"}","question_order":"[0]","trial_type":"survey-multi-choice","trial_index":41,"time_elapsed":1864837,"internal_node_id":"0.0-5.0-36.0"},{"rt":2607.5,"response":{"pregunta18 likert":2},"question_order":[0],"trial_type":"survey-likert","trial_index":42,"time_elapsed":1867446,"internal_node_id":"0.0-5.0-37.0"},{"rt":28501.900000000373,"responses":"{\"pregunta20\":\"d) para el mexicano, la muerte es cotidiana.\"}","question_order":"[0]","trial_type":"survey-multi-choice","trial_index":43,"time_elapsed":1895951,"internal_node_id":"0.0-5.0-38.0"},{"rt":3297.4000000003725,"response":{"pregunta20 likert":2},"question_order":[0],"trial_type":"survey-likert","trial_index":44,"time_elapsed":1899251,"internal_node_id":"0.0-5.0-39.0"}]