[{"rt":2804.9000000059605,"stimulus":"<h1 style=\"color:red; margin-top: 3%;\">¡Bienvenido(a)!</h1><p style=\"text-align:left; justify-content:space-between; margin-right: 5%; margin-left: 5%; margin-top: 5%\"> Antes de empezar el estudio, necesitamos que nos confirmes que estás de acuerdo con participar. Recuerda que tu participación es 100% voluntaria y que lo único que te pedimos es responder lo mejor que puedas. Recuerda también que el estudio incluye:</p><ol style=\"text-align:left; justify-content:space-between; margin-right: 5%; margin-left: 5%;\"><li> un ejercicio de resolución de preguntas de selección múltiple (30’),</li><li>un cuestionario breve (5’),</li><li>un juego muy breve (3’),</li></ol><p style=\"text-align:left; justify-content:space-between; margin-right: 5%; margin-left: 5%;\">Si quieres participar, haz clic en “Acepto” luego de leer lo siguiente:<br></p><p style=\"text-align:left; justify-content:space-between; margin-right: 5%; margin-left: 5%;\">Acepto participar en el estudio “Estrategias de lectura y resolución de preguntas de selección múltiple”, en los términos aquí señalados:<br></p><p style=\"text-align:left; justify-content:space-between; margin-right: 5%; margin-left: 5%;\"><a href=\"http://ciae.uchile.cl/download.php?file=noticias/Asentimiento.pdf\" target=\"_blank\">Link a la hoja de información del Consentimiento.</a></p><p style=\"text-align:left; justify-content:space-between; margin-right: 5%; margin-left: 5%;\">Declaro que he leído (o se me ha leído) y (he) comprendido, las condiciones de mi participación en este estudio. He tenido la oportunidad de hacer preguntas y éstas han sido respondidas. No tengo dudas al respecto.</p>","response":0,"condicion_MCQ":9,"condicion_JUEGO":89,"condicion_INTER":17,"numero_participante":89,"numero_version":1,"dimx":1366,"dimy":768,"color_profundidad":24,"pixel_profundidad":24,"Browser":"Google Chrome","dia":23,"mes":5,"hora":20,"minuto":1,"segundo":14,"trial_type":"html-button-response","trial_index":0,"time_elapsed":2813,"internal_node_id":"0.0-0.0"},{"success":true,"trial_type":"fullscreen","trial_index":1,"time_elapsed":5210,"internal_node_id":"0.0-1.0"},{"rt":72095.70000001788,"responses":"{\"Nombres\":\"Constanza Javiera\",\"Apellidos\":\"Cubillos Garrido\",\"Edad\":\"19\",\"Sexo\":\"Mujer\",\"Curso\":\"201\",\"Colegio\":\"Universidad Andrés Bello\",\"Contacto\":\"C.cubillosgarrido@uandresbello.edu\"}","trial_type":"survey-text","trial_index":2,"time_elapsed":77334,"internal_node_id":"0.0-2.0"},{"success":true,"timeout":false,"failed_images":[],"failed_audio":[],"failed_video":[],"trial_type":"preload","trial_index":3,"time_elapsed":79776,"internal_node_id":"0.0-3.0"},{"rt":22626.40000000596,"stimulus":"<h1 style:\"margin-top: 5%;\">Ejercicios de Comprensión de Lectura de la Universidad de Chile</h1><p style=\"font-size: 120%;\">En esta actividad, debes responder 20 preguntas de selección múltiple. Cada pregunta presenta 5 respuestas alternativas, pero sólo una de ellas es correcta. Por lo tanto, debes escoger una sola alternativa para cada pregunta. Además, debes reportar qué tan seguro(a) estás de la respuesta que das, con un:</p><ol style=\"font-size: 120%;text-align:left;margin-left: 40%;\"><li>No estoy seguro(a) para nada</li><li>No estoy muy seguro(a)</li><li>Estoy bastante seguro(a)</li><li>Estoy totalmente seguro(a)</li></ol><p style=\"font-size: 120%;\">Por favor lee bien los enunciados antes de responder. ¡Éxito!</p>","response":0,"trial_type":"html-button-response","trial_index":4,"time_elapsed":102406,"internal_node_id":"0.0-4.0"},{"rt":84061.70000001788,"responses":"{\"pregunta16\":\"a) sufren dolores de espalda.\"}","question_order":"[0]","trial_type":"survey-multi-choice","trial_index":5,"time_elapsed":186473,"internal_node_id":"0.0-5.0-0.0"},{"rt":2902.600000023842,"response":{"pregunta16 likert":3},"question_order":[0],"trial_type":"survey-likert","trial_index":6,"time_elapsed":189382,"internal_node_id":"0.0-5.0-1.0"},{"rt":93086.59999999404,"responses":"{\"pregunta19\":\"b) el jardinero estará muerto al día siguiente.\"}","question_order":"[0]","trial_type":"survey-multi-choice","trial_index":7,"time_elapsed":282474,"internal_node_id":"0.0-5.0-2.0"},{"rt":4788,"response":{"pregunta19 likert":2},"question_order":[0],"trial_type":"survey-likert","trial_index":8,"time_elapsed":287268,"internal_node_id":"0.0-5.0-3.0"},{"rt":88085.69999998808,"responses":"{\"pregunta17\":\"a) El TLC causará una completa transformación de la economía chilena.\"}","question_order":"[0]","trial_type":"survey-multi-choice","trial_index":9,"time_elapsed":375358,"internal_node_id":"0.0-5.0-4.0"},{"rt":6902.0999999940395,"response":{"pregunta17 likert":1},"question_order":[0],"trial_type":"survey-likert","trial_index":10,"time_elapsed":382265,"internal_node_id":"0.0-5.0-5.0"},{"rt":38789,"responses":"{\"pregunta9\":\"e) Homenajear a quienes murieron.\"}","question_order":"[0]","trial_type":"survey-multi-choice","trial_index":11,"time_elapsed":421060,"internal_node_id":"0.0-5.0-6.0"},{"rt":2312.5999999940395,"response":{"pregunta9 likert":3},"question_order":[0],"trial_type":"survey-likert","trial_index":12,"time_elapsed":423378,"internal_node_id":"0.0-5.0-7.0"},{"rt":120050.5,"responses":"{\"pregunta1\":\"c) Aportan informaciones con las que se reconstruye el personaje dentro de un relato.\"}","question_order":"[0]","trial_type":"survey-multi-choice","trial_index":13,"time_elapsed":543435,"internal_node_id":"0.0-5.0-8.0"},{"rt":2764.5,"response":{"pregunta1 likert":1},"question_order":[0],"trial_type":"survey-likert","trial_index":14,"time_elapsed":546205,"internal_node_id":"0.0-5.0-9.0"},{"rt":89361.40000000596,"responses":"{\"pregunta8\":\"d) Provocar el deseo de la adquisición vertiginosa.\"}","question_order":"[0]","trial_type":"survey-multi-choice","trial_index":15,"time_elapsed":635571,"internal_node_id":"0.0-5.0-10.0"},{"rt":2235.7999999821186,"response":{"pregunta8 likert":2},"question_order":[0],"trial_type":"survey-likert","trial_index":16,"time_elapsed":637812,"internal_node_id":"0.0-5.0-11.0"},{"rt":80813.90000000596,"responses":"{\"pregunta4\":\"e) Presentar positivamente las diversas tendencias del diseño de interiores a través de un comentario.\"}","question_order":"[0]","trial_type":"survey-multi-choice","trial_index":17,"time_elapsed":718633,"internal_node_id":"0.0-5.0-12.0"},{"rt":2526.2000000178814,"response":{"pregunta4 likert":2},"question_order":[0],"trial_type":"survey-likert","trial_index":18,"time_elapsed":721166,"internal_node_id":"0.0-5.0-13.0"},{"rt":121452.30000001192,"responses":"{\"pregunta11\":\"e) el mejor emperador es el que está muerto.\"}","question_order":"[0]","trial_type":"survey-multi-choice","trial_index":19,"time_elapsed":842624,"internal_node_id":"0.0-5.0-14.0"},{"rt":3766.399999976158,"response":{"pregunta11 likert":1},"question_order":[0],"trial_type":"survey-likert","trial_index":20,"time_elapsed":846395,"internal_node_id":"0.0-5.0-15.0"},{"rt":64677.5,"responses":"{\"pregunta3\":\"c) Los momentos triviales de los viajes, en la escritura se vuelven significativos.\"}","question_order":"[0]","trial_type":"survey-multi-choice","trial_index":21,"time_elapsed":911079,"internal_node_id":"0.0-5.0-16.0"},{"rt":2031,"response":{"pregunta3 likert":2},"question_order":[0],"trial_type":"survey-likert","trial_index":22,"time_elapsed":913115,"internal_node_id":"0.0-5.0-17.0"},{"rt":66790.59999999404,"responses":"{\"pregunta12\":\"c) la creación de elementos químicos es altamente contaminante.\"}","question_order":"[0]","trial_type":"survey-multi-choice","trial_index":23,"time_elapsed":979913,"internal_node_id":"0.0-5.0-18.0"},{"rt":2302.9000000059605,"response":{"pregunta12 likert":3},"question_order":[0],"trial_type":"survey-likert","trial_index":24,"time_elapsed":982224,"internal_node_id":"0.0-5.0-19.0"},{"rt":134661,"responses":"{\"pregunta13\":\"a) Bomberos debería tener acceso a un seguro médico, al que pueda recurrir en caso de accidente.\"}","question_order":"[0]","trial_type":"survey-multi-choice","trial_index":25,"time_elapsed":1116891,"internal_node_id":"0.0-5.0-20.0"},{"rt":1655.6000000238419,"response":{"pregunta13 likert":3},"question_order":[0],"trial_type":"survey-likert","trial_index":26,"time_elapsed":1118551,"internal_node_id":"0.0-5.0-21.0"},{"rt":57272.10000002384,"responses":"{\"pregunta7\":\"d) ritualistas y obsesivos.\"}","question_order":"[0]","trial_type":"survey-multi-choice","trial_index":27,"time_elapsed":1175829,"internal_node_id":"0.0-5.0-22.0"},{"rt":2263.5,"response":{"pregunta7 likert":3},"question_order":[0],"trial_type":"survey-likert","trial_index":28,"time_elapsed":1178097,"internal_node_id":"0.0-5.0-23.0"},{"rt":44893.59999999404,"responses":"{\"pregunta18\":\"b) Se necesita un marco legal para delimitar lo público y lo privado en materia informativa.\"}","question_order":"[0]","trial_type":"survey-multi-choice","trial_index":29,"time_elapsed":1223004,"internal_node_id":"0.0-5.0-24.0"},{"rt":2195.2000000178814,"response":{"pregunta18 likert":3},"question_order":[0],"trial_type":"survey-likert","trial_index":30,"time_elapsed":1225204,"internal_node_id":"0.0-5.0-25.0"},{"rt":49765.5,"responses":"{\"pregunta6\":\"b) un recuerdo nostálgico.\"}","question_order":"[0]","trial_type":"survey-multi-choice","trial_index":31,"time_elapsed":1274977,"internal_node_id":"0.0-5.0-26.0"},{"rt":2036,"response":{"pregunta6 likert":3},"question_order":[0],"trial_type":"survey-likert","trial_index":32,"time_elapsed":1277018,"internal_node_id":"0.0-5.0-27.0"},{"rt":34766.59999999404,"responses":"{\"pregunta20\":\"e) la muerte es distinta en las grandes ciudades.\"}","question_order":"[0]","trial_type":"survey-multi-choice","trial_index":33,"time_elapsed":1311789,"internal_node_id":"0.0-5.0-28.0"},{"rt":2060.5999999940395,"response":{"pregunta20 likert":3},"question_order":[0],"trial_type":"survey-likert","trial_index":34,"time_elapsed":1313854,"internal_node_id":"0.0-5.0-29.0"},{"rt":114394.30000001192,"responses":"{\"pregunta5\":\"a) El concepto de normalidad es diferente para un psiquiatra que para nosotros.\"}","question_order":"[0]","trial_type":"survey-multi-choice","trial_index":35,"time_elapsed":1428254,"internal_node_id":"0.0-5.0-30.0"},{"rt":2002.800000011921,"response":{"pregunta5 likert":3},"question_order":[0],"trial_type":"survey-likert","trial_index":36,"time_elapsed":1430261,"internal_node_id":"0.0-5.0-31.0"},{"rt":69951.79999998212,"responses":"{\"pregunta15\":\"a) El receptor es habitualmente pasivo frente a la publicidad.\"}","question_order":"[0]","trial_type":"survey-multi-choice","trial_index":37,"time_elapsed":1500217,"internal_node_id":"0.0-5.0-32.0"},{"rt":1259.5,"response":{"pregunta15 likert":3},"question_order":[0],"trial_type":"survey-likert","trial_index":38,"time_elapsed":1501486,"internal_node_id":"0.0-5.0-33.0"},{"rt":53622.19999998808,"responses":"{\"pregunta14\":\"a) A la influencia de grupos que rechazaban su música.\"}","question_order":"[0]","trial_type":"survey-multi-choice","trial_index":39,"time_elapsed":1555113,"internal_node_id":"0.0-5.0-34.0"},{"rt":1976.6000000238419,"response":{"pregunta14 likert":2},"question_order":[0],"trial_type":"survey-likert","trial_index":40,"time_elapsed":1557094,"internal_node_id":"0.0-5.0-35.0"},{"rt":62641.59999999404,"responses":"{\"pregunta10\":\"e) Al premio merecido después de tantos esfuerzos.\"}","question_order":"[0]","trial_type":"survey-multi-choice","trial_index":41,"time_elapsed":1619740,"internal_node_id":"0.0-5.0-36.0"},{"rt":2084,"response":{"pregunta10 likert":1},"question_order":[0],"trial_type":"survey-likert","trial_index":42,"time_elapsed":1621829,"internal_node_id":"0.0-5.0-37.0"},{"rt":85815.40000000596,"responses":"{\"pregunta2\":\"c) A la relación entre pensamiento y estructura social.\"}","question_order":"[0]","trial_type":"survey-multi-choice","trial_index":43,"time_elapsed":1707654,"internal_node_id":"0.0-5.0-38.0"},{"rt":1798.5,"response":{"pregunta2 likert":1},"question_order":[0],"trial_type":"survey-likert","trial_index":44,"time_elapsed":1709457,"internal_node_id":"0.0-5.0-39.0"}]