[{"rt":21961.39999999851,"stimulus":"<h1 style=\"color:red; margin-top: 3%;\">¡Bienvenido(a)!</h1><p style=\"text-align:left; justify-content:space-between; margin-right: 5%; margin-left: 5%; margin-top: 5%\"> Antes de empezar el estudio, necesitamos que nos confirmes que estás de acuerdo con participar. Recuerda que tu participación es 100% voluntaria y que lo único que te pedimos es responder lo mejor que puedas. Recuerda también que el estudio incluye:</p><ol style=\"text-align:left; justify-content:space-between; margin-right: 5%; margin-left: 5%;\"><li> un ejercicio de resolución de preguntas de selección múltiple (30’),</li><li>un cuestionario breve (5’),</li><li>un juego muy breve (3’),</li></ol><p style=\"text-align:left; justify-content:space-between; margin-right: 5%; margin-left: 5%;\">Si quieres participar, haz clic en “Acepto” luego de leer lo siguiente:<br></p><p style=\"text-align:left; justify-content:space-between; margin-right: 5%; margin-left: 5%;\">Acepto participar en el estudio “Estrategias de lectura y resolución de preguntas de selección múltiple”, en los términos aquí señalados:<br></p><p style=\"text-align:left; justify-content:space-between; margin-right: 5%; margin-left: 5%;\"><a href=\"http://ciae.uchile.cl/download.php?file=noticias/Asentimiento.pdf\" target=\"_blank\">Link a la hoja de información del Consentimiento.</a></p><p style=\"text-align:left; justify-content:space-between; margin-right: 5%; margin-left: 5%;\">Declaro que he leído (o se me ha leído) y (he) comprendido, las condiciones de mi participación en este estudio. He tenido la oportunidad de hacer preguntas y éstas han sido respondidas. No tengo dudas al respecto.</p>","response":0,"condicion_MCQ":7,"condicion_JUEGO":87,"condicion_INTER":15,"numero_participante":87,"numero_version":1,"dimx":1440,"dimy":900,"color_profundidad":30,"pixel_profundidad":30,"Browser":"Google Chrome","dia":23,"mes":5,"hora":18,"minuto":19,"segundo":45,"trial_type":"html-button-response","trial_index":0,"time_elapsed":21964,"internal_node_id":"0.0-0.0"},{"success":true,"trial_type":"fullscreen","trial_index":1,"time_elapsed":29076,"internal_node_id":"0.0-1.0"},{"rt":49717.30000000447,"responses":"{\"Nombres\":\"Josefa Antonia\",\"Apellidos\":\"Tassara Alfaro\",\"Edad\":\"18\",\"Sexo\":\"mujer\",\"Curso\":\"201\",\"Colegio\":\"Universidad\",\"Contacto\":\"j.tassaraalfaro@uandresbello.edu\"}","trial_type":"survey-text","trial_index":2,"time_elapsed":78804,"internal_node_id":"0.0-2.0"},{"success":true,"timeout":false,"failed_images":[],"failed_audio":[],"failed_video":[],"trial_type":"preload","trial_index":3,"time_elapsed":84349,"internal_node_id":"0.0-3.0"},{"rt":12090.39999999851,"stimulus":"<h1 style:\"margin-top: 5%;\">Ejercicios de Comprensión de Lectura de la Universidad de Chile</h1><p style=\"font-size: 120%;\">En esta actividad, debes responder 20 preguntas de selección múltiple. Cada pregunta presenta 5 respuestas alternativas, pero sólo una de ellas es correcta. Por lo tanto, debes escoger una sola alternativa para cada pregunta. Además, debes reportar qué tan seguro(a) estás de la respuesta que das, con un:</p><ol style=\"font-size: 120%;text-align:left;margin-left: 40%;\"><li>No estoy seguro(a) para nada</li><li>No estoy muy seguro(a)</li><li>Estoy bastante seguro(a)</li><li>Estoy totalmente seguro(a)</li></ol><p style=\"font-size: 120%;\">Por favor lee bien los enunciados antes de responder. ¡Éxito!</p>","response":0,"trial_type":"html-button-response","trial_index":4,"time_elapsed":96440,"internal_node_id":"0.0-4.0"},{"rt":78382.39999999851,"responses":"{\"pregunta9\":\"d) Homenajear a quienes murieron.\"}","question_order":"[0]","trial_type":"survey-multi-choice","trial_index":5,"time_elapsed":174823,"internal_node_id":"0.0-5.0-0.0"},{"rt":4145.10000000149,"response":{"pregunta9 likert":3},"question_order":[0],"trial_type":"survey-likert","trial_index":6,"time_elapsed":178970,"internal_node_id":"0.0-5.0-1.0"},{"rt":45636.29999999702,"responses":"{\"pregunta1\":\"b) Aportan informaciones con las que se reconstruye el personaje dentro de un relato.\"}","question_order":"[0]","trial_type":"survey-multi-choice","trial_index":7,"time_elapsed":224607,"internal_node_id":"0.0-5.0-2.0"},{"rt":3474.2000000029802,"response":{"pregunta1 likert":3},"question_order":[0],"trial_type":"survey-likert","trial_index":8,"time_elapsed":228082,"internal_node_id":"0.0-5.0-3.0"},{"rt":47513.40000000596,"responses":"{\"pregunta10\":\"d) Al premio merecido después de tantos esfuerzos.\"}","question_order":"[0]","trial_type":"survey-multi-choice","trial_index":9,"time_elapsed":275596,"internal_node_id":"0.0-5.0-4.0"},{"rt":2164.89999999851,"response":{"pregunta10 likert":3},"question_order":[0],"trial_type":"survey-likert","trial_index":10,"time_elapsed":277762,"internal_node_id":"0.0-5.0-5.0"},{"rt":59781.30000000447,"responses":"{\"pregunta13\":\"a) Los seguros médicos deberían considerar el ingreso de Bomberos, pues son los que más los necesitan.\"}","question_order":"[0]","trial_type":"survey-multi-choice","trial_index":11,"time_elapsed":337544,"internal_node_id":"0.0-5.0-6.0"},{"rt":2286.2999999970198,"response":{"pregunta13 likert":3},"question_order":[0],"trial_type":"survey-likert","trial_index":12,"time_elapsed":339833,"internal_node_id":"0.0-5.0-7.0"},{"rt":60151.10000000149,"responses":"{\"pregunta5\":\"c) El ser humano se comporta de acuerdo con las circunstancias.\"}","question_order":"[0]","trial_type":"survey-multi-choice","trial_index":13,"time_elapsed":399984,"internal_node_id":"0.0-5.0-8.0"},{"rt":1841.9000000059605,"response":{"pregunta5 likert":3},"question_order":[0],"trial_type":"survey-likert","trial_index":14,"time_elapsed":401827,"internal_node_id":"0.0-5.0-9.0"},{"rt":66672.5,"responses":"{\"pregunta15\":\"c) El receptor es el que posee la decisión sobre la publicidad.\"}","question_order":"[0]","trial_type":"survey-multi-choice","trial_index":15,"time_elapsed":468500,"internal_node_id":"0.0-5.0-10.0"},{"rt":2560.2999999970198,"response":{"pregunta15 likert":3},"question_order":[0],"trial_type":"survey-likert","trial_index":16,"time_elapsed":471062,"internal_node_id":"0.0-5.0-11.0"},{"rt":92613.69999999553,"responses":"{\"pregunta16\":\"a) sufren dolores de espalda.\"}","question_order":"[0]","trial_type":"survey-multi-choice","trial_index":17,"time_elapsed":563672,"internal_node_id":"0.0-5.0-12.0"},{"rt":1946.8999999985099,"response":{"pregunta16 likert":3},"question_order":[0],"trial_type":"survey-likert","trial_index":18,"time_elapsed":565617,"internal_node_id":"0.0-5.0-13.0"},{"rt":76835.19999999553,"responses":"{\"pregunta11\":\"e) el mejor emperador es el que está muerto.\"}","question_order":"[0]","trial_type":"survey-multi-choice","trial_index":19,"time_elapsed":642428,"internal_node_id":"0.0-5.0-14.0"},{"rt":2035.5,"response":{"pregunta11 likert":2},"question_order":[0],"trial_type":"survey-likert","trial_index":20,"time_elapsed":644465,"internal_node_id":"0.0-5.0-15.0"},{"rt":120815.10000000149,"responses":"{\"pregunta4\":\"d) Criticar la mezcla de estilos que se puede observar en la muestra que exhibe Casa Mater.\"}","question_order":"[0]","trial_type":"survey-multi-choice","trial_index":21,"time_elapsed":765278,"internal_node_id":"0.0-5.0-16.0"},{"rt":2262.1999999955297,"response":{"pregunta4 likert":1},"question_order":[0],"trial_type":"survey-likert","trial_index":22,"time_elapsed":767542,"internal_node_id":"0.0-5.0-17.0"},{"rt":77406.70000000298,"responses":"{\"pregunta2\":\"e) A la relación entre sociedad y constitución social.\"}","question_order":"[0]","trial_type":"survey-multi-choice","trial_index":23,"time_elapsed":844948,"internal_node_id":"0.0-5.0-18.0"},{"rt":2091.8000000044703,"response":{"pregunta2 likert":2},"question_order":[0],"trial_type":"survey-likert","trial_index":24,"time_elapsed":847042,"internal_node_id":"0.0-5.0-19.0"},{"rt":52729.5,"responses":"{\"pregunta17\":\"a) Nuestra economía vivirá un proceso de ajuste a la nueva realidad.\"}","question_order":"[0]","trial_type":"survey-multi-choice","trial_index":25,"time_elapsed":899775,"internal_node_id":"0.0-5.0-20.0"},{"rt":1874.3999999985099,"response":{"pregunta17 likert":3},"question_order":[0],"trial_type":"survey-likert","trial_index":26,"time_elapsed":901651,"internal_node_id":"0.0-5.0-21.0"},{"rt":72201.5,"responses":"{\"pregunta14\":\"d) A la inexistencia de un recinto adecuado para el recital.\"}","question_order":"[0]","trial_type":"survey-multi-choice","trial_index":27,"time_elapsed":973852,"internal_node_id":"0.0-5.0-22.0"},{"rt":2237.2999999970198,"response":{"pregunta14 likert":3},"question_order":[0],"trial_type":"survey-likert","trial_index":28,"time_elapsed":976091,"internal_node_id":"0.0-5.0-23.0"},{"rt":82967.20000000298,"responses":"{\"pregunta8\":\"b) Deleitar a sus receptores por medio de la belleza y el confort.\"}","question_order":"[0]","trial_type":"survey-multi-choice","trial_index":29,"time_elapsed":1059058,"internal_node_id":"0.0-5.0-24.0"},{"rt":1889.1000000014901,"response":{"pregunta8 likert":2},"question_order":[0],"trial_type":"survey-likert","trial_index":30,"time_elapsed":1060948,"internal_node_id":"0.0-5.0-25.0"},{"rt":66398.79999999702,"responses":"{\"pregunta12\":\"e) el uranio es el elemento natural con el mayor número de protones en el núcleo.\"}","question_order":"[0]","trial_type":"survey-multi-choice","trial_index":31,"time_elapsed":1127347,"internal_node_id":"0.0-5.0-26.0"},{"rt":1728,"response":{"pregunta12 likert":3},"question_order":[0],"trial_type":"survey-likert","trial_index":32,"time_elapsed":1129077,"internal_node_id":"0.0-5.0-27.0"},{"rt":68903.79999999702,"responses":"{\"pregunta19\":\"a) la Muerte vaticina el futuro mediante gestos.\"}","question_order":"[0]","trial_type":"survey-multi-choice","trial_index":33,"time_elapsed":1197980,"internal_node_id":"0.0-5.0-28.0"},{"rt":2173.60000000149,"response":{"pregunta19 likert":3},"question_order":[0],"trial_type":"survey-likert","trial_index":34,"time_elapsed":1200155,"internal_node_id":"0.0-5.0-29.0"},{"rt":112977.79999999702,"responses":"{\"pregunta7\":\"d) ritualistas y obsesivos.\"}","question_order":"[0]","trial_type":"survey-multi-choice","trial_index":35,"time_elapsed":1313131,"internal_node_id":"0.0-5.0-30.0"},{"rt":2341.89999999851,"response":{"pregunta7 likert":0},"question_order":[0],"trial_type":"survey-likert","trial_index":36,"time_elapsed":1315475,"internal_node_id":"0.0-5.0-31.0"},{"rt":116657,"responses":"{\"pregunta6\":\"e) un recuerdo nostálgico.\"}","question_order":"[0]","trial_type":"survey-multi-choice","trial_index":37,"time_elapsed":1432130,"internal_node_id":"0.0-5.0-32.0"},{"rt":2504.39999999851,"response":{"pregunta6 likert":2},"question_order":[0],"trial_type":"survey-likert","trial_index":38,"time_elapsed":1434636,"internal_node_id":"0.0-5.0-33.0"},{"rt":59534.20000000298,"responses":"{\"pregunta18\":\"e) El derecho a informar y el derecho a la privacidad son inconciliables.\"}","question_order":"[0]","trial_type":"survey-multi-choice","trial_index":39,"time_elapsed":1494110,"internal_node_id":"0.0-5.0-34.0"},{"rt":2011.5,"response":{"pregunta18 likert":2},"question_order":[0],"trial_type":"survey-likert","trial_index":40,"time_elapsed":1496123,"internal_node_id":"0.0-5.0-35.0"},{"rt":25328.89999999851,"responses":"{\"pregunta20\":\"b) para el mexicano, la muerte es cotidiana.\"}","question_order":"[0]","trial_type":"survey-multi-choice","trial_index":41,"time_elapsed":1521452,"internal_node_id":"0.0-5.0-36.0"},{"rt":2333.60000000149,"response":{"pregunta20 likert":3},"question_order":[0],"trial_type":"survey-likert","trial_index":42,"time_elapsed":1523788,"internal_node_id":"0.0-5.0-37.0"},{"rt":62733.5,"responses":"{\"pregunta3\":\"a) La escritura plasma los mejores momentos de los viajes.\"}","question_order":"[0]","trial_type":"survey-multi-choice","trial_index":43,"time_elapsed":1586521,"internal_node_id":"0.0-5.0-38.0"},{"rt":3586.1999999955297,"response":{"pregunta3 likert":1},"question_order":[0],"trial_type":"survey-likert","trial_index":44,"time_elapsed":1590108,"internal_node_id":"0.0-5.0-39.0"}]