[{"rt":7570,"stimulus":"<h1 style=\"color:red; margin-top: 3%;\">¡Bienvenido(a)!</h1><p style=\"text-align:left; justify-content:space-between; margin-right: 5%; margin-left: 5%; margin-top: 5%\"> Antes de empezar el estudio, necesitamos que nos confirmes que estás de acuerdo con participar. Recuerda que tu participación es 100% voluntaria y que lo único que te pedimos es responder lo mejor que puedas. Recuerda también que el estudio incluye:</p><ol style=\"text-align:left; justify-content:space-between; margin-right: 5%; margin-left: 5%;\"><li> un ejercicio de resolución de preguntas de selección múltiple (30’),</li><li>un cuestionario breve (5’),</li><li>un juego muy breve (3’),</li></ol><p style=\"text-align:left; justify-content:space-between; margin-right: 5%; margin-left: 5%;\">Si quieres participar, haz clic en “Acepto” luego de leer lo siguiente:<br></p><p style=\"text-align:left; justify-content:space-between; margin-right: 5%; margin-left: 5%;\">Acepto participar en el estudio “Estrategias de lectura y resolución de preguntas de selección múltiple”, en los términos aquí señalados:<br></p><p style=\"text-align:left; justify-content:space-between; margin-right: 5%; margin-left: 5%;\"><a href=\"http://ciae.uchile.cl/download.php?file=noticias/Asentimiento.pdf\" target=\"_blank\">Link a la hoja de información del Consentimiento.</a></p><p style=\"text-align:left; justify-content:space-between; margin-right: 5%; margin-left: 5%;\">Declaro que he leído (o se me ha leído) y (he) comprendido, las condiciones de mi participación en este estudio. He tenido la oportunidad de hacer preguntas y éstas han sido respondidas. No tengo dudas al respecto.</p>","response":0,"condicion_MCQ":15,"condicion_JUEGO":95,"condicion_INTER":23,"numero_participante":95,"numero_version":1,"dimx":414,"dimy":896,"color_profundidad":32,"pixel_profundidad":32,"Browser":"Apple Safari","dia":24,"mes":5,"hora":15,"minuto":5,"segundo":1,"trial_type":"html-button-response","trial_index":0,"time_elapsed":7576,"internal_node_id":"0.0-0.0"},{"success":true,"trial_type":"fullscreen","trial_index":1,"time_elapsed":10522,"internal_node_id":"0.0-1.0"},{"rt":83386,"responses":"{\"Nombres\":\"Moira alejandra\",\"Apellidos\":\"Martinez maldonado\",\"Edad\":\"24\",\"Sexo\":\"Mujer\",\"Curso\":\"Sección 1\",\"Colegio\":\"Universidad \",\"Contacto\":\"alejandramoira10@gmail.com\"}","trial_type":"survey-text","trial_index":2,"time_elapsed":93941,"internal_node_id":"0.0-2.0"},{"success":true,"timeout":false,"failed_images":[],"failed_audio":[],"failed_video":[],"trial_type":"preload","trial_index":3,"time_elapsed":100232,"internal_node_id":"0.0-3.0"},{"rt":29179,"stimulus":"<h1 style:\"margin-top: 5%;\">Ejercicios de Comprensión de Lectura de la Universidad de Chile</h1><p style=\"font-size: 120%;\">En esta actividad, debes responder 20 preguntas de selección múltiple. Cada pregunta presenta 5 respuestas alternativas, pero sólo una de ellas es correcta. Por lo tanto, debes escoger una sola alternativa para cada pregunta. Además, debes reportar qué tan seguro(a) estás de la respuesta que das, con un:</p><ol style=\"font-size: 120%;text-align:left;margin-left: 40%;\"><li>No estoy seguro(a) para nada</li><li>No estoy muy seguro(a)</li><li>Estoy bastante seguro(a)</li><li>Estoy totalmente seguro(a)</li></ol><p style=\"font-size: 120%;\">Por favor lee bien los enunciados antes de responder. ¡Éxito!</p>","response":0,"trial_type":"html-button-response","trial_index":4,"time_elapsed":129415,"internal_node_id":"0.0-4.0"},{"rt":39423,"responses":"{\"pregunta17\":\"d) El TLC causará una completa transformación de la economía chilena.\"}","question_order":"[0]","trial_type":"survey-multi-choice","trial_index":5,"time_elapsed":168850,"internal_node_id":"0.0-5.0-0.0"},{"rt":7845,"response":{"pregunta17 likert":1},"question_order":[0],"trial_type":"survey-likert","trial_index":6,"time_elapsed":176700,"internal_node_id":"0.0-5.0-1.0"},{"rt":151604,"responses":"{\"pregunta1\":\"d) Aportan informaciones con las que se reconstruye el personaje dentro de un relato.\"}","question_order":"[0]","trial_type":"survey-multi-choice","trial_index":7,"time_elapsed":328312,"internal_node_id":"0.0-5.0-2.0"},{"rt":4811,"response":{"pregunta1 likert":2},"question_order":[0],"trial_type":"survey-likert","trial_index":8,"time_elapsed":333127,"internal_node_id":"0.0-5.0-3.0"},{"rt":46197,"responses":"{\"pregunta10\":\"a) Al premio merecido después de tantos esfuerzos.\"}","question_order":"[0]","trial_type":"survey-multi-choice","trial_index":9,"time_elapsed":379330,"internal_node_id":"0.0-5.0-4.0"},{"rt":5792.000000000058,"response":{"pregunta10 likert":2},"question_order":[0],"trial_type":"survey-likert","trial_index":10,"time_elapsed":385126,"internal_node_id":"0.0-5.0-5.0"},{"rt":78935,"responses":"{\"pregunta12\":\"c) la creación de elementos químicos artificiales ha resultado de la manipulación del uranio.\"}","question_order":"[0]","trial_type":"survey-multi-choice","trial_index":11,"time_elapsed":464068,"internal_node_id":"0.0-5.0-6.0"},{"rt":3043.000000000058,"response":{"pregunta12 likert":1},"question_order":[0],"trial_type":"survey-likert","trial_index":12,"time_elapsed":467116,"internal_node_id":"0.0-5.0-7.0"},{"rt":49650.99999999994,"responses":"{\"pregunta6\":\"d) un recuerdo nostálgico.\"}","question_order":"[0]","trial_type":"survey-multi-choice","trial_index":13,"time_elapsed":516773,"internal_node_id":"0.0-5.0-8.0"},{"rt":3703.000000000058,"response":{"pregunta6 likert":2},"question_order":[0],"trial_type":"survey-likert","trial_index":14,"time_elapsed":520480,"internal_node_id":"0.0-5.0-9.0"},{"rt":3340889,"responses":"{\"pregunta5\":\"d) Lo que es normal en un asilo es anormal en un campo de concentración.\"}","question_order":"[0]","trial_type":"survey-multi-choice","trial_index":15,"time_elapsed":12505665,"internal_node_id":"0.0-5.0-10.0"},{"rt":1828,"response":{"pregunta5 likert":1},"question_order":[0],"trial_type":"survey-likert","trial_index":16,"time_elapsed":12507501,"internal_node_id":"0.0-5.0-11.0"},{"rt":56181,"responses":"{\"pregunta16\":\"a) tienen mayores niveles de relaxín.\"}","question_order":"[0]","trial_type":"survey-multi-choice","trial_index":17,"time_elapsed":12563687,"internal_node_id":"0.0-5.0-12.0"},{"rt":5068.999999999534,"response":{"pregunta16 likert":1},"question_order":[0],"trial_type":"survey-likert","trial_index":18,"time_elapsed":12568761,"internal_node_id":"0.0-5.0-13.0"},{"rt":32949,"responses":"{\"pregunta19\":\"b) la Muerte acostumbraba a aparecer en Ispahán.\"}","question_order":"[0]","trial_type":"survey-multi-choice","trial_index":19,"time_elapsed":12601714,"internal_node_id":"0.0-5.0-14.0"},{"rt":2254,"response":{"pregunta19 likert":2},"question_order":[0],"trial_type":"survey-likert","trial_index":20,"time_elapsed":12603974,"internal_node_id":"0.0-5.0-15.0"},{"rt":26455.999999999534,"responses":"{\"pregunta14\":\"b) A la influencia de grupos que rechazaban su música.\"}","question_order":"[0]","trial_type":"survey-multi-choice","trial_index":21,"time_elapsed":12630434,"internal_node_id":"0.0-5.0-16.0"},{"rt":13905.000000000466,"response":{"pregunta14 likert":2},"question_order":[0],"trial_type":"survey-likert","trial_index":22,"time_elapsed":12644345,"internal_node_id":"0.0-5.0-17.0"},{"rt":17319,"responses":"{\"pregunta18\":\"e) El derecho a informar y el derecho a la privacidad son inconciliables.\"}","question_order":"[0]","trial_type":"survey-multi-choice","trial_index":23,"time_elapsed":12661669,"internal_node_id":"0.0-5.0-18.0"},{"rt":2626,"response":{"pregunta18 likert":1},"question_order":[0],"trial_type":"survey-likert","trial_index":24,"time_elapsed":12664301,"internal_node_id":"0.0-5.0-19.0"},{"rt":34088.999999999534,"responses":"{\"pregunta2\":\"a) A la relación entre sociología y sociedad.\"}","question_order":"[0]","trial_type":"survey-multi-choice","trial_index":25,"time_elapsed":12698395,"internal_node_id":"0.0-5.0-20.0"},{"rt":2765.9999999995343,"response":{"pregunta2 likert":1},"question_order":[0],"trial_type":"survey-likert","trial_index":26,"time_elapsed":12701165,"internal_node_id":"0.0-5.0-21.0"},{"rt":22607.999999999534,"responses":"{\"pregunta15\":\"c) El receptor es habitualmente pasivo frente a la publicidad.\"}","question_order":"[0]","trial_type":"survey-multi-choice","trial_index":27,"time_elapsed":12723778,"internal_node_id":"0.0-5.0-22.0"},{"rt":2562,"response":{"pregunta15 likert":2},"question_order":[0],"trial_type":"survey-likert","trial_index":28,"time_elapsed":12726345,"internal_node_id":"0.0-5.0-23.0"},{"rt":26023,"responses":"{\"pregunta3\":\"c) La escritura olvida los momentos insignificantes de los viajes.\"}","question_order":"[0]","trial_type":"survey-multi-choice","trial_index":29,"time_elapsed":12752371,"internal_node_id":"0.0-5.0-24.0"},{"rt":2212.9999999995343,"response":{"pregunta3 likert":1},"question_order":[0],"trial_type":"survey-likert","trial_index":30,"time_elapsed":12754589,"internal_node_id":"0.0-5.0-25.0"},{"rt":29156,"responses":"{\"pregunta20\":\"b) la muerte es distinta en las grandes ciudades.\"}","question_order":"[0]","trial_type":"survey-multi-choice","trial_index":31,"time_elapsed":12783749,"internal_node_id":"0.0-5.0-26.0"},{"rt":2138,"response":{"pregunta20 likert":1},"question_order":[0],"trial_type":"survey-likert","trial_index":32,"time_elapsed":12785891,"internal_node_id":"0.0-5.0-27.0"},{"rt":26056.999999999534,"responses":"{\"pregunta13\":\"c) Se debe crear un seguro médico especial para esta institución, pues es de alto riesgo.\"}","question_order":"[0]","trial_type":"survey-multi-choice","trial_index":33,"time_elapsed":12811952,"internal_node_id":"0.0-5.0-28.0"},{"rt":4068.9999999990687,"response":{"pregunta13 likert":2},"question_order":[0],"trial_type":"survey-likert","trial_index":34,"time_elapsed":12816026,"internal_node_id":"0.0-5.0-29.0"},{"rt":24572,"responses":"{\"pregunta7\":\"b) religiosos y precavidos.\"}","question_order":"[0]","trial_type":"survey-multi-choice","trial_index":35,"time_elapsed":12840603,"internal_node_id":"0.0-5.0-30.0"},{"rt":3437,"response":{"pregunta7 likert":1},"question_order":[0],"trial_type":"survey-likert","trial_index":36,"time_elapsed":12844044,"internal_node_id":"0.0-5.0-31.0"},{"rt":23568,"responses":"{\"pregunta4\":\"d) Orientar la opción estética de un grupo de personas en lo que se refiere a la decoración de interiores.\"}","question_order":"[0]","trial_type":"survey-multi-choice","trial_index":37,"time_elapsed":12867616,"internal_node_id":"0.0-5.0-32.0"},{"rt":2500,"response":{"pregunta4 likert":1},"question_order":[0],"trial_type":"survey-likert","trial_index":38,"time_elapsed":12870121,"internal_node_id":"0.0-5.0-33.0"},{"rt":19570,"responses":"{\"pregunta11\":\"b) el mejor emperador es el que está muerto.\"}","question_order":"[0]","trial_type":"survey-multi-choice","trial_index":39,"time_elapsed":12889695,"internal_node_id":"0.0-5.0-34.0"},{"rt":2208,"response":{"pregunta11 likert":1},"question_order":[0],"trial_type":"survey-likert","trial_index":40,"time_elapsed":12891909,"internal_node_id":"0.0-5.0-35.0"},{"rt":44702,"responses":"{\"pregunta8\":\"a) Provocar el deseo de la adquisición vertiginosa.\"}","question_order":"[0]","trial_type":"survey-multi-choice","trial_index":41,"time_elapsed":12936615,"internal_node_id":"0.0-5.0-36.0"},{"rt":2359,"response":{"pregunta8 likert":2},"question_order":[0],"trial_type":"survey-likert","trial_index":42,"time_elapsed":12938979,"internal_node_id":"0.0-5.0-37.0"},{"rt":36034,"responses":"{\"pregunta9\":\"d) Atraer a los turistas.\"}","question_order":"[0]","trial_type":"survey-multi-choice","trial_index":43,"time_elapsed":12975017,"internal_node_id":"0.0-5.0-38.0"},{"rt":5360,"response":{"pregunta9 likert":1},"question_order":[0],"trial_type":"survey-likert","trial_index":44,"time_elapsed":12980381,"internal_node_id":"0.0-5.0-39.0"}]