[{"rt":131041.90000000596,"stimulus":"<h1 style=\"color:red; margin-top: 3%;\">¡Bienvenido(a)!</h1><p style=\"text-align:left; justify-content:space-between; margin-right: 5%; margin-left: 5%; margin-top: 5%\"> Antes de empezar el estudio, necesitamos que nos confirmes que estás de acuerdo con participar. Recuerda que tu participación es 100% voluntaria y que lo único que te pedimos es responder lo mejor que puedas. Recuerda también que el estudio incluye:</p><ol style=\"text-align:left; justify-content:space-between; margin-right: 5%; margin-left: 5%;\"><li> un ejercicio de resolución de preguntas de selección múltiple (30’),</li><li>un cuestionario breve (5’),</li><li>un juego muy breve (3’),</li></ol><p style=\"text-align:left; justify-content:space-between; margin-right: 5%; margin-left: 5%;\">Si quieres participar, haz clic en “Acepto” luego de leer lo siguiente:<br></p><p style=\"text-align:left; justify-content:space-between; margin-right: 5%; margin-left: 5%;\">Acepto participar en el estudio “Estrategias de lectura y resolución de preguntas de selección múltiple”, en los términos aquí señalados:<br></p><p style=\"text-align:left; justify-content:space-between; margin-right: 5%; margin-left: 5%;\"><a href=\"http://ciae.uchile.cl/download.php?file=noticias/Asentimiento.pdf\" target=\"_blank\">Link a la hoja de información del Consentimiento.</a></p><p style=\"text-align:left; justify-content:space-between; margin-right: 5%; margin-left: 5%;\">Declaro que he leído (o se me ha leído) y (he) comprendido, las condiciones de mi participación en este estudio. He tenido la oportunidad de hacer preguntas y éstas han sido respondidas. No tengo dudas al respecto.</p>","response":0,"condicion_MCQ":12,"condicion_JUEGO":52,"condicion_INTER":4,"numero_participante":52,"numero_version":1,"dimx":1536,"dimy":864,"color_profundidad":24,"pixel_profundidad":24,"Browser":"Google Chrome","dia":19,"mes":5,"hora":22,"minuto":16,"segundo":17,"trial_type":"html-button-response","trial_index":0,"time_elapsed":131044,"internal_node_id":"0.0-0.0"},{"success":true,"trial_type":"fullscreen","trial_index":1,"time_elapsed":143486,"internal_node_id":"0.0-1.0"},{"rt":196441.59999999404,"responses":"{\"Nombres\":\"Jorge Sergio\",\"Apellidos\":\"Carrasco Mardones\",\"Edad\":\"30\",\"Sexo\":\"hombre\",\"Curso\":\"Tópicos de Neurobiología\",\"Colegio\":\"Universidad Andres Bello \",\"Contacto\":\"j.carrascomardones@uandresbello.edu\"}","trial_type":"survey-text","trial_index":2,"time_elapsed":339933,"internal_node_id":"0.0-2.0"},{"success":true,"timeout":false,"failed_images":[],"failed_audio":[],"failed_video":[],"trial_type":"preload","trial_index":3,"time_elapsed":340411,"internal_node_id":"0.0-3.0"},{"rt":27474.70000000298,"stimulus":"<h1 style:\"margin-top: 5%;\">Ejercicios de Comprensión de Lectura de la Universidad de Chile</h1><p style=\"font-size: 120%;\">En esta actividad, debes responder 20 preguntas de selección múltiple. Cada pregunta presenta 5 respuestas alternativas, pero sólo una de ellas es correcta. Por lo tanto, debes escoger una sola alternativa para cada pregunta. Además, debes reportar qué tan seguro(a) estás de la respuesta que das, con un:</p><ol style=\"font-size: 120%;text-align:left;margin-left: 40%;\"><li>No estoy seguro(a) para nada</li><li>No estoy muy seguro(a)</li><li>Estoy bastante seguro(a)</li><li>Estoy totalmente seguro(a)</li></ol><p style=\"font-size: 120%;\">Por favor lee bien los enunciados antes de responder. ¡Éxito!</p>","response":0,"trial_type":"html-button-response","trial_index":4,"time_elapsed":367887,"internal_node_id":"0.0-4.0"},{"rt":99116.5,"responses":"{\"pregunta14\":\"b) A la influencia de grupos que rechazaban su música.\"}","question_order":"[0]","trial_type":"survey-multi-choice","trial_index":5,"time_elapsed":467005,"internal_node_id":"0.0-5.0-0.0"},{"rt":3947.6000000089407,"response":{"pregunta14 likert":2},"question_order":[0],"trial_type":"survey-likert","trial_index":6,"time_elapsed":470953,"internal_node_id":"0.0-5.0-1.0"},{"rt":167661.90000000596,"responses":"{\"pregunta11\":\"e) sólo las leyes bastan para gobernarse.\"}","question_order":"[0]","trial_type":"survey-multi-choice","trial_index":7,"time_elapsed":638617,"internal_node_id":"0.0-5.0-2.0"},{"rt":4246.29999999702,"response":{"pregunta11 likert":1},"question_order":[0],"trial_type":"survey-likert","trial_index":8,"time_elapsed":642865,"internal_node_id":"0.0-5.0-3.0"},{"rt":84522.79999999702,"responses":"{\"pregunta13\":\"b) Los seguros médicos deberían considerar el ingreso de Bomberos, pues son los que más los necesitan.\"}","question_order":"[0]","trial_type":"survey-multi-choice","trial_index":9,"time_elapsed":727389,"internal_node_id":"0.0-5.0-4.0"},{"rt":3594,"response":{"pregunta13 likert":3},"question_order":[0],"trial_type":"survey-likert","trial_index":10,"time_elapsed":730984,"internal_node_id":"0.0-5.0-5.0"},{"rt":137784.59999999404,"responses":"{\"pregunta19\":\"c) el jardinero estará muerto al día siguiente.\"}","question_order":"[0]","trial_type":"survey-multi-choice","trial_index":11,"time_elapsed":868770,"internal_node_id":"0.0-5.0-6.0"},{"rt":2896.2999999970198,"response":{"pregunta19 likert":2},"question_order":[0],"trial_type":"survey-likert","trial_index":12,"time_elapsed":871667,"internal_node_id":"0.0-5.0-7.0"},{"rt":114486.70000000298,"responses":"{\"pregunta17\":\"b) Nuestra economía vivirá un proceso de ajuste a la nueva realidad.\"}","question_order":"[0]","trial_type":"survey-multi-choice","trial_index":13,"time_elapsed":986155,"internal_node_id":"0.0-5.0-8.0"},{"rt":2693.4000000059605,"response":{"pregunta17 likert":1},"question_order":[0],"trial_type":"survey-likert","trial_index":14,"time_elapsed":988849,"internal_node_id":"0.0-5.0-9.0"},{"rt":104730.30000001192,"responses":"{\"pregunta2\":\"d) A la relación entre pensamiento y estructura social.\"}","question_order":"[0]","trial_type":"survey-multi-choice","trial_index":15,"time_elapsed":1093581,"internal_node_id":"0.0-5.0-10.0"},{"rt":2303.4000000059605,"response":{"pregunta2 likert":1},"question_order":[0],"trial_type":"survey-likert","trial_index":16,"time_elapsed":1095885,"internal_node_id":"0.0-5.0-11.0"},{"rt":146505.79999999702,"responses":"{\"pregunta6\":\"c) una constante espera.\"}","question_order":"[0]","trial_type":"survey-multi-choice","trial_index":17,"time_elapsed":1242391,"internal_node_id":"0.0-5.0-12.0"},{"rt":1146.9000000059605,"response":{"pregunta6 likert":1},"question_order":[0],"trial_type":"survey-likert","trial_index":18,"time_elapsed":1243539,"internal_node_id":"0.0-5.0-13.0"},{"rt":105147.5,"responses":"{\"pregunta18\":\"c) Se necesita un marco legal para delimitar lo público y lo privado en materia informativa.\"}","question_order":"[0]","trial_type":"survey-multi-choice","trial_index":19,"time_elapsed":1348689,"internal_node_id":"0.0-5.0-14.0"},{"rt":1705,"response":{"pregunta18 likert":2},"question_order":[0],"trial_type":"survey-likert","trial_index":20,"time_elapsed":1350395,"internal_node_id":"0.0-5.0-15.0"},{"rt":74987.70000000298,"responses":"{\"pregunta9\":\"e) Homenajear a quienes murieron.\"}","question_order":"[0]","trial_type":"survey-multi-choice","trial_index":21,"time_elapsed":1425383,"internal_node_id":"0.0-5.0-16.0"},{"rt":2015.3999999910593,"response":{"pregunta9 likert":3},"question_order":[0],"trial_type":"survey-likert","trial_index":22,"time_elapsed":1427399,"internal_node_id":"0.0-5.0-17.0"},{"rt":128480.59999999404,"responses":"{\"pregunta12\":\"a) el uranio es el elemento natural con el mayor número de protones en el núcleo.\"}","question_order":"[0]","trial_type":"survey-multi-choice","trial_index":23,"time_elapsed":1555881,"internal_node_id":"0.0-5.0-18.0"},{"rt":2575.4000000059605,"response":{"pregunta12 likert":3},"question_order":[0],"trial_type":"survey-likert","trial_index":24,"time_elapsed":1558457,"internal_node_id":"0.0-5.0-19.0"},{"rt":158746.19999998808,"responses":"{\"pregunta3\":\"d) Los momentos triviales de los viajes, en la escritura se vuelven significativos.\"}","question_order":"[0]","trial_type":"survey-multi-choice","trial_index":25,"time_elapsed":1717205,"internal_node_id":"0.0-5.0-20.0"},{"rt":1961.9000000059605,"response":{"pregunta3 likert":1},"question_order":[0],"trial_type":"survey-likert","trial_index":26,"time_elapsed":1719168,"internal_node_id":"0.0-5.0-21.0"},{"rt":155627,"responses":"{\"pregunta4\":\"d) Promover la asistencia a un evento específico de decoración a través de una atractiva descripción.\"}","question_order":"[0]","trial_type":"survey-multi-choice","trial_index":27,"time_elapsed":1874796,"internal_node_id":"0.0-5.0-22.0"},{"rt":2563.7000000029802,"response":{"pregunta4 likert":2},"question_order":[0],"trial_type":"survey-likert","trial_index":28,"time_elapsed":1877361,"internal_node_id":"0.0-5.0-23.0"},{"rt":250457.40000000596,"responses":"{\"pregunta7\":\"e) ritualistas y obsesivos.\"}","question_order":"[0]","trial_type":"survey-multi-choice","trial_index":29,"time_elapsed":2127820,"internal_node_id":"0.0-5.0-24.0"},{"rt":1048.8999999910593,"response":{"pregunta7 likert":1},"question_order":[0],"trial_type":"survey-likert","trial_index":30,"time_elapsed":2128869,"internal_node_id":"0.0-5.0-25.0"},{"rt":82422.10000000894,"responses":"{\"pregunta10\":\"a) Al premio merecido después de tantos esfuerzos.\"}","question_order":"[0]","trial_type":"survey-multi-choice","trial_index":31,"time_elapsed":2211292,"internal_node_id":"0.0-5.0-26.0"},{"rt":1879.2000000029802,"response":{"pregunta10 likert":3},"question_order":[0],"trial_type":"survey-likert","trial_index":32,"time_elapsed":2213172,"internal_node_id":"0.0-5.0-27.0"},{"rt":103775.70000000298,"responses":"{\"pregunta15\":\"a) El receptor es el que posee la decisión sobre la publicidad.\"}","question_order":"[0]","trial_type":"survey-multi-choice","trial_index":33,"time_elapsed":2316949,"internal_node_id":"0.0-5.0-28.0"},{"rt":1551.8999999910593,"response":{"pregunta15 likert":2},"question_order":[0],"trial_type":"survey-likert","trial_index":34,"time_elapsed":2318502,"internal_node_id":"0.0-5.0-29.0"},{"rt":258029.79999999702,"responses":"{\"pregunta20\":\"e) en Nueva York, París o Londres, la muerte es tema superado.\"}","question_order":"[0]","trial_type":"survey-multi-choice","trial_index":35,"time_elapsed":2576533,"internal_node_id":"0.0-5.0-30.0"},{"rt":1947,"response":{"pregunta20 likert":1},"question_order":[0],"trial_type":"survey-likert","trial_index":36,"time_elapsed":2578481,"internal_node_id":"0.0-5.0-31.0"},{"rt":82041.5,"responses":"{\"pregunta8\":\"e) Provocar el deseo de la adquisición vertiginosa.\"}","question_order":"[0]","trial_type":"survey-multi-choice","trial_index":37,"time_elapsed":2660524,"internal_node_id":"0.0-5.0-32.0"},{"rt":1973,"response":{"pregunta8 likert":2},"question_order":[0],"trial_type":"survey-likert","trial_index":38,"time_elapsed":2662498,"internal_node_id":"0.0-5.0-33.0"},{"rt":137974.40000000596,"responses":"{\"pregunta1\":\"a) Manifiestan la importancia de que el personaje tenga independencia en el relato.\"}","question_order":"[0]","trial_type":"survey-multi-choice","trial_index":39,"time_elapsed":2800473,"internal_node_id":"0.0-5.0-34.0"},{"rt":2585.4000000059605,"response":{"pregunta1 likert":2},"question_order":[0],"trial_type":"survey-likert","trial_index":40,"time_elapsed":2803059,"internal_node_id":"0.0-5.0-35.0"},{"rt":150390.80000001192,"responses":"{\"pregunta16\":\"d) llevan un control grupal de su embarazo.\"}","question_order":"[0]","trial_type":"survey-multi-choice","trial_index":41,"time_elapsed":2953451,"internal_node_id":"0.0-5.0-36.0"},{"rt":3082,"response":{"pregunta16 likert":1},"question_order":[0],"trial_type":"survey-likert","trial_index":42,"time_elapsed":2956534,"internal_node_id":"0.0-5.0-37.0"},{"rt":99934.29999999702,"responses":"{\"pregunta5\":\"e) El concepto de normalidad es diferente para un psiquiatra que para nosotros.\"}","question_order":"[0]","trial_type":"survey-multi-choice","trial_index":43,"time_elapsed":3056470,"internal_node_id":"0.0-5.0-38.0"},{"rt":2281.2000000029802,"response":{"pregunta5 likert":1},"question_order":[0],"trial_type":"survey-likert","trial_index":44,"time_elapsed":3058752,"internal_node_id":"0.0-5.0-39.0"},{"rt":4863.9000000059605,"stimulus":"<p style=\"font-size: 120%\">Gracias por completar esta etapa del estudio. Ahora te invitamos a responder el cuestionario.<br><br></p>","response":0,"trial_type":"html-button-response","trial_index":45,"time_elapsed":3063619,"internal_node_id":"0.0-6.0"},{"rt":29915.10000000894,"stimulus":"<h1 style=\"margin-top: 5%\">Cuestionario para la Evaluación de Metas Académicas</h1><p style=\"font-size: 120%; margin-left: 3%; margin-top: 5%\">Este es un cuestionario que permite conocer cuáles son los principales motivos por los que los estudiantes se esfuerzan en su trabajo académico. A continuación, se te presentarán una serie de afirmaciones acerca de los motivos que puedes tener para estudiar.<br>Te pedimos que contestes a dichas afirmaciones reflexionando sobre el contenido de cada una de ellas, que, aunque te parezcan semejantes, en realidad, no lo son.<br>NO HAY RESPUESTAS CORRECTAS o INCORRECTAS, sólo queremos que respondas con la mayor precisión y sinceridad posible a las preguntas que se plantean.","response":0,"trial_type":"html-button-response","trial_index":46,"time_elapsed":3093534,"internal_node_id":"0.0-7.0"},{"rt":187509.10000000894,"response":{"Metas cuestionario pregunta1":3,"Metas cuestionario pregunta2":4,"Metas cuestionario pregunta3":4,"Metas cuestionario pregunta4":4,"Metas cuestionario pregunta5":4,"Metas cuestionario pregunta6":2,"Metas cuestionario pregunta7":4,"Metas cuestionario pregunta8":4,"Metas cuestionario pregunta9":1,"Metas cuestionario pregunta10":1,"Metas cuestionario pregunta11":0,"Metas cuestionario pregunta12":1,"Metas cuestionario pregunta13":0,"Metas cuestionario pregunta14":0,"Metas cuestionario pregunta15":4,"Metas cuestionario pregunta16":4,"Metas cuestionario pregunta17":4,"Metas cuestionario pregunta18":4,"Metas cuestionario pregunta19":4,"Metas cuestionario pregunta20":1},"question_order":[0,1,2,3,4,5,6,7,8,9,10,11,12,13,14,15,16,17,18,19],"trial_type":"survey-likert","trial_index":47,"time_elapsed":3281047,"internal_node_id":"0.0-8.0"}]