[{"rt":23161.40000000596,"stimulus":"<h1 style=\"color:red; margin-top: 3%;\">¡Bienvenido(a)!</h1><p style=\"text-align:left; justify-content:space-between; margin-right: 5%; margin-left: 5%; margin-top: 5%\"> Antes de empezar el estudio, necesitamos que nos confirmes que estás de acuerdo con participar. Recuerda que tu participación es 100% voluntaria y que lo único que te pedimos es responder lo mejor que puedas. Recuerda también que el estudio incluye:</p><ol style=\"text-align:left; justify-content:space-between; margin-right: 5%; margin-left: 5%;\"><li> un ejercicio de resolución de preguntas de selección múltiple (30’),</li><li>un cuestionario breve (5’),</li><li>un juego muy breve (3’),</li></ol><p style=\"text-align:left; justify-content:space-between; margin-right: 5%; margin-left: 5%;\">Si quieres participar, haz clic en “Acepto” luego de leer lo siguiente:<br></p><p style=\"text-align:left; justify-content:space-between; margin-right: 5%; margin-left: 5%;\">Acepto participar en el estudio “Estrategias de lectura y resolución de preguntas de selección múltiple”, en los términos aquí señalados:<br></p><p style=\"text-align:left; justify-content:space-between; margin-right: 5%; margin-left: 5%;\"><a href=\"http://ciae.uchile.cl/download.php?file=noticias/Asentimiento.pdf\" target=\"_blank\">Link a la hoja de información del Consentimiento.</a></p><p style=\"text-align:left; justify-content:space-between; margin-right: 5%; margin-left: 5%;\">Declaro que he leído (o se me ha leído) y (he) comprendido, las condiciones de mi participación en este estudio. He tenido la oportunidad de hacer preguntas y éstas han sido respondidas. No tengo dudas al respecto.</p>","response":0,"condicion_MCQ":14,"condicion_JUEGO":34,"condicion_INTER":10,"numero_participante":34,"numero_version":1,"dimx":1440,"dimy":900,"color_profundidad":24,"pixel_profundidad":24,"Browser":"Google Chrome","dia":18,"mes":5,"hora":17,"minuto":15,"segundo":52,"trial_type":"html-button-response","trial_index":0,"time_elapsed":23167,"internal_node_id":"0.0-0.0"},{"success":true,"trial_type":"fullscreen","trial_index":1,"time_elapsed":37258,"internal_node_id":"0.0-1.0"},{"rt":100137.30000000447,"responses":"{\"Nombres\":\"Mia José\",\"Apellidos\":\"Cummings Hoffmann\",\"Edad\":\"19\",\"Sexo\":\"Mujer\",\"Curso\":\"seccion 200\",\"Colegio\":\"Universidad Andrés Bello\",\"Contacto\":\"m.cummingshoffmann@uandresbello.edu\"}","trial_type":"survey-text","trial_index":2,"time_elapsed":137416,"internal_node_id":"0.0-2.0"},{"success":true,"timeout":false,"failed_images":[],"failed_audio":[],"failed_video":[],"trial_type":"preload","trial_index":3,"time_elapsed":154021,"internal_node_id":"0.0-3.0"},{"rt":12843.79999999702,"stimulus":"<h1 style:\"margin-top: 5%;\">Ejercicios de Comprensión de Lectura de la Universidad de Chile</h1><p style=\"font-size: 120%;\">En esta actividad, debes responder 20 preguntas de selección múltiple. Cada pregunta presenta 5 respuestas alternativas, pero sólo una de ellas es correcta. Por lo tanto, debes escoger una sola alternativa para cada pregunta. Además, debes reportar qué tan seguro(a) estás de la respuesta que das, con un:</p><ol style=\"font-size: 120%;text-align:left;margin-left: 40%;\"><li>No estoy seguro(a) para nada</li><li>No estoy muy seguro(a)</li><li>Estoy bastante seguro(a)</li><li>Estoy totalmente seguro(a)</li></ol><p style=\"font-size: 120%;\">Por favor lee bien los enunciados antes de responder. ¡Éxito!</p>","response":0,"trial_type":"html-button-response","trial_index":4,"time_elapsed":166867,"internal_node_id":"0.0-4.0"},{"rt":124845.69999999553,"responses":"{\"pregunta16\":\"c) sufren dolores de espalda.\"}","question_order":"[0]","trial_type":"survey-multi-choice","trial_index":5,"time_elapsed":291720,"internal_node_id":"0.0-5.0-0.0"},{"rt":5060.79999999702,"response":{"pregunta16 likert":2},"question_order":[0],"trial_type":"survey-likert","trial_index":6,"time_elapsed":296788,"internal_node_id":"0.0-5.0-1.0"},{"rt":98644.69999999553,"responses":"{\"pregunta19\":\"c) el jardinero estará muerto al día siguiente.\"}","question_order":"[0]","trial_type":"survey-multi-choice","trial_index":7,"time_elapsed":395443,"internal_node_id":"0.0-5.0-2.0"},{"rt":2076.8000000044703,"response":{"pregunta19 likert":2},"question_order":[0],"trial_type":"survey-likert","trial_index":8,"time_elapsed":397527,"internal_node_id":"0.0-5.0-3.0"},{"rt":61150.5,"responses":"{\"pregunta14\":\"d) A la inexistencia de un recinto adecuado para el recital.\"}","question_order":"[0]","trial_type":"survey-multi-choice","trial_index":9,"time_elapsed":458687,"internal_node_id":"0.0-5.0-4.0"},{"rt":4584.70000000298,"response":{"pregunta14 likert":3},"question_order":[0],"trial_type":"survey-likert","trial_index":10,"time_elapsed":463279,"internal_node_id":"0.0-5.0-5.0"},{"rt":41189.10000000149,"responses":"{\"pregunta1\":\"d) Aportan informaciones con las que se reconstruye el personaje dentro de un relato.\"}","question_order":"[0]","trial_type":"survey-multi-choice","trial_index":11,"time_elapsed":504476,"internal_node_id":"0.0-5.0-6.0"},{"rt":1704.6000000014901,"response":{"pregunta1 likert":3},"question_order":[0],"trial_type":"survey-likert","trial_index":12,"time_elapsed":506189,"internal_node_id":"0.0-5.0-7.0"},{"rt":47886.09999999404,"responses":"{\"pregunta15\":\"b) El receptor es habitualmente pasivo frente a la publicidad.\"}","question_order":"[0]","trial_type":"survey-multi-choice","trial_index":13,"time_elapsed":554083,"internal_node_id":"0.0-5.0-8.0"},{"rt":1713.2000000029802,"response":{"pregunta15 likert":3},"question_order":[0],"trial_type":"survey-likert","trial_index":14,"time_elapsed":555803,"internal_node_id":"0.0-5.0-9.0"},{"rt":45119.39999999851,"responses":"{\"pregunta5\":\"b) El concepto de normalidad es diferente para un psiquiatra que para nosotros.\"}","question_order":"[0]","trial_type":"survey-multi-choice","trial_index":15,"time_elapsed":600931,"internal_node_id":"0.0-5.0-10.0"},{"rt":2918.89999999851,"response":{"pregunta5 likert":2},"question_order":[0],"trial_type":"survey-likert","trial_index":16,"time_elapsed":603857,"internal_node_id":"0.0-5.0-11.0"},{"rt":94191,"responses":"{\"pregunta6\":\"c) un recuerdo nostálgico.\"}","question_order":"[0]","trial_type":"survey-multi-choice","trial_index":17,"time_elapsed":698058,"internal_node_id":"0.0-5.0-12.0"},{"rt":1589.3999999985099,"response":{"pregunta6 likert":1},"question_order":[0],"trial_type":"survey-likert","trial_index":18,"time_elapsed":699654,"internal_node_id":"0.0-5.0-13.0"},{"rt":37716.39999999851,"responses":"{\"pregunta17\":\"b) El TLC causará una completa transformación de la economía chilena.\"}","question_order":"[0]","trial_type":"survey-multi-choice","trial_index":19,"time_elapsed":737379,"internal_node_id":"0.0-5.0-14.0"},{"rt":2192.89999999851,"response":{"pregunta17 likert":2},"question_order":[0],"trial_type":"survey-likert","trial_index":20,"time_elapsed":739579,"internal_node_id":"0.0-5.0-15.0"},{"rt":60369,"responses":"{\"pregunta3\":\"e) La escritura plasma los mejores momentos de los viajes.\"}","question_order":"[0]","trial_type":"survey-multi-choice","trial_index":21,"time_elapsed":799957,"internal_node_id":"0.0-5.0-16.0"},{"rt":1548.6000000014901,"response":{"pregunta3 likert":3},"question_order":[0],"trial_type":"survey-likert","trial_index":22,"time_elapsed":801513,"internal_node_id":"0.0-5.0-17.0"},{"rt":31324.30000000447,"responses":"{\"pregunta8\":\"b) Deleitar a sus receptores por medio de la belleza y el confort.\"}","question_order":"[0]","trial_type":"survey-multi-choice","trial_index":23,"time_elapsed":832846,"internal_node_id":"0.0-5.0-18.0"},{"rt":3945.1999999955297,"response":{"pregunta8 likert":3},"question_order":[0],"trial_type":"survey-likert","trial_index":24,"time_elapsed":836798,"internal_node_id":"0.0-5.0-19.0"},{"rt":105069.09999999404,"responses":"{\"pregunta12\":\"c) todos los elementos químicos tienen más de noventa y dos protones en su núcleo.\"}","question_order":"[0]","trial_type":"survey-multi-choice","trial_index":25,"time_elapsed":941877,"internal_node_id":"0.0-5.0-20.0"},{"rt":2172.39999999851,"response":{"pregunta12 likert":1},"question_order":[0],"trial_type":"survey-likert","trial_index":26,"time_elapsed":944057,"internal_node_id":"0.0-5.0-21.0"},{"rt":40622.80000000447,"responses":"{\"pregunta11\":\"c) el Primer Ministro debía morir por ambicioso.\"}","question_order":"[0]","trial_type":"survey-multi-choice","trial_index":27,"time_elapsed":984688,"internal_node_id":"0.0-5.0-22.0"},{"rt":1977,"response":{"pregunta11 likert":3},"question_order":[0],"trial_type":"survey-likert","trial_index":28,"time_elapsed":986672,"internal_node_id":"0.0-5.0-23.0"},{"rt":29836.70000000298,"responses":"{\"pregunta9\":\"a) Homenajear a quienes murieron.\"}","question_order":"[0]","trial_type":"survey-multi-choice","trial_index":29,"time_elapsed":1016517,"internal_node_id":"0.0-5.0-24.0"},{"rt":2860.9000000059605,"response":{"pregunta9 likert":2},"question_order":[0],"trial_type":"survey-likert","trial_index":30,"time_elapsed":1019385,"internal_node_id":"0.0-5.0-25.0"},{"rt":36942.60000000149,"responses":"{\"pregunta2\":\"c) A la relación entre sociedad y constitución social.\"}","question_order":"[0]","trial_type":"survey-multi-choice","trial_index":31,"time_elapsed":1056336,"internal_node_id":"0.0-5.0-26.0"},{"rt":1361.2000000029802,"response":{"pregunta2 likert":3},"question_order":[0],"trial_type":"survey-likert","trial_index":32,"time_elapsed":1057704,"internal_node_id":"0.0-5.0-27.0"},{"rt":50051.5,"responses":"{\"pregunta20\":\"d) para el mexicano, la muerte es cotidiana.\"}","question_order":"[0]","trial_type":"survey-multi-choice","trial_index":33,"time_elapsed":1107765,"internal_node_id":"0.0-5.0-28.0"},{"rt":1308.8999999985099,"response":{"pregunta20 likert":2},"question_order":[0],"trial_type":"survey-likert","trial_index":34,"time_elapsed":1109080,"internal_node_id":"0.0-5.0-29.0"},{"rt":27071.39999999851,"responses":"{\"pregunta18\":\"c) Se necesita un marco legal para delimitar lo público y lo privado en materia informativa.\"}","question_order":"[0]","trial_type":"survey-multi-choice","trial_index":35,"time_elapsed":1136159,"internal_node_id":"0.0-5.0-30.0"},{"rt":1570.5,"response":{"pregunta18 likert":3},"question_order":[0],"trial_type":"survey-likert","trial_index":36,"time_elapsed":1137737,"internal_node_id":"0.0-5.0-31.0"},{"rt":67178.79999999702,"responses":"{\"pregunta7\":\"a) frívolos y previsores.\"}","question_order":"[0]","trial_type":"survey-multi-choice","trial_index":37,"time_elapsed":1204925,"internal_node_id":"0.0-5.0-32.0"},{"rt":4241.10000000149,"response":{"pregunta7 likert":2},"question_order":[0],"trial_type":"survey-likert","trial_index":38,"time_elapsed":1209173,"internal_node_id":"0.0-5.0-33.0"},{"rt":58262.79999999702,"responses":"{\"pregunta4\":\"e) Promover la asistencia a un evento específico de decoración a través de una atractiva descripción.\"}","question_order":"[0]","trial_type":"survey-multi-choice","trial_index":39,"time_elapsed":1267445,"internal_node_id":"0.0-5.0-34.0"},{"rt":2670.89999999851,"response":{"pregunta4 likert":3},"question_order":[0],"trial_type":"survey-likert","trial_index":40,"time_elapsed":1270123,"internal_node_id":"0.0-5.0-35.0"},{"rt":37158.60000000149,"responses":"{\"pregunta10\":\"d) A la inutilidad de tanto esfuerzo si el objetivo es el reposo.\"}","question_order":"[0]","trial_type":"survey-multi-choice","trial_index":41,"time_elapsed":1307290,"internal_node_id":"0.0-5.0-36.0"},{"rt":1278.3000000044703,"response":{"pregunta10 likert":3},"question_order":[0],"trial_type":"survey-likert","trial_index":42,"time_elapsed":1308576,"internal_node_id":"0.0-5.0-37.0"},{"rt":25270.60000000149,"responses":"{\"pregunta13\":\"d) Se debe crear un seguro médico especial para esta institución, pues es de alto riesgo.\"}","question_order":"[0]","trial_type":"survey-multi-choice","trial_index":43,"time_elapsed":1333854,"internal_node_id":"0.0-5.0-38.0"},{"rt":1269.2000000029802,"response":{"pregunta13 likert":3},"question_order":[0],"trial_type":"survey-likert","trial_index":44,"time_elapsed":1335131,"internal_node_id":"0.0-5.0-39.0"},{"rt":2595.4000000059605,"stimulus":"<p style=\"font-size: 120%\">Gracias por completar esta etapa del estudio. Ahora te invitamos a responder el cuestionario.<br><br></p>","response":0,"trial_type":"html-button-response","trial_index":45,"time_elapsed":1337737,"internal_node_id":"0.0-6.0"},{"rt":7326.10000000149,"stimulus":"<h1 style=\"margin-top: 5%\">Cuestionario para la Evaluación de Metas Académicas</h1><p style=\"font-size: 120%; margin-left: 3%; margin-top: 5%\">Este es un cuestionario que permite conocer cuáles son los principales motivos por los que los estudiantes se esfuerzan en su trabajo académico. A continuación, se te presentarán una serie de afirmaciones acerca de los motivos que puedes tener para estudiar.<br>Te pedimos que contestes a dichas afirmaciones reflexionando sobre el contenido de cada una de ellas, que, aunque te parezcan semejantes, en realidad, no lo son.<br>NO HAY RESPUESTAS CORRECTAS o INCORRECTAS, sólo queremos que respondas con la mayor precisión y sinceridad posible a las preguntas que se plantean.","response":0,"trial_type":"html-button-response","trial_index":46,"time_elapsed":1345065,"internal_node_id":"0.0-7.0"},{"rt":102837.5,"response":{"Metas cuestionario pregunta1":3,"Metas cuestionario pregunta2":3,"Metas cuestionario pregunta3":2,"Metas cuestionario pregunta4":1,"Metas cuestionario pregunta5":2,"Metas cuestionario pregunta6":2,"Metas cuestionario pregunta7":4,"Metas cuestionario pregunta8":2,"Metas cuestionario pregunta9":1,"Metas cuestionario pregunta10":0,"Metas cuestionario pregunta11":0,"Metas cuestionario pregunta12":0,"Metas cuestionario pregunta13":0,"Metas cuestionario pregunta14":0,"Metas cuestionario pregunta15":3,"Metas cuestionario pregunta16":3,"Metas cuestionario pregunta17":4,"Metas cuestionario pregunta18":4,"Metas cuestionario pregunta19":3,"Metas cuestionario pregunta20":0},"question_order":[0,1,2,3,4,5,6,7,8,9,10,11,12,13,14,15,16,17,18,19],"trial_type":"survey-likert","trial_index":47,"time_elapsed":1447914,"internal_node_id":"0.0-8.0"},{"rt":1633.6999999955297,"stimulus":"<p style=\"font-size: 120%\">Gracias por responder el cuestionario. Ahora te invitamos a seguir con el juego, que es muy breve.<br><br></p>","response":0,"trial_type":"html-button-response","trial_index":48,"time_elapsed":1449556,"internal_node_id":"0.0-9.0"},{"rt":6365.60000000149,"stimulus":"<h1>Juego</h1><p style=\"font-size: 120%;\">A continuación se te presentarán 16 pequeñas historias.<br>Por favor lee el texto presentado en cada una de ellas y luego haz click en el objeto de tu elección.<br>Si estás listo(a),<span style=\"color:red;\"> haz click en \"comenzar\"</span>.</p>","response":0,"trial_type":"html-button-response","trial_index":49,"time_elapsed":1455924,"internal_node_id":"0.0-10.0"},{"rt":14774.10000000149,"grid":[[1,1,1],[1,1,1],[1,1,1],[1,1,1],[1,1,1],[1,1,1],[1,1,1],[1,1,1],[1,1,1],[1,1,1],[1,1,1]],"target":[0,0],"response":[5,1],"correct":false,"juego":5,"trial_type":"serial-reaction-time-mouse","trial_index":50,"time_elapsed":1470703,"internal_node_id":"0.0-11.0-0.0"},{"rt":6936.5,"grid":[[1,1,1],[1,1,1],[1,1,1],[1,1,1],[1,1,1],[1,1,1],[1,1,1],[1,1,1],[1,1,1],[1,1,1],[1,1,1]],"target":[0,0],"response":[9,1],"correct":false,"juego":6,"trial_type":"serial-reaction-time-mouse","trial_index":51,"time_elapsed":1477643,"internal_node_id":"0.0-11.0-1.0"},{"rt":5622.79999999702,"grid":[[1,1,1,1],[1,1,1,1],[1,1,1,1],[1,1,1,1],[1,1,1,1],[1,1,1,1],[1,1,1,1],[1,1,1,1],[1,1,1,1],[1,1,1,1],[1,1,1,1]],"target":[0,0],"response":[9,2],"correct":false,"juego":14,"trial_type":"serial-reaction-time-mouse","trial_index":52,"time_elapsed":1483269,"internal_node_id":"0.0-11.0-2.0"},{"rt":5993.5,"grid":[[1,1,1,1,1]],"target":[0,0],"response":[0,3],"correct":false,"juego":1,"trial_type":"serial-reaction-time-mouse","trial_index":53,"time_elapsed":1489265,"internal_node_id":"0.0-11.0-3.0"},{"rt":4072.2000000029802,"grid":[[1],[1],[1],[1],[1]],"target":[0,0],"response":[0,0],"correct":true,"juego":4,"trial_type":"serial-reaction-time-mouse","trial_index":54,"time_elapsed":1493340,"internal_node_id":"0.0-11.0-4.0"},{"rt":15776.80000000447,"grid":[[1,1,1],[1,1,1],[1,1,1],[1,1,1],[1,1,1],[1,1,1],[1,1,1],[1,1,1],[1,1,1],[1,1,1],[1,1,1]],"target":[0,0],"response":[1,1],"correct":false,"juego":13,"trial_type":"serial-reaction-time-mouse","trial_index":55,"time_elapsed":1509120,"internal_node_id":"0.0-11.0-5.0"},{"rt":13640.60000000149,"grid":[[1,1,1],[1,1,1],[1,1,1],[1,1,1],[1,1,1],[1,1,1],[1,1,1],[1,1,1],[1,1,1],[1,1,1],[1,1,1]],"target":[0,0],"response":[3,0],"correct":false,"juego":10,"trial_type":"serial-reaction-time-mouse","trial_index":56,"time_elapsed":1522765,"internal_node_id":"0.0-11.0-6.0"},{"rt":4243.80000000447,"grid":[[1,1,1,1,1]],"target":[0,0],"response":[0,2],"correct":false,"juego":2,"trial_type":"serial-reaction-time-mouse","trial_index":57,"time_elapsed":1527010,"internal_node_id":"0.0-11.0-7.0"},{"rt":10634.70000000298,"grid":[[1,1,1,1],[1,1,1,1],[1,1,1,1],[1,1,1,1],[1,1,1,1],[1,1,1,1],[1,1,1,1],[1,1,1,1],[1,1,1,1],[1,1,1,1],[1,1,1,1]],"target":[0,0],"response":[7,2],"correct":false,"juego":15,"trial_type":"serial-reaction-time-mouse","trial_index":58,"time_elapsed":1537649,"internal_node_id":"0.0-11.0-8.0"},{"rt":4501.4000000059605,"grid":[[1,1,1,1,1]],"target":[0,0],"response":[0,3],"correct":false,"juego":8,"trial_type":"serial-reaction-time-mouse","trial_index":59,"time_elapsed":1542153,"internal_node_id":"0.0-11.0-9.0"},{"rt":9729.20000000298,"grid":[[1,1,1,1,1]],"target":[0,0],"response":[0,2],"correct":false,"juego":3,"trial_type":"serial-reaction-time-mouse","trial_index":60,"time_elapsed":1551885,"internal_node_id":"0.0-11.0-10.0"},{"rt":14020.5,"grid":[[1,1,1,1,1]],"target":[0,0],"response":[0,1],"correct":false,"juego":12,"trial_type":"serial-reaction-time-mouse","trial_index":61,"time_elapsed":1565908,"internal_node_id":"0.0-11.0-11.0"},{"rt":8982.09999999404,"grid":[[1,1,1,1,1]],"target":[0,0],"response":[0,1],"correct":false,"juego":7,"trial_type":"serial-reaction-time-mouse","trial_index":62,"time_elapsed":1574892,"internal_node_id":"0.0-11.0-12.0"},{"rt":5302.5,"grid":[[1,1,1,1,1]],"target":[0,0],"response":[0,4],"correct":false,"juego":9,"trial_type":"serial-reaction-time-mouse","trial_index":63,"time_elapsed":1580196,"internal_node_id":"0.0-11.0-13.0"},{"rt":7389.70000000298,"grid":[[1,1,1,1,1]],"target":[0,0],"response":[0,0],"correct":true,"juego":11,"trial_type":"serial-reaction-time-mouse","trial_index":64,"time_elapsed":1587588,"internal_node_id":"0.0-11.0-14.0"},{"rt":4054,"stimulus":"<h1>Último juego</h1><p style=\"font-size: 130%;\">Tienes <span style=\"color:red\">35</span> segundos para recordar los pares de palabras que aparecerán a continuación. <br></p>","response":0,"trial_type":"html-button-response","trial_index":65,"time_elapsed":1591646,"internal_node_id":"0.0-12.0"},{"animation_sequence":[{"stimulus":"imagen_juego_interferencia.jpg","time":517.6999999955297},{"stimulus":"imagen_juego_interferencia.jpg","time":1001.5},{"stimulus":"imagen_juego_interferencia.jpg","time":1501.8999999985099},{"stimulus":"imagen_juego_interferencia.jpg","time":2004.5},{"stimulus":"imagen_juego_interferencia.jpg","time":2501.39999999851},{"stimulus":"imagen_juego_interferencia.jpg","time":3001.2999999970198},{"stimulus":"imagen_juego_interferencia.jpg","time":3502.5999999940395},{"stimulus":"imagen_juego_interferencia.jpg","time":4002.1999999955297},{"stimulus":"imagen_juego_interferencia.jpg","time":4501.89999999851},{"stimulus":"imagen_juego_interferencia.jpg","time":5001.5},{"stimulus":"imagen_juego_interferencia.jpg","time":5501.79999999702},{"stimulus":"imagen_juego_interferencia.jpg","time":6001.39999999851},{"stimulus":"imagen_juego_interferencia.jpg","time":6501.39999999851},{"stimulus":"imagen_juego_interferencia.jpg","time":7001.5},{"stimulus":"imagen_juego_interferencia.jpg","time":7506.19999999553},{"stimulus":"imagen_juego_interferencia.jpg","time":8002.5},{"stimulus":"imagen_juego_interferencia.jpg","time":8502.59999999404},{"stimulus":"imagen_juego_interferencia.jpg","time":9002.69999999553},{"stimulus":"imagen_juego_interferencia.jpg","time":9501.39999999851},{"stimulus":"imagen_juego_interferencia.jpg","time":10006.19999999553},{"stimulus":"imagen_juego_interferencia.jpg","time":10501.29999999702},{"stimulus":"imagen_juego_interferencia.jpg","time":11001.39999999851},{"stimulus":"imagen_juego_interferencia.jpg","time":11501.79999999702},{"stimulus":"imagen_juego_interferencia.jpg","time":12004.5},{"stimulus":"imagen_juego_interferencia.jpg","time":12501.79999999702},{"stimulus":"imagen_juego_interferencia.jpg","time":13001.39999999851},{"stimulus":"imagen_juego_interferencia.jpg","time":13501.39999999851},{"stimulus":"imagen_juego_interferencia.jpg","time":14001.39999999851},{"stimulus":"imagen_juego_interferencia.jpg","time":14502.5},{"stimulus":"imagen_juego_interferencia.jpg","time":15002.39999999851},{"stimulus":"imagen_juego_interferencia.jpg","time":15506.19999999553},{"stimulus":"imagen_juego_interferencia.jpg","time":16002.09999999404},{"stimulus":"imagen_juego_interferencia.jpg","time":16506.19999999553},{"stimulus":"imagen_juego_interferencia.jpg","time":17006.29999999702},{"stimulus":"imagen_juego_interferencia.jpg","time":17506.29999999702},{"stimulus":"imagen_juego_interferencia.jpg","time":18004.39999999851},{"stimulus":"imagen_juego_interferencia.jpg","time":18506.29999999702},{"stimulus":"imagen_juego_interferencia.jpg","time":19006.19999999553},{"stimulus":"imagen_juego_interferencia.jpg","time":19506.29999999702},{"stimulus":"imagen_juego_interferencia.jpg","time":20006.29999999702},{"stimulus":"imagen_juego_interferencia.jpg","time":20506.19999999553},{"stimulus":"imagen_juego_interferencia.jpg","time":21004.5},{"stimulus":"imagen_juego_interferencia.jpg","time":21506.29999999702},{"stimulus":"imagen_juego_interferencia.jpg","time":22006.19999999553},{"stimulus":"imagen_juego_interferencia.jpg","time":22506.19999999553},{"stimulus":"imagen_juego_interferencia.jpg","time":23006.19999999553},{"stimulus":"imagen_juego_interferencia.jpg","time":23506.29999999702},{"stimulus":"imagen_juego_interferencia.jpg","time":24004.5},{"stimulus":"imagen_juego_interferencia.jpg","time":24506.29999999702},{"stimulus":"imagen_juego_interferencia.jpg","time":25004.29999999702},{"stimulus":"imagen_juego_interferencia.jpg","time":25505.59999999404},{"stimulus":"imagen_juego_interferencia.jpg","time":26006.19999999553},{"stimulus":"imagen_juego_interferencia.jpg","time":26506.19999999553},{"stimulus":"imagen_juego_interferencia.jpg","time":27004.39999999851},{"stimulus":"imagen_juego_interferencia.jpg","time":27506.19999999553},{"stimulus":"imagen_juego_interferencia.jpg","time":28006.19999999553},{"stimulus":"imagen_juego_interferencia.jpg","time":28506.19999999553},{"stimulus":"imagen_juego_interferencia.jpg","time":29006.29999999702},{"stimulus":"imagen_juego_interferencia.jpg","time":29506.19999999553},{"stimulus":"imagen_juego_interferencia.jpg","time":30004.5},{"stimulus":"imagen_juego_interferencia.jpg","time":30506.29999999702},{"stimulus":"imagen_juego_interferencia.jpg","time":31006.19999999553},{"stimulus":"imagen_juego_interferencia.jpg","time":31506.29999999702},{"stimulus":"imagen_juego_interferencia.jpg","time":32006.19999999553},{"stimulus":"imagen_juego_interferencia.jpg","time":32506.29999999702},{"stimulus":"imagen_juego_interferencia.jpg","time":33006.19999999553},{"stimulus":"imagen_juego_interferencia.jpg","time":33503.39999999851},{"stimulus":"imagen_juego_interferencia.jpg","time":34004.5},{"stimulus":"imagen_juego_interferencia.jpg","time":34506.19999999553},{"stimulus":"imagen_juego_interferencia.jpg","time":35006.19999999553}],"response":[],"trial_type":"animation","trial_index":66,"time_elapsed":1627155,"internal_node_id":"0.0-13.0"},{"rt":6334.60000000149,"responses":"{\"pregunta interferencia2\":\"saltamontes\"}","question_order":"[0]","trial_type":"survey-multi-choice-cuest","trial_index":67,"time_elapsed":1633492,"internal_node_id":"0.0-14.0-0.0"},{"rt":10137,"responses":"{\"pregunta interferencia3\":\"aluminio\"}","question_order":"[0]","trial_type":"survey-multi-choice-cuest","trial_index":68,"time_elapsed":1643636,"internal_node_id":"0.0-14.0-1.0"},{"rt":3637,"responses":"{\"pregunta interferencia1\":\"naranja\"}","question_order":"[0]","trial_type":"survey-multi-choice-cuest","trial_index":69,"time_elapsed":1647280,"internal_node_id":"0.0-14.0-2.0"},{"rt":8011.30000000447,"responses":"{\"pregunta interferencia4\":\"contador\"}","question_order":"[0]","trial_type":"survey-multi-choice-cuest","trial_index":70,"time_elapsed":1655298,"internal_node_id":"0.0-14.0-3.0"},{"success":true,"trial_type":"fullscreen","trial_index":71,"time_elapsed":1656311,"internal_node_id":"0.0-15.0"}]