[{"rt":21961.39999999851,"stimulus":"<h1 style=\"color:red; margin-top: 3%;\">¡Bienvenido(a)!</h1><p style=\"text-align:left; justify-content:space-between; margin-right: 5%; margin-left: 5%; margin-top: 5%\"> Antes de empezar el estudio, necesitamos que nos confirmes que estás de acuerdo con participar. Recuerda que tu participación es 100% voluntaria y que lo único que te pedimos es responder lo mejor que puedas. Recuerda también que el estudio incluye:</p><ol style=\"text-align:left; justify-content:space-between; margin-right: 5%; margin-left: 5%;\"><li> un ejercicio de resolución de preguntas de selección múltiple (30’),</li><li>un cuestionario breve (5’),</li><li>un juego muy breve (3’),</li></ol><p style=\"text-align:left; justify-content:space-between; margin-right: 5%; margin-left: 5%;\">Si quieres participar, haz clic en “Acepto” luego de leer lo siguiente:<br></p><p style=\"text-align:left; justify-content:space-between; margin-right: 5%; margin-left: 5%;\">Acepto participar en el estudio “Estrategias de lectura y resolución de preguntas de selección múltiple”, en los términos aquí señalados:<br></p><p style=\"text-align:left; justify-content:space-between; margin-right: 5%; margin-left: 5%;\"><a href=\"http://ciae.uchile.cl/download.php?file=noticias/Asentimiento.pdf\" target=\"_blank\">Link a la hoja de información del Consentimiento.</a></p><p style=\"text-align:left; justify-content:space-between; margin-right: 5%; margin-left: 5%;\">Declaro que he leído (o se me ha leído) y (he) comprendido, las condiciones de mi participación en este estudio. He tenido la oportunidad de hacer preguntas y éstas han sido respondidas. No tengo dudas al respecto.</p>","response":0,"condicion_MCQ":7,"condicion_JUEGO":87,"condicion_INTER":15,"numero_participante":87,"numero_version":1,"dimx":1440,"dimy":900,"color_profundidad":30,"pixel_profundidad":30,"Browser":"Google Chrome","dia":23,"mes":5,"hora":18,"minuto":19,"segundo":45,"trial_type":"html-button-response","trial_index":0,"time_elapsed":21964,"internal_node_id":"0.0-0.0"},{"success":true,"trial_type":"fullscreen","trial_index":1,"time_elapsed":29076,"internal_node_id":"0.0-1.0"},{"rt":49717.30000000447,"responses":"{\"Nombres\":\"Josefa Antonia\",\"Apellidos\":\"Tassara Alfaro\",\"Edad\":\"18\",\"Sexo\":\"mujer\",\"Curso\":\"201\",\"Colegio\":\"Universidad\",\"Contacto\":\"j.tassaraalfaro@uandresbello.edu\"}","trial_type":"survey-text","trial_index":2,"time_elapsed":78804,"internal_node_id":"0.0-2.0"},{"success":true,"timeout":false,"failed_images":[],"failed_audio":[],"failed_video":[],"trial_type":"preload","trial_index":3,"time_elapsed":84349,"internal_node_id":"0.0-3.0"},{"rt":12090.39999999851,"stimulus":"<h1 style:\"margin-top: 5%;\">Ejercicios de Comprensión de Lectura de la Universidad de Chile</h1><p style=\"font-size: 120%;\">En esta actividad, debes responder 20 preguntas de selección múltiple. Cada pregunta presenta 5 respuestas alternativas, pero sólo una de ellas es correcta. Por lo tanto, debes escoger una sola alternativa para cada pregunta. Además, debes reportar qué tan seguro(a) estás de la respuesta que das, con un:</p><ol style=\"font-size: 120%;text-align:left;margin-left: 40%;\"><li>No estoy seguro(a) para nada</li><li>No estoy muy seguro(a)</li><li>Estoy bastante seguro(a)</li><li>Estoy totalmente seguro(a)</li></ol><p style=\"font-size: 120%;\">Por favor lee bien los enunciados antes de responder. ¡Éxito!</p>","response":0,"trial_type":"html-button-response","trial_index":4,"time_elapsed":96440,"internal_node_id":"0.0-4.0"},{"rt":78382.39999999851,"responses":"{\"pregunta9\":\"d) Homenajear a quienes murieron.\"}","question_order":"[0]","trial_type":"survey-multi-choice","trial_index":5,"time_elapsed":174823,"internal_node_id":"0.0-5.0-0.0"},{"rt":4145.10000000149,"response":{"pregunta9 likert":3},"question_order":[0],"trial_type":"survey-likert","trial_index":6,"time_elapsed":178970,"internal_node_id":"0.0-5.0-1.0"},{"rt":45636.29999999702,"responses":"{\"pregunta1\":\"b) Aportan informaciones con las que se reconstruye el personaje dentro de un relato.\"}","question_order":"[0]","trial_type":"survey-multi-choice","trial_index":7,"time_elapsed":224607,"internal_node_id":"0.0-5.0-2.0"},{"rt":3474.2000000029802,"response":{"pregunta1 likert":3},"question_order":[0],"trial_type":"survey-likert","trial_index":8,"time_elapsed":228082,"internal_node_id":"0.0-5.0-3.0"},{"rt":47513.40000000596,"responses":"{\"pregunta10\":\"d) Al premio merecido después de tantos esfuerzos.\"}","question_order":"[0]","trial_type":"survey-multi-choice","trial_index":9,"time_elapsed":275596,"internal_node_id":"0.0-5.0-4.0"},{"rt":2164.89999999851,"response":{"pregunta10 likert":3},"question_order":[0],"trial_type":"survey-likert","trial_index":10,"time_elapsed":277762,"internal_node_id":"0.0-5.0-5.0"},{"rt":59781.30000000447,"responses":"{\"pregunta13\":\"a) Los seguros médicos deberían considerar el ingreso de Bomberos, pues son los que más los necesitan.\"}","question_order":"[0]","trial_type":"survey-multi-choice","trial_index":11,"time_elapsed":337544,"internal_node_id":"0.0-5.0-6.0"},{"rt":2286.2999999970198,"response":{"pregunta13 likert":3},"question_order":[0],"trial_type":"survey-likert","trial_index":12,"time_elapsed":339833,"internal_node_id":"0.0-5.0-7.0"},{"rt":60151.10000000149,"responses":"{\"pregunta5\":\"c) El ser humano se comporta de acuerdo con las circunstancias.\"}","question_order":"[0]","trial_type":"survey-multi-choice","trial_index":13,"time_elapsed":399984,"internal_node_id":"0.0-5.0-8.0"},{"rt":1841.9000000059605,"response":{"pregunta5 likert":3},"question_order":[0],"trial_type":"survey-likert","trial_index":14,"time_elapsed":401827,"internal_node_id":"0.0-5.0-9.0"},{"rt":66672.5,"responses":"{\"pregunta15\":\"c) El receptor es el que posee la decisión sobre la publicidad.\"}","question_order":"[0]","trial_type":"survey-multi-choice","trial_index":15,"time_elapsed":468500,"internal_node_id":"0.0-5.0-10.0"},{"rt":2560.2999999970198,"response":{"pregunta15 likert":3},"question_order":[0],"trial_type":"survey-likert","trial_index":16,"time_elapsed":471062,"internal_node_id":"0.0-5.0-11.0"},{"rt":92613.69999999553,"responses":"{\"pregunta16\":\"a) sufren dolores de espalda.\"}","question_order":"[0]","trial_type":"survey-multi-choice","trial_index":17,"time_elapsed":563672,"internal_node_id":"0.0-5.0-12.0"},{"rt":1946.8999999985099,"response":{"pregunta16 likert":3},"question_order":[0],"trial_type":"survey-likert","trial_index":18,"time_elapsed":565617,"internal_node_id":"0.0-5.0-13.0"},{"rt":76835.19999999553,"responses":"{\"pregunta11\":\"e) el mejor emperador es el que está muerto.\"}","question_order":"[0]","trial_type":"survey-multi-choice","trial_index":19,"time_elapsed":642428,"internal_node_id":"0.0-5.0-14.0"},{"rt":2035.5,"response":{"pregunta11 likert":2},"question_order":[0],"trial_type":"survey-likert","trial_index":20,"time_elapsed":644465,"internal_node_id":"0.0-5.0-15.0"},{"rt":120815.10000000149,"responses":"{\"pregunta4\":\"d) Criticar la mezcla de estilos que se puede observar en la muestra que exhibe Casa Mater.\"}","question_order":"[0]","trial_type":"survey-multi-choice","trial_index":21,"time_elapsed":765278,"internal_node_id":"0.0-5.0-16.0"},{"rt":2262.1999999955297,"response":{"pregunta4 likert":1},"question_order":[0],"trial_type":"survey-likert","trial_index":22,"time_elapsed":767542,"internal_node_id":"0.0-5.0-17.0"},{"rt":77406.70000000298,"responses":"{\"pregunta2\":\"e) A la relación entre sociedad y constitución social.\"}","question_order":"[0]","trial_type":"survey-multi-choice","trial_index":23,"time_elapsed":844948,"internal_node_id":"0.0-5.0-18.0"},{"rt":2091.8000000044703,"response":{"pregunta2 likert":2},"question_order":[0],"trial_type":"survey-likert","trial_index":24,"time_elapsed":847042,"internal_node_id":"0.0-5.0-19.0"},{"rt":52729.5,"responses":"{\"pregunta17\":\"a) Nuestra economía vivirá un proceso de ajuste a la nueva realidad.\"}","question_order":"[0]","trial_type":"survey-multi-choice","trial_index":25,"time_elapsed":899775,"internal_node_id":"0.0-5.0-20.0"},{"rt":1874.3999999985099,"response":{"pregunta17 likert":3},"question_order":[0],"trial_type":"survey-likert","trial_index":26,"time_elapsed":901651,"internal_node_id":"0.0-5.0-21.0"},{"rt":72201.5,"responses":"{\"pregunta14\":\"d) A la inexistencia de un recinto adecuado para el recital.\"}","question_order":"[0]","trial_type":"survey-multi-choice","trial_index":27,"time_elapsed":973852,"internal_node_id":"0.0-5.0-22.0"},{"rt":2237.2999999970198,"response":{"pregunta14 likert":3},"question_order":[0],"trial_type":"survey-likert","trial_index":28,"time_elapsed":976091,"internal_node_id":"0.0-5.0-23.0"},{"rt":82967.20000000298,"responses":"{\"pregunta8\":\"b) Deleitar a sus receptores por medio de la belleza y el confort.\"}","question_order":"[0]","trial_type":"survey-multi-choice","trial_index":29,"time_elapsed":1059058,"internal_node_id":"0.0-5.0-24.0"},{"rt":1889.1000000014901,"response":{"pregunta8 likert":2},"question_order":[0],"trial_type":"survey-likert","trial_index":30,"time_elapsed":1060948,"internal_node_id":"0.0-5.0-25.0"},{"rt":66398.79999999702,"responses":"{\"pregunta12\":\"e) el uranio es el elemento natural con el mayor número de protones en el núcleo.\"}","question_order":"[0]","trial_type":"survey-multi-choice","trial_index":31,"time_elapsed":1127347,"internal_node_id":"0.0-5.0-26.0"},{"rt":1728,"response":{"pregunta12 likert":3},"question_order":[0],"trial_type":"survey-likert","trial_index":32,"time_elapsed":1129077,"internal_node_id":"0.0-5.0-27.0"},{"rt":68903.79999999702,"responses":"{\"pregunta19\":\"a) la Muerte vaticina el futuro mediante gestos.\"}","question_order":"[0]","trial_type":"survey-multi-choice","trial_index":33,"time_elapsed":1197980,"internal_node_id":"0.0-5.0-28.0"},{"rt":2173.60000000149,"response":{"pregunta19 likert":3},"question_order":[0],"trial_type":"survey-likert","trial_index":34,"time_elapsed":1200155,"internal_node_id":"0.0-5.0-29.0"},{"rt":112977.79999999702,"responses":"{\"pregunta7\":\"d) ritualistas y obsesivos.\"}","question_order":"[0]","trial_type":"survey-multi-choice","trial_index":35,"time_elapsed":1313131,"internal_node_id":"0.0-5.0-30.0"},{"rt":2341.89999999851,"response":{"pregunta7 likert":0},"question_order":[0],"trial_type":"survey-likert","trial_index":36,"time_elapsed":1315475,"internal_node_id":"0.0-5.0-31.0"},{"rt":116657,"responses":"{\"pregunta6\":\"e) un recuerdo nostálgico.\"}","question_order":"[0]","trial_type":"survey-multi-choice","trial_index":37,"time_elapsed":1432130,"internal_node_id":"0.0-5.0-32.0"},{"rt":2504.39999999851,"response":{"pregunta6 likert":2},"question_order":[0],"trial_type":"survey-likert","trial_index":38,"time_elapsed":1434636,"internal_node_id":"0.0-5.0-33.0"},{"rt":59534.20000000298,"responses":"{\"pregunta18\":\"e) El derecho a informar y el derecho a la privacidad son inconciliables.\"}","question_order":"[0]","trial_type":"survey-multi-choice","trial_index":39,"time_elapsed":1494110,"internal_node_id":"0.0-5.0-34.0"},{"rt":2011.5,"response":{"pregunta18 likert":2},"question_order":[0],"trial_type":"survey-likert","trial_index":40,"time_elapsed":1496123,"internal_node_id":"0.0-5.0-35.0"},{"rt":25328.89999999851,"responses":"{\"pregunta20\":\"b) para el mexicano, la muerte es cotidiana.\"}","question_order":"[0]","trial_type":"survey-multi-choice","trial_index":41,"time_elapsed":1521452,"internal_node_id":"0.0-5.0-36.0"},{"rt":2333.60000000149,"response":{"pregunta20 likert":3},"question_order":[0],"trial_type":"survey-likert","trial_index":42,"time_elapsed":1523788,"internal_node_id":"0.0-5.0-37.0"},{"rt":62733.5,"responses":"{\"pregunta3\":\"a) La escritura plasma los mejores momentos de los viajes.\"}","question_order":"[0]","trial_type":"survey-multi-choice","trial_index":43,"time_elapsed":1586521,"internal_node_id":"0.0-5.0-38.0"},{"rt":3586.1999999955297,"response":{"pregunta3 likert":1},"question_order":[0],"trial_type":"survey-likert","trial_index":44,"time_elapsed":1590108,"internal_node_id":"0.0-5.0-39.0"},{"rt":3318.9000000059605,"stimulus":"<p style=\"font-size: 120%\">Gracias por completar esta etapa del estudio. Ahora te invitamos a responder el cuestionario.<br><br></p>","response":0,"trial_type":"html-button-response","trial_index":45,"time_elapsed":1593430,"internal_node_id":"0.0-6.0"},{"rt":23017.20000000298,"stimulus":"<h1 style=\"margin-top: 5%\">Cuestionario para la Evaluación de Metas Académicas</h1><p style=\"font-size: 120%; margin-left: 3%; margin-top: 5%\">Este es un cuestionario que permite conocer cuáles son los principales motivos por los que los estudiantes se esfuerzan en su trabajo académico. A continuación, se te presentarán una serie de afirmaciones acerca de los motivos que puedes tener para estudiar.<br>Te pedimos que contestes a dichas afirmaciones reflexionando sobre el contenido de cada una de ellas, que, aunque te parezcan semejantes, en realidad, no lo son.<br>NO HAY RESPUESTAS CORRECTAS o INCORRECTAS, sólo queremos que respondas con la mayor precisión y sinceridad posible a las preguntas que se plantean.","response":0,"trial_type":"html-button-response","trial_index":46,"time_elapsed":1616447,"internal_node_id":"0.0-7.0"},{"rt":89158.5,"response":{"Metas cuestionario pregunta1":2,"Metas cuestionario pregunta2":3,"Metas cuestionario pregunta3":3,"Metas cuestionario pregunta4":3,"Metas cuestionario pregunta5":3,"Metas cuestionario pregunta6":3,"Metas cuestionario pregunta7":4,"Metas cuestionario pregunta8":3,"Metas cuestionario pregunta9":3,"Metas cuestionario pregunta10":1,"Metas cuestionario pregunta11":0,"Metas cuestionario pregunta12":0,"Metas cuestionario pregunta13":1,"Metas cuestionario pregunta14":0,"Metas cuestionario pregunta15":4,"Metas cuestionario pregunta16":4,"Metas cuestionario pregunta17":4,"Metas cuestionario pregunta18":4,"Metas cuestionario pregunta19":4,"Metas cuestionario pregunta20":2},"question_order":[0,1,2,3,4,5,6,7,8,9,10,11,12,13,14,15,16,17,18,19],"trial_type":"survey-likert","trial_index":47,"time_elapsed":1705611,"internal_node_id":"0.0-8.0"},{"rt":3335.7999999970198,"stimulus":"<p style=\"font-size: 120%\">Gracias por responder el cuestionario. Ahora te invitamos a seguir con el juego, que es muy breve.<br><br></p>","response":0,"trial_type":"html-button-response","trial_index":48,"time_elapsed":1708949,"internal_node_id":"0.0-9.0"},{"rt":9908.29999999702,"stimulus":"<h1>Juego</h1><p style=\"font-size: 120%;\">A continuación se te presentarán 16 pequeñas historias.<br>Por favor lee el texto presentado en cada una de ellas y luego haz click en el objeto de tu elección.<br>Si estás listo(a),<span style=\"color:red;\"> haz click en \"comenzar\"</span>.</p>","response":0,"trial_type":"html-button-response","trial_index":49,"time_elapsed":1718858,"internal_node_id":"0.0-10.0"},{"rt":25594.10000000149,"grid":[[1,1,1,1,1]],"target":[0,0],"response":[0,1],"correct":false,"juego":7,"trial_type":"serial-reaction-time-mouse","trial_index":50,"time_elapsed":1744453,"internal_node_id":"0.0-11.0-0.0"},{"rt":10848.69999999553,"grid":[[1,1,1],[1,1,1],[1,1,1],[1,1,1],[1,1,1],[1,1,1],[1,1,1],[1,1,1],[1,1,1],[1,1,1],[1,1,1]],"target":[0,0],"response":[3,1],"correct":false,"juego":5,"trial_type":"serial-reaction-time-mouse","trial_index":51,"time_elapsed":1755303,"internal_node_id":"0.0-11.0-1.0"},{"rt":10553.29999999702,"grid":[[1,1,1,1,1]],"target":[0,0],"response":[0,1],"correct":false,"juego":2,"trial_type":"serial-reaction-time-mouse","trial_index":52,"time_elapsed":1765857,"internal_node_id":"0.0-11.0-2.0"},{"rt":14707.60000000149,"grid":[[1,1,1,1,1]],"target":[0,0],"response":[0,1],"correct":false,"juego":3,"trial_type":"serial-reaction-time-mouse","trial_index":53,"time_elapsed":1780565,"internal_node_id":"0.0-11.0-3.0"},{"rt":4559,"grid":[[1],[1],[1],[1],[1]],"target":[0,0],"response":[0,0],"correct":true,"juego":4,"trial_type":"serial-reaction-time-mouse","trial_index":54,"time_elapsed":1785125,"internal_node_id":"0.0-11.0-4.0"},{"rt":15963.19999999553,"grid":[[1,1,1],[1,1,1],[1,1,1],[1,1,1],[1,1,1],[1,1,1],[1,1,1],[1,1,1],[1,1,1],[1,1,1],[1,1,1]],"target":[0,0],"response":[7,1],"correct":false,"juego":13,"trial_type":"serial-reaction-time-mouse","trial_index":55,"time_elapsed":1801092,"internal_node_id":"0.0-11.0-5.0"},{"rt":20194.70000000298,"grid":[[1,1,1,1,1]],"target":[0,0],"response":[0,0],"correct":true,"juego":11,"trial_type":"serial-reaction-time-mouse","trial_index":56,"time_elapsed":1821287,"internal_node_id":"0.0-11.0-6.0"},{"rt":7884.89999999851,"grid":[[1,1,1,1],[1,1,1,1],[1,1,1,1],[1,1,1,1],[1,1,1,1],[1,1,1,1],[1,1,1,1],[1,1,1,1],[1,1,1,1],[1,1,1,1],[1,1,1,1]],"target":[0,0],"response":[7,2],"correct":false,"juego":14,"trial_type":"serial-reaction-time-mouse","trial_index":57,"time_elapsed":1829174,"internal_node_id":"0.0-11.0-7.0"},{"rt":12753.5,"grid":[[1,1,1,1,1]],"target":[0,0],"response":[0,4],"correct":false,"juego":8,"trial_type":"serial-reaction-time-mouse","trial_index":58,"time_elapsed":1841929,"internal_node_id":"0.0-11.0-8.0"},{"rt":22686.90000000596,"grid":[[1,1,1,1],[1,1,1,1],[1,1,1,1],[1,1,1,1],[1,1,1,1],[1,1,1,1],[1,1,1,1],[1,1,1,1],[1,1,1,1],[1,1,1,1],[1,1,1,1]],"target":[0,0],"response":[9,2],"correct":false,"juego":15,"trial_type":"serial-reaction-time-mouse","trial_index":59,"time_elapsed":1864617,"internal_node_id":"0.0-11.0-9.0"},{"rt":6429.5,"grid":[[1,1,1],[1,1,1],[1,1,1],[1,1,1],[1,1,1],[1,1,1],[1,1,1],[1,1,1],[1,1,1],[1,1,1],[1,1,1]],"target":[0,0],"response":[7,1],"correct":false,"juego":6,"trial_type":"serial-reaction-time-mouse","trial_index":60,"time_elapsed":1871048,"internal_node_id":"0.0-11.0-10.0"},{"rt":15257.30000000447,"grid":[[1,1,1,1,1]],"target":[0,0],"response":[0,1],"correct":false,"juego":12,"trial_type":"serial-reaction-time-mouse","trial_index":61,"time_elapsed":1886306,"internal_node_id":"0.0-11.0-11.0"},{"rt":4709.79999999702,"grid":[[1,1,1,1,1]],"target":[0,0],"response":[0,2],"correct":false,"juego":1,"trial_type":"serial-reaction-time-mouse","trial_index":62,"time_elapsed":1891016,"internal_node_id":"0.0-11.0-12.0"},{"rt":15775.70000000298,"grid":[[1,1,1,1,1]],"target":[0,0],"response":[0,4],"correct":false,"juego":9,"trial_type":"serial-reaction-time-mouse","trial_index":63,"time_elapsed":1906792,"internal_node_id":"0.0-11.0-13.0"},{"rt":9745,"grid":[[1,1,1],[1,1,1],[1,1,1],[1,1,1],[1,1,1],[1,1,1],[1,1,1],[1,1,1],[1,1,1],[1,1,1],[1,1,1]],"target":[0,0],"response":[9,2],"correct":false,"juego":10,"trial_type":"serial-reaction-time-mouse","trial_index":64,"time_elapsed":1916539,"internal_node_id":"0.0-11.0-14.0"},{"rt":7821.5,"stimulus":"<h1>Último juego</h1><p style=\"font-size: 130%;\">Tienes <span style=\"color:red\">35</span> segundos para recordar los pares de palabras que aparecerán a continuación. <br></p>","response":0,"trial_type":"html-button-response","trial_index":65,"time_elapsed":1924363,"internal_node_id":"0.0-12.0"},{"animation_sequence":[{"stimulus":"imagen_juego_interferencia.jpg","time":510.5},{"stimulus":"imagen_juego_interferencia.jpg","time":1001.2000000029802},{"stimulus":"imagen_juego_interferencia.jpg","time":1501},{"stimulus":"imagen_juego_interferencia.jpg","time":2004.2000000029802},{"stimulus":"imagen_juego_interferencia.jpg","time":2501.39999999851},{"stimulus":"imagen_juego_interferencia.jpg","time":3002.39999999851},{"stimulus":"imagen_juego_interferencia.jpg","time":3501.5},{"stimulus":"imagen_juego_interferencia.jpg","time":4005.10000000149},{"stimulus":"imagen_juego_interferencia.jpg","time":4506.10000000149},{"stimulus":"imagen_juego_interferencia.jpg","time":5004.79999999702},{"stimulus":"imagen_juego_interferencia.jpg","time":5504.29999999702},{"stimulus":"imagen_juego_interferencia.jpg","time":6001.5},{"stimulus":"imagen_juego_interferencia.jpg","time":6502.79999999702},{"stimulus":"imagen_juego_interferencia.jpg","time":7003.60000000149},{"stimulus":"imagen_juego_interferencia.jpg","time":7504.79999999702},{"stimulus":"imagen_juego_interferencia.jpg","time":8002.29999999702},{"stimulus":"imagen_juego_interferencia.jpg","time":8506.39999999851},{"stimulus":"imagen_juego_interferencia.jpg","time":9006.29999999702},{"stimulus":"imagen_juego_interferencia.jpg","time":9502.10000000149},{"stimulus":"imagen_juego_interferencia.jpg","time":10004.20000000298},{"stimulus":"imagen_juego_interferencia.jpg","time":10506.29999999702},{"stimulus":"imagen_juego_interferencia.jpg","time":11003.29999999702},{"stimulus":"imagen_juego_interferencia.jpg","time":11504.29999999702},{"stimulus":"imagen_juego_interferencia.jpg","time":12006.29999999702},{"stimulus":"imagen_juego_interferencia.jpg","time":12502.60000000149},{"stimulus":"imagen_juego_interferencia.jpg","time":13006.60000000149},{"stimulus":"imagen_juego_interferencia.jpg","time":13506.20000000298},{"stimulus":"imagen_juego_interferencia.jpg","time":14006.20000000298},{"stimulus":"imagen_juego_interferencia.jpg","time":14506.29999999702},{"stimulus":"imagen_juego_interferencia.jpg","time":15006.29999999702},{"stimulus":"imagen_juego_interferencia.jpg","time":15506.29999999702},{"stimulus":"imagen_juego_interferencia.jpg","time":16003.39999999851},{"stimulus":"imagen_juego_interferencia.jpg","time":16503.39999999851},{"stimulus":"imagen_juego_interferencia.jpg","time":17006.20000000298},{"stimulus":"imagen_juego_interferencia.jpg","time":17506.29999999702},{"stimulus":"imagen_juego_interferencia.jpg","time":18001.29999999702},{"stimulus":"imagen_juego_interferencia.jpg","time":18503.29999999702},{"stimulus":"imagen_juego_interferencia.jpg","time":19004.20000000298},{"stimulus":"imagen_juego_interferencia.jpg","time":19506.29999999702},{"stimulus":"imagen_juego_interferencia.jpg","time":20006.70000000298},{"stimulus":"imagen_juego_interferencia.jpg","time":20505.70000000298},{"stimulus":"imagen_juego_interferencia.jpg","time":21003.89999999851},{"stimulus":"imagen_juego_interferencia.jpg","time":21506.29999999702},{"stimulus":"imagen_juego_interferencia.jpg","time":22006.29999999702},{"stimulus":"imagen_juego_interferencia.jpg","time":22502.5},{"stimulus":"imagen_juego_interferencia.jpg","time":23001.29999999702},{"stimulus":"imagen_juego_interferencia.jpg","time":23501},{"stimulus":"imagen_juego_interferencia.jpg","time":24002.20000000298},{"stimulus":"imagen_juego_interferencia.jpg","time":24506.20000000298},{"stimulus":"imagen_juego_interferencia.jpg","time":25006.20000000298},{"stimulus":"imagen_juego_interferencia.jpg","time":25506.29999999702},{"stimulus":"imagen_juego_interferencia.jpg","time":26006.29999999702},{"stimulus":"imagen_juego_interferencia.jpg","time":26506.10000000149},{"stimulus":"imagen_juego_interferencia.jpg","time":27006.60000000149},{"stimulus":"imagen_juego_interferencia.jpg","time":27502.5},{"stimulus":"imagen_juego_interferencia.jpg","time":28006.70000000298},{"stimulus":"imagen_juego_interferencia.jpg","time":28506.39999999851},{"stimulus":"imagen_juego_interferencia.jpg","time":29002.29999999702},{"stimulus":"imagen_juego_interferencia.jpg","time":29506.29999999702},{"stimulus":"imagen_juego_interferencia.jpg","time":30003.5},{"stimulus":"imagen_juego_interferencia.jpg","time":30500.89999999851},{"stimulus":"imagen_juego_interferencia.jpg","time":31001.70000000298},{"stimulus":"imagen_juego_interferencia.jpg","time":31505.20000000298},{"stimulus":"imagen_juego_interferencia.jpg","time":32005.79999999702},{"stimulus":"imagen_juego_interferencia.jpg","time":32505.20000000298},{"stimulus":"imagen_juego_interferencia.jpg","time":33002.60000000149},{"stimulus":"imagen_juego_interferencia.jpg","time":33501.5},{"stimulus":"imagen_juego_interferencia.jpg","time":34006.39999999851},{"stimulus":"imagen_juego_interferencia.jpg","time":34506.70000000298},{"stimulus":"imagen_juego_interferencia.jpg","time":35006.60000000149}],"response":[],"trial_type":"animation","trial_index":66,"time_elapsed":1959869,"internal_node_id":"0.0-13.0"},{"rt":8764.89999999851,"responses":"{\"pregunta interferencia4\":\"contador\"}","question_order":"[0]","trial_type":"survey-multi-choice-cuest","trial_index":67,"time_elapsed":1968635,"internal_node_id":"0.0-14.0-0.0"},{"rt":6356.5,"responses":"{\"pregunta interferencia3\":\"plata\"}","question_order":"[0]","trial_type":"survey-multi-choice-cuest","trial_index":68,"time_elapsed":1974993,"internal_node_id":"0.0-14.0-1.0"},{"rt":4192.69999999553,"responses":"{\"pregunta interferencia1\":\"naranja\"}","question_order":"[0]","trial_type":"survey-multi-choice-cuest","trial_index":69,"time_elapsed":1979187,"internal_node_id":"0.0-14.0-2.0"},{"rt":3417.10000000149,"responses":"{\"pregunta interferencia2\":\"saltamontes\"}","question_order":"[0]","trial_type":"survey-multi-choice-cuest","trial_index":70,"time_elapsed":1982606,"internal_node_id":"0.0-14.0-3.0"},{"success":true,"trial_type":"fullscreen","trial_index":71,"time_elapsed":1983608,"internal_node_id":"0.0-15.0"}]