[{"rt":2649.0000000000005,"stimulus":"<h1 style=\"color:red; margin-top: 3%;\">¡Bienvenido(a)!</h1><p style=\"text-align:left; justify-content:space-between; margin-right: 5%; margin-left: 5%; margin-top: 5%\"> Antes de empezar el estudio, necesitamos que nos confirmes que estás de acuerdo con participar. Recuerda que tu participación es 100% voluntaria y que lo único que te pedimos es responder lo mejor que puedas. Recuerda también que el estudio incluye:</p><ol style=\"text-align:left; justify-content:space-between; margin-right: 5%; margin-left: 5%;\"><li> un ejercicio de resolución de preguntas de selección múltiple (30’),</li><li>un cuestionario breve (5’),</li><li>un juego muy breve (3’),</li></ol><p style=\"text-align:left; justify-content:space-between; margin-right: 5%; margin-left: 5%;\">Si quieres participar, haz clic en “Acepto” luego de leer lo siguiente:<br></p><p style=\"text-align:left; justify-content:space-between; margin-right: 5%; margin-left: 5%;\">Acepto participar en el estudio “Estrategias de lectura y resolución de preguntas de selección múltiple”, en los términos aquí señalados:<br></p><p style=\"text-align:left; justify-content:space-between; margin-right: 5%; margin-left: 5%;\"><a href=\"http://ciae.uchile.cl/download.php?file=noticias/Asentimiento.pdf\" target=\"_blank\">Link a la hoja de información del Consentimiento.</a></p><p style=\"text-align:left; justify-content:space-between; margin-right: 5%; margin-left: 5%;\">Declaro que he leído (o se me ha leído) y (he) comprendido, las condiciones de mi participación en este estudio. He tenido la oportunidad de hacer preguntas y éstas han sido respondidas. No tengo dudas al respecto.</p>","response":0,"condicion_MCQ":17,"condicion_JUEGO":77,"condicion_INTER":5,"numero_participante":77,"numero_version":2,"dimx":810,"dimy":1080,"color_profundidad":32,"pixel_profundidad":32,"Browser":"No identificado","dia":23,"mes":5,"hora":13,"minuto":18,"segundo":57,"trial_type":"html-button-response","trial_index":0,"time_elapsed":2653,"internal_node_id":"0.0-0.0"},{"success":true,"trial_type":"fullscreen","trial_index":1,"time_elapsed":11976,"internal_node_id":"0.0-1.0"},{"rt":127393,"responses":"{\"Nombres\":\"Valentina Isidora\",\"Apellidos\":\"López Farías\",\"Edad\":\"19\",\"Sexo\":\"Mujer\",\"Curso\":\"Sección 201\",\"Colegio\":\"Universidad Andrés Bello \",\"Contacto\":\"valelopezsm18@gmail.com\"}","trial_type":"survey-text","trial_index":2,"time_elapsed":139455,"internal_node_id":"0.0-2.0"},{"success":true,"timeout":false,"failed_images":[],"failed_audio":[],"failed_video":[],"trial_type":"preload","trial_index":3,"time_elapsed":141020,"internal_node_id":"0.0-3.0"},{"rt":9496,"stimulus":"<h1 style:\"margin-top: 5%;\">Ejercicios de Comprensión de Lectura de la Universidad de Chile</h1><p style=\"font-size: 120%;\">En esta actividad, debes responder 20 preguntas de selección múltiple. Cada pregunta presenta 5 respuestas alternativas, pero sólo una de ellas es correcta. Por lo tanto, debes escoger una sola alternativa para cada pregunta. Además, debes reportar qué tan seguro(a) estás de la respuesta que das, con un:</p><ol style=\"font-size: 120%;text-align:left;margin-left: 40%;\"><li>No estoy seguro(a) para nada</li><li>No estoy muy seguro(a)</li><li>Estoy bastante seguro(a)</li><li>Estoy totalmente seguro(a)</li></ol><p style=\"font-size: 120%;\">Por favor lee bien los enunciados antes de responder. ¡Éxito!</p>","response":0,"trial_type":"html-button-response","trial_index":4,"time_elapsed":150518,"internal_node_id":"0.0-4.0"},{"rt":68344,"responses":"{\"pregunta15\":\"c) El receptor es habitualmente pasivo frente a la publicidad.\"}","question_order":"[0]","trial_type":"survey-multi-choice","trial_index":5,"time_elapsed":218871,"internal_node_id":"0.0-5.0-0.0"},{"rt":2935,"response":{"pregunta15 likert":3},"question_order":[0],"trial_type":"survey-likert","trial_index":6,"time_elapsed":221814,"internal_node_id":"0.0-5.0-1.0"},{"rt":41220,"responses":"{\"pregunta2\":\"e) A la relación entre pensamiento y estructura social.\"}","question_order":"[0]","trial_type":"survey-multi-choice","trial_index":7,"time_elapsed":263041,"internal_node_id":"0.0-5.0-2.0"},{"rt":1932,"response":{"pregunta2 likert":1},"question_order":[0],"trial_type":"survey-likert","trial_index":8,"time_elapsed":264977,"internal_node_id":"0.0-5.0-3.0"},{"rt":27437,"responses":"{\"pregunta13\":\"c) Bomberos debería tener acceso a un seguro médico, al que pueda recurrir en caso de accidente.\"}","question_order":"[0]","trial_type":"survey-multi-choice","trial_index":9,"time_elapsed":292418,"internal_node_id":"0.0-5.0-4.0"},{"rt":1662,"response":{"pregunta13 likert":2},"question_order":[0],"trial_type":"survey-likert","trial_index":10,"time_elapsed":294084,"internal_node_id":"0.0-5.0-5.0"},{"rt":61369,"responses":"{\"pregunta19\":\"d) el jardinero estará muerto al día siguiente.\"}","question_order":"[0]","trial_type":"survey-multi-choice","trial_index":11,"time_elapsed":355456,"internal_node_id":"0.0-5.0-6.0"},{"rt":3006,"response":{"pregunta19 likert":1},"question_order":[0],"trial_type":"survey-likert","trial_index":12,"time_elapsed":358467,"internal_node_id":"0.0-5.0-7.0"},{"rt":507759,"responses":"{\"pregunta11\":\"d) la muerte de Wu Ti fue una bendición.\"}","question_order":"[0]","trial_type":"survey-multi-choice","trial_index":13,"time_elapsed":10096680,"internal_node_id":"0.0-5.0-8.0"},{"rt":2386,"response":{"pregunta11 likert":2},"question_order":[0],"trial_type":"survey-likert","trial_index":14,"time_elapsed":10099079,"internal_node_id":"0.0-5.0-9.0"},{"rt":56985,"responses":"{\"pregunta16\":\"c) sufren dolores de espalda.\"}","question_order":"[0]","trial_type":"survey-multi-choice","trial_index":15,"time_elapsed":10156070,"internal_node_id":"0.0-5.0-10.0"},{"rt":1485,"response":{"pregunta16 likert":2},"question_order":[0],"trial_type":"survey-likert","trial_index":16,"time_elapsed":10157560,"internal_node_id":"0.0-5.0-11.0"},{"rt":60673,"responses":"{\"pregunta1\":\"e) Aportan informaciones con las que se reconstruye el personaje dentro de un relato.\"}","question_order":"[0]","trial_type":"survey-multi-choice","trial_index":17,"time_elapsed":10218236,"internal_node_id":"0.0-5.0-12.0"},{"rt":1486.9999999998836,"response":{"pregunta1 likert":1},"question_order":[0],"trial_type":"survey-likert","trial_index":18,"time_elapsed":10219727,"internal_node_id":"0.0-5.0-13.0"},{"rt":90354,"responses":"{\"pregunta10\":\"c) A la inutilidad de tanto esfuerzo si el objetivo es el reposo.\"}","question_order":"[0]","trial_type":"survey-multi-choice","trial_index":19,"time_elapsed":10310083,"internal_node_id":"0.0-5.0-14.0"},{"rt":1715,"response":{"pregunta10 likert":1},"question_order":[0],"trial_type":"survey-likert","trial_index":20,"time_elapsed":10311804,"internal_node_id":"0.0-5.0-15.0"},{"rt":51588.00000000023,"responses":"{\"pregunta14\":\"c) A la influencia de grupos que rechazaban su música.\"}","question_order":"[0]","trial_type":"survey-multi-choice","trial_index":21,"time_elapsed":10363396,"internal_node_id":"0.0-5.0-16.0"},{"rt":1234,"response":{"pregunta14 likert":1},"question_order":[0],"trial_type":"survey-likert","trial_index":22,"time_elapsed":10364634,"internal_node_id":"0.0-5.0-17.0"},{"rt":37652,"responses":"{\"pregunta18\":\"d) Se necesita un marco legal para delimitar lo público y lo privado en materia informativa.\"}","question_order":"[0]","trial_type":"survey-multi-choice","trial_index":23,"time_elapsed":10402289,"internal_node_id":"0.0-5.0-18.0"},{"rt":1160,"response":{"pregunta18 likert":1},"question_order":[0],"trial_type":"survey-likert","trial_index":24,"time_elapsed":10403454,"internal_node_id":"0.0-5.0-19.0"},{"rt":102701,"responses":"{\"pregunta12\":\"a) todos los elementos químicos tienen más de noventa y dos protones en su núcleo.\"}","question_order":"[0]","trial_type":"survey-multi-choice","trial_index":25,"time_elapsed":10506156,"internal_node_id":"0.0-5.0-20.0"},{"rt":1521,"response":{"pregunta12 likert":1},"question_order":[0],"trial_type":"survey-likert","trial_index":26,"time_elapsed":10507683,"internal_node_id":"0.0-5.0-21.0"},{"rt":56301,"responses":"{\"pregunta5\":\"a) El ser humano se comporta de acuerdo con las circunstancias.\"}","question_order":"[0]","trial_type":"survey-multi-choice","trial_index":27,"time_elapsed":10563986,"internal_node_id":"0.0-5.0-22.0"},{"rt":1595,"response":{"pregunta5 likert":1},"question_order":[0],"trial_type":"survey-likert","trial_index":28,"time_elapsed":10565586,"internal_node_id":"0.0-5.0-23.0"},{"rt":43308,"responses":"{\"pregunta3\":\"d) En los viajes es esencial el momento mismo de la escritura.\"}","question_order":"[0]","trial_type":"survey-multi-choice","trial_index":29,"time_elapsed":10608897,"internal_node_id":"0.0-5.0-24.0"},{"rt":3125,"response":{"pregunta3 likert":3},"question_order":[0],"trial_type":"survey-likert","trial_index":30,"time_elapsed":10612028,"internal_node_id":"0.0-5.0-25.0"},{"rt":38857,"responses":"{\"pregunta17\":\"d) Nuestra economía vivirá un proceso de ajuste a la nueva realidad.\"}","question_order":"[0]","trial_type":"survey-multi-choice","trial_index":31,"time_elapsed":10650888,"internal_node_id":"0.0-5.0-26.0"},{"rt":1372,"response":{"pregunta17 likert":1},"question_order":[0],"trial_type":"survey-likert","trial_index":32,"time_elapsed":10652265,"internal_node_id":"0.0-5.0-27.0"},{"rt":62576,"responses":"{\"pregunta6\":\"a) preparar los recuerdos del mañana.\"}","question_order":"[0]","trial_type":"survey-multi-choice","trial_index":33,"time_elapsed":10714844,"internal_node_id":"0.0-5.0-28.0"},{"rt":1228,"response":{"pregunta6 likert":1},"question_order":[0],"trial_type":"survey-likert","trial_index":34,"time_elapsed":10716076,"internal_node_id":"0.0-5.0-29.0"},{"rt":86873,"responses":"{\"pregunta4\":\"e) Promover la asistencia a un evento específico de decoración a través de una atractiva descripción.\"}","question_order":"[0]","trial_type":"survey-multi-choice","trial_index":35,"time_elapsed":10802951,"internal_node_id":"0.0-5.0-30.0"},{"rt":1334,"response":{"pregunta4 likert":1},"question_order":[0],"trial_type":"survey-likert","trial_index":36,"time_elapsed":10804290,"internal_node_id":"0.0-5.0-31.0"},{"rt":198069.99999999977,"responses":"{\"pregunta9\":\"b) Homenajear a quienes murieron.\"}","question_order":"[0]","trial_type":"survey-multi-choice","trial_index":37,"time_elapsed":12766211,"internal_node_id":"0.0-5.0-32.0"},{"rt":1374,"response":{"pregunta9 likert":1},"question_order":[0],"trial_type":"survey-likert","trial_index":38,"time_elapsed":12767596,"internal_node_id":"0.0-5.0-33.0"},{"rt":42794,"responses":"{\"pregunta20\":\"d) para el mexicano, la muerte es cotidiana.\"}","question_order":"[0]","trial_type":"survey-multi-choice","trial_index":39,"time_elapsed":12810396,"internal_node_id":"0.0-5.0-34.0"},{"rt":2332,"response":{"pregunta20 likert":1},"question_order":[0],"trial_type":"survey-likert","trial_index":40,"time_elapsed":12812733,"internal_node_id":"0.0-5.0-35.0"},{"rt":78118.00000000023,"responses":"{\"pregunta7\":\"a) ritualistas y obsesivos.\"}","question_order":"[0]","trial_type":"survey-multi-choice","trial_index":41,"time_elapsed":12890853,"internal_node_id":"0.0-5.0-36.0"},{"rt":1524.0000000002328,"response":{"pregunta7 likert":0},"question_order":[0],"trial_type":"survey-likert","trial_index":42,"time_elapsed":12892381,"internal_node_id":"0.0-5.0-37.0"},{"rt":51621.00000000023,"responses":"{\"pregunta8\":\"e) Deleitar a sus receptores por medio de la belleza y el confort.\"}","question_order":"[0]","trial_type":"survey-multi-choice","trial_index":43,"time_elapsed":12944005,"internal_node_id":"0.0-5.0-38.0"},{"rt":1453,"response":{"pregunta8 likert":2},"question_order":[0],"trial_type":"survey-likert","trial_index":44,"time_elapsed":12945462,"internal_node_id":"0.0-5.0-39.0"}]