[{"rt":21332.60000000149,"stimulus":"<h1 style=\"color:red; margin-top: 3%;\">¡Bienvenido(a)!</h1><p style=\"text-align:left; justify-content:space-between; margin-right: 5%; margin-left: 5%; margin-top: 5%\"> Antes de empezar el estudio, necesitamos que nos confirmes que estás de acuerdo con participar. Recuerda que tu participación es 100% voluntaria y que lo único que te pedimos es responder lo mejor que puedas. Recuerda también que el estudio incluye:</p><ol style=\"text-align:left; justify-content:space-between; margin-right: 5%; margin-left: 5%;\"><li> un ejercicio de resolución de preguntas de selección múltiple (30’),</li><li>un cuestionario breve (5’),</li><li>un juego muy breve (3’),</li></ol><p style=\"text-align:left; justify-content:space-between; margin-right: 5%; margin-left: 5%;\">Si quieres participar, haz clic en “Acepto” luego de leer lo siguiente:<br></p><p style=\"text-align:left; justify-content:space-between; margin-right: 5%; margin-left: 5%;\">Acepto participar en el estudio “Estrategias de lectura y resolución de preguntas de selección múltiple”, en los términos aquí señalados:<br></p><p style=\"text-align:left; justify-content:space-between; margin-right: 5%; margin-left: 5%;\"><a href=\"http://ciae.uchile.cl/download.php?file=noticias/Asentimiento.pdf\" target=\"_blank\">Link a la hoja de información del Consentimiento.</a></p><p style=\"text-align:left; justify-content:space-between; margin-right: 5%; margin-left: 5%;\">Declaro que he leído (o se me ha leído) y (he) comprendido, las condiciones de mi participación en este estudio. He tenido la oportunidad de hacer preguntas y éstas han sido respondidas. No tengo dudas al respecto.</p>","response":0,"condicion_MCQ":9,"condicion_JUEGO":29,"condicion_INTER":5,"numero_participante":29,"numero_version":1,"dimx":1280,"dimy":800,"color_profundidad":24,"pixel_profundidad":24,"Browser":"Google Chrome","dia":18,"mes":5,"hora":14,"minuto":50,"segundo":9,"trial_type":"html-button-response","trial_index":0,"time_elapsed":21336,"internal_node_id":"0.0-0.0"},{"success":true,"trial_type":"fullscreen","trial_index":1,"time_elapsed":29205,"internal_node_id":"0.0-1.0"},{"rt":53006,"responses":"{\"Nombres\":\"Constanza Valentinca\",\"Apellidos\":\"Poblete Aguilera\",\"Edad\":\"22\",\"Sexo\":\"mujer\",\"Curso\":\"seccion 200\",\"Colegio\":\"Universidad Andres Bello \",\"Contacto\":\"coni.poblete98@gmail.com\"}","trial_type":"survey-text","trial_index":2,"time_elapsed":82221,"internal_node_id":"0.0-2.0"},{"success":true,"timeout":false,"failed_images":[],"failed_audio":[],"failed_video":[],"trial_type":"preload","trial_index":3,"time_elapsed":84282,"internal_node_id":"0.0-3.0"},{"rt":22538.89999999851,"stimulus":"<h1 style:\"margin-top: 5%;\">Ejercicios de Comprensión de Lectura de la Universidad de Chile</h1><p style=\"font-size: 120%;\">En esta actividad, debes responder 20 preguntas de selección múltiple. Cada pregunta presenta 5 respuestas alternativas, pero sólo una de ellas es correcta. Por lo tanto, debes escoger una sola alternativa para cada pregunta. Además, debes reportar qué tan seguro(a) estás de la respuesta que das, con un:</p><ol style=\"font-size: 120%;text-align:left;margin-left: 40%;\"><li>No estoy seguro(a) para nada</li><li>No estoy muy seguro(a)</li><li>Estoy bastante seguro(a)</li><li>Estoy totalmente seguro(a)</li></ol><p style=\"font-size: 120%;\">Por favor lee bien los enunciados antes de responder. ¡Éxito!</p>","response":0,"trial_type":"html-button-response","trial_index":4,"time_elapsed":106821,"internal_node_id":"0.0-4.0"},{"rt":79026.10000000149,"responses":"{\"pregunta13\":\"a) Bomberos debería tener acceso a un seguro médico, al que pueda recurrir en caso de accidente.\"}","question_order":"[0]","trial_type":"survey-multi-choice","trial_index":5,"time_elapsed":185847,"internal_node_id":"0.0-5.0-0.0"},{"rt":5646.79999999702,"response":{"pregunta13 likert":2},"question_order":[0],"trial_type":"survey-likert","trial_index":6,"time_elapsed":191501,"internal_node_id":"0.0-5.0-1.0"},{"rt":49071.10000000149,"responses":"{\"pregunta7\":\"d) ritualistas y obsesivos.\"}","question_order":"[0]","trial_type":"survey-multi-choice","trial_index":7,"time_elapsed":240577,"internal_node_id":"0.0-5.0-2.0"},{"rt":2299.7999999970198,"response":{"pregunta7 likert":3},"question_order":[0],"trial_type":"survey-likert","trial_index":8,"time_elapsed":242883,"internal_node_id":"0.0-5.0-3.0"},{"rt":67185.10000000149,"responses":"{\"pregunta8\":\"d) Provocar el deseo de la adquisición vertiginosa.\"}","question_order":"[0]","trial_type":"survey-multi-choice","trial_index":9,"time_elapsed":310072,"internal_node_id":"0.0-5.0-4.0"},{"rt":2122,"response":{"pregunta8 likert":3},"question_order":[0],"trial_type":"survey-likert","trial_index":10,"time_elapsed":312200,"internal_node_id":"0.0-5.0-5.0"},{"rt":102316.29999999702,"responses":"{\"pregunta16\":\"e) llevan un control grupal de su embarazo.\"}","question_order":"[0]","trial_type":"survey-multi-choice","trial_index":11,"time_elapsed":414519,"internal_node_id":"0.0-5.0-6.0"},{"rt":2096.1999999955297,"response":{"pregunta16 likert":2},"question_order":[0],"trial_type":"survey-likert","trial_index":12,"time_elapsed":416621,"internal_node_id":"0.0-5.0-7.0"},{"rt":139721,"responses":"{\"pregunta19\":\"b) el jardinero estará muerto al día siguiente.\"}","question_order":"[0]","trial_type":"survey-multi-choice","trial_index":13,"time_elapsed":556343,"internal_node_id":"0.0-5.0-8.0"},{"rt":2047.5,"response":{"pregunta19 likert":1},"question_order":[0],"trial_type":"survey-likert","trial_index":14,"time_elapsed":558395,"internal_node_id":"0.0-5.0-9.0"},{"rt":43916.30000000447,"responses":"{\"pregunta18\":\"b) Se necesita un marco legal para delimitar lo público y lo privado en materia informativa.\"}","question_order":"[0]","trial_type":"survey-multi-choice","trial_index":15,"time_elapsed":602316,"internal_node_id":"0.0-5.0-10.0"},{"rt":1854.4000000059605,"response":{"pregunta18 likert":3},"question_order":[0],"trial_type":"survey-likert","trial_index":16,"time_elapsed":604176,"internal_node_id":"0.0-5.0-11.0"},{"rt":86249.30000000447,"responses":"{\"pregunta1\":\"c) Aportan informaciones con las que se reconstruye el personaje dentro de un relato.\"}","question_order":"[0]","trial_type":"survey-multi-choice","trial_index":17,"time_elapsed":690428,"internal_node_id":"0.0-5.0-12.0"},{"rt":1782.4000000059605,"response":{"pregunta1 likert":2},"question_order":[0],"trial_type":"survey-likert","trial_index":18,"time_elapsed":692216,"internal_node_id":"0.0-5.0-13.0"},{"rt":88219.5,"responses":"{\"pregunta2\":\"d) A la relación entre civilización y sociedad.\"}","question_order":"[0]","trial_type":"survey-multi-choice","trial_index":19,"time_elapsed":780439,"internal_node_id":"0.0-5.0-14.0"},{"rt":2074.5,"response":{"pregunta2 likert":2},"question_order":[0],"trial_type":"survey-likert","trial_index":20,"time_elapsed":782519,"internal_node_id":"0.0-5.0-15.0"},{"rt":111816.60000000149,"responses":"{\"pregunta11\":\"c) la muerte de Wu Ti fue una bendición.\"}","question_order":"[0]","trial_type":"survey-multi-choice","trial_index":21,"time_elapsed":894338,"internal_node_id":"0.0-5.0-16.0"},{"rt":1924.1000000014901,"response":{"pregunta11 likert":2},"question_order":[0],"trial_type":"survey-likert","trial_index":22,"time_elapsed":896268,"internal_node_id":"0.0-5.0-17.0"},{"rt":58140.69999999553,"responses":"{\"pregunta9\":\"e) Homenajear a quienes murieron.\"}","question_order":"[0]","trial_type":"survey-multi-choice","trial_index":23,"time_elapsed":954413,"internal_node_id":"0.0-5.0-18.0"},{"rt":2972.2999999970198,"response":{"pregunta9 likert":2},"question_order":[0],"trial_type":"survey-likert","trial_index":24,"time_elapsed":957391,"internal_node_id":"0.0-5.0-19.0"},{"rt":114410.79999999702,"responses":"{\"pregunta12\":\"b) a partir de la manipulación del núcleo se han creado elementos químicos naturales.\"}","question_order":"[0]","trial_type":"survey-multi-choice","trial_index":25,"time_elapsed":1071804,"internal_node_id":"0.0-5.0-20.0"},{"rt":2358.2000000029802,"response":{"pregunta12 likert":1},"question_order":[0],"trial_type":"survey-likert","trial_index":26,"time_elapsed":1074168,"internal_node_id":"0.0-5.0-21.0"},{"rt":99716.89999999851,"responses":"{\"pregunta14\":\"c) A la inexistencia de un recinto adecuado para el recital.\"}","question_order":"[0]","trial_type":"survey-multi-choice","trial_index":27,"time_elapsed":1173887,"internal_node_id":"0.0-5.0-22.0"},{"rt":2494.60000000149,"response":{"pregunta14 likert":2},"question_order":[0],"trial_type":"survey-likert","trial_index":28,"time_elapsed":1176387,"internal_node_id":"0.0-5.0-23.0"},{"rt":29363.10000000149,"responses":"{\"pregunta20\":\"e) la muerte es distinta en las grandes ciudades.\"}","question_order":"[0]","trial_type":"survey-multi-choice","trial_index":29,"time_elapsed":1205755,"internal_node_id":"0.0-5.0-24.0"},{"rt":1868.3999999985099,"response":{"pregunta20 likert":2},"question_order":[0],"trial_type":"survey-likert","trial_index":30,"time_elapsed":1207629,"internal_node_id":"0.0-5.0-25.0"},{"rt":109567.89999999851,"responses":"{\"pregunta3\":\"c) Los momentos triviales de los viajes, en la escritura se vuelven significativos.\"}","question_order":"[0]","trial_type":"survey-multi-choice","trial_index":31,"time_elapsed":1317199,"internal_node_id":"0.0-5.0-26.0"},{"rt":1550.6999999955297,"response":{"pregunta3 likert":2},"question_order":[0],"trial_type":"survey-likert","trial_index":32,"time_elapsed":1318754,"internal_node_id":"0.0-5.0-27.0"},{"rt":45727.60000000149,"responses":"{\"pregunta10\":\"b) A la inutilidad de tanto esfuerzo si el objetivo es el reposo.\"}","question_order":"[0]","trial_type":"survey-multi-choice","trial_index":33,"time_elapsed":1364487,"internal_node_id":"0.0-5.0-28.0"},{"rt":1888,"response":{"pregunta10 likert":2},"question_order":[0],"trial_type":"survey-likert","trial_index":34,"time_elapsed":1366381,"internal_node_id":"0.0-5.0-29.0"},{"rt":102522.10000000149,"responses":"{\"pregunta4\":\"c) Promover la asistencia a un evento específico de decoración a través de una atractiva descripción.\"}","question_order":"[0]","trial_type":"survey-multi-choice","trial_index":35,"time_elapsed":1468906,"internal_node_id":"0.0-5.0-30.0"},{"rt":1272.5999999940395,"response":{"pregunta4 likert":2},"question_order":[0],"trial_type":"survey-likert","trial_index":36,"time_elapsed":1470185,"internal_node_id":"0.0-5.0-31.0"},{"rt":40255.80000000447,"responses":"{\"pregunta6\":\"d) preparar los recuerdos del mañana.\"}","question_order":"[0]","trial_type":"survey-multi-choice","trial_index":37,"time_elapsed":1510445,"internal_node_id":"0.0-5.0-32.0"},{"rt":1540.7999999970198,"response":{"pregunta6 likert":2},"question_order":[0],"trial_type":"survey-likert","trial_index":38,"time_elapsed":1511992,"internal_node_id":"0.0-5.0-33.0"},{"rt":84271.70000000298,"responses":"{\"pregunta5\":\"e) Lo que es normal en un asilo es anormal en un campo de concentración.\"}","question_order":"[0]","trial_type":"survey-multi-choice","trial_index":39,"time_elapsed":1596266,"internal_node_id":"0.0-5.0-34.0"},{"rt":1600.9000000059605,"response":{"pregunta5 likert":2},"question_order":[0],"trial_type":"survey-likert","trial_index":40,"time_elapsed":1597872,"internal_node_id":"0.0-5.0-35.0"},{"rt":45935.80000000447,"responses":"{\"pregunta17\":\"a) El TLC causará una completa transformación de la economía chilena.\"}","question_order":"[0]","trial_type":"survey-multi-choice","trial_index":41,"time_elapsed":1643812,"internal_node_id":"0.0-5.0-36.0"},{"rt":1694.4000000059605,"response":{"pregunta17 likert":2},"question_order":[0],"trial_type":"survey-likert","trial_index":42,"time_elapsed":1645512,"internal_node_id":"0.0-5.0-37.0"},{"rt":80154.60000000149,"responses":"{\"pregunta15\":\"a) El receptor es habitualmente pasivo frente a la publicidad.\"}","question_order":"[0]","trial_type":"survey-multi-choice","trial_index":43,"time_elapsed":1725670,"internal_node_id":"0.0-5.0-38.0"},{"rt":1628.4000000059605,"response":{"pregunta15 likert":2},"question_order":[0],"trial_type":"survey-likert","trial_index":44,"time_elapsed":1727304,"internal_node_id":"0.0-5.0-39.0"}]