[{"rt":26003,"stimulus":"<h1 style=\"color:red; margin-top: 3%;\">¡Bienvenido(a)!</h1><p style=\"text-align:left; justify-content:space-between; margin-right: 5%; margin-left: 5%; margin-top: 5%\"> Antes de empezar el estudio, necesitamos que nos confirmes que estás de acuerdo con participar. Recuerda que tu participación es 100% voluntaria y que lo único que te pedimos es responder lo mejor que puedas. Recuerda también que el estudio incluye:</p><ol style=\"text-align:left; justify-content:space-between; margin-right: 5%; margin-left: 5%;\"><li> un ejercicio de resolución de preguntas de selección múltiple (30’),</li><li>un cuestionario breve (5’),</li><li>un juego muy breve (3’),</li></ol><p style=\"text-align:left; justify-content:space-between; margin-right: 5%; margin-left: 5%;\">Si quieres participar, haz clic en “Acepto” luego de leer lo siguiente:<br></p><p style=\"text-align:left; justify-content:space-between; margin-right: 5%; margin-left: 5%;\">Acepto participar en el estudio “Estrategias de lectura y resolución de preguntas de selección múltiple”, en los términos aquí señalados:<br></p><p style=\"text-align:left; justify-content:space-between; margin-right: 5%; margin-left: 5%;\"><a href=\"http://ciae.uchile.cl/download.php?file=noticias/Asentimiento.pdf\" target=\"_blank\">Link a la hoja de información del Consentimiento.</a></p><p style=\"text-align:left; justify-content:space-between; margin-right: 5%; margin-left: 5%;\">Declaro que he leído (o se me ha leído) y (he) comprendido, las condiciones de mi participación en este estudio. He tenido la oportunidad de hacer preguntas y éstas han sido respondidas. No tengo dudas al respecto.</p>","response":0,"condicion_MCQ":4,"condicion_JUEGO":24,"condicion_INTER":24,"numero_participante":24,"numero_version":1,"dimx":375,"dimy":667,"color_profundidad":32,"pixel_profundidad":32,"Browser":"Apple Safari","dia":18,"mes":5,"hora":14,"minuto":17,"segundo":36,"trial_type":"html-button-response","trial_index":0,"time_elapsed":26027,"internal_node_id":"0.0-0.0"},{"success":true,"trial_type":"fullscreen","trial_index":1,"time_elapsed":34241,"internal_node_id":"0.0-1.0"},{"rt":141356,"responses":"{\"Nombres\":\"Andrea catalina \",\"Apellidos\":\"Espinaza Segovia \",\"Edad\":\"19\",\"Sexo\":\"Mujer\",\"Curso\":\"Sección 200\",\"Colegio\":\"Universidad \",\"Contacto\":\"Andrea.espinaza.s@gmail.com\"}","trial_type":"survey-text","trial_index":2,"time_elapsed":175640,"internal_node_id":"0.0-2.0"},{"success":true,"timeout":false,"failed_images":[],"failed_audio":[],"failed_video":[],"trial_type":"preload","trial_index":3,"time_elapsed":179420,"internal_node_id":"0.0-3.0"},{"rt":21699,"stimulus":"<h1 style:\"margin-top: 5%;\">Ejercicios de Comprensión de Lectura de la Universidad de Chile</h1><p style=\"font-size: 120%;\">En esta actividad, debes responder 20 preguntas de selección múltiple. Cada pregunta presenta 5 respuestas alternativas, pero sólo una de ellas es correcta. Por lo tanto, debes escoger una sola alternativa para cada pregunta. Además, debes reportar qué tan seguro(a) estás de la respuesta que das, con un:</p><ol style=\"font-size: 120%;text-align:left;margin-left: 40%;\"><li>No estoy seguro(a) para nada</li><li>No estoy muy seguro(a)</li><li>Estoy bastante seguro(a)</li><li>Estoy totalmente seguro(a)</li></ol><p style=\"font-size: 120%;\">Por favor lee bien los enunciados antes de responder. ¡Éxito!</p>","response":0,"trial_type":"html-button-response","trial_index":4,"time_elapsed":201133,"internal_node_id":"0.0-4.0"},{"rt":93648,"responses":"{\"pregunta6\":\"c) preparar los recuerdos del mañana.\"}","question_order":"[0]","trial_type":"survey-multi-choice","trial_index":5,"time_elapsed":294793,"internal_node_id":"0.0-5.0-0.0"},{"rt":5228.999999999942,"response":{"pregunta6 likert":1},"question_order":[0],"trial_type":"survey-likert","trial_index":6,"time_elapsed":300031,"internal_node_id":"0.0-5.0-1.0"},{"rt":60045.99999999994,"responses":"{\"pregunta1\":\"a) Aportan informaciones con las que se reconstruye el personaje dentro de un relato.\"}","question_order":"[0]","trial_type":"survey-multi-choice","trial_index":7,"time_elapsed":360080,"internal_node_id":"0.0-5.0-2.0"},{"rt":2864,"response":{"pregunta1 likert":2},"question_order":[0],"trial_type":"survey-likert","trial_index":8,"time_elapsed":362950,"internal_node_id":"0.0-5.0-3.0"},{"rt":201762,"responses":"{\"pregunta3\":\"e) En los viajes es esencial el momento mismo de la escritura.\"}","question_order":"[0]","trial_type":"survey-multi-choice","trial_index":9,"time_elapsed":564725,"internal_node_id":"0.0-5.0-4.0"},{"rt":4661,"response":{"pregunta3 likert":1},"question_order":[0],"trial_type":"survey-likert","trial_index":10,"time_elapsed":569404,"internal_node_id":"0.0-5.0-5.0"},{"rt":7658.999999999884,"responses":"{\"pregunta15\":\"d) La publicidad se encuentra principalmente en la televisión.\"}","question_order":"[0]","trial_type":"survey-multi-choice","trial_index":11,"time_elapsed":577068,"internal_node_id":"0.0-5.0-6.0"},{"rt":2325,"response":{"pregunta15 likert":1},"question_order":[0],"trial_type":"survey-likert","trial_index":12,"time_elapsed":579398,"internal_node_id":"0.0-5.0-7.0"},{"rt":36615,"responses":"{\"pregunta10\":\"c) A la conveniencia de no postergar el descanso personal.\"}","question_order":"[0]","trial_type":"survey-multi-choice","trial_index":13,"time_elapsed":616016,"internal_node_id":"0.0-5.0-8.0"},{"rt":2425,"response":{"pregunta10 likert":2},"question_order":[0],"trial_type":"survey-likert","trial_index":14,"time_elapsed":618445,"internal_node_id":"0.0-5.0-9.0"},{"rt":6776,"responses":"{\"pregunta7\":\"c) ritualistas y obsesivos.\"}","question_order":"[0]","trial_type":"survey-multi-choice","trial_index":15,"time_elapsed":625226,"internal_node_id":"0.0-5.0-10.0"},{"rt":3141.0000000001164,"response":{"pregunta7 likert":0},"question_order":[0],"trial_type":"survey-likert","trial_index":16,"time_elapsed":628375,"internal_node_id":"0.0-5.0-11.0"},{"rt":13233,"responses":"{\"pregunta4\":\"c) Criticar la mezcla de estilos que se puede observar en la muestra que exhibe Casa Mater.\"}","question_order":"[0]","trial_type":"survey-multi-choice","trial_index":17,"time_elapsed":641613,"internal_node_id":"0.0-5.0-12.0"},{"rt":2707.0000000001164,"response":{"pregunta4 likert":1},"question_order":[0],"trial_type":"survey-likert","trial_index":18,"time_elapsed":644326,"internal_node_id":"0.0-5.0-13.0"},{"rt":19486,"responses":"{\"pregunta2\":\"c) A la relación entre sociología y sociedad.\"}","question_order":"[0]","trial_type":"survey-multi-choice","trial_index":19,"time_elapsed":663818,"internal_node_id":"0.0-5.0-14.0"},{"rt":2752,"response":{"pregunta2 likert":1},"question_order":[0],"trial_type":"survey-likert","trial_index":20,"time_elapsed":666575,"internal_node_id":"0.0-5.0-15.0"},{"rt":4077,"responses":"{\"pregunta8\":\"b) Mostrar personajes bellos y poderosos.\"}","question_order":"[0]","trial_type":"survey-multi-choice","trial_index":21,"time_elapsed":670657,"internal_node_id":"0.0-5.0-16.0"},{"rt":3053,"response":{"pregunta8 likert":1},"question_order":[0],"trial_type":"survey-likert","trial_index":22,"time_elapsed":673713,"internal_node_id":"0.0-5.0-17.0"},{"rt":4655,"responses":"{\"pregunta9\":\"a) Revivir un periodo histórico.\"}","question_order":"[0]","trial_type":"survey-multi-choice","trial_index":23,"time_elapsed":678375,"internal_node_id":"0.0-5.0-18.0"},{"rt":3561,"response":{"pregunta9 likert":1},"question_order":[0],"trial_type":"survey-likert","trial_index":24,"time_elapsed":681941,"internal_node_id":"0.0-5.0-19.0"},{"rt":14647,"responses":"{\"pregunta16\":\"b) tienen dificultades durante el parto.\"}","question_order":"[0]","trial_type":"survey-multi-choice","trial_index":25,"time_elapsed":696593,"internal_node_id":"0.0-5.0-20.0"},{"rt":1900.0000000001164,"response":{"pregunta16 likert":1},"question_order":[0],"trial_type":"survey-likert","trial_index":26,"time_elapsed":698498,"internal_node_id":"0.0-5.0-21.0"},{"rt":21489.000000000116,"responses":"{\"pregunta13\":\"d) Bomberos debería tener acceso a un seguro médico, al que pueda recurrir en caso de accidente.\"}","question_order":"[0]","trial_type":"survey-multi-choice","trial_index":27,"time_elapsed":719992,"internal_node_id":"0.0-5.0-22.0"},{"rt":3190,"response":{"pregunta13 likert":3},"question_order":[0],"trial_type":"survey-likert","trial_index":28,"time_elapsed":723187,"internal_node_id":"0.0-5.0-23.0"},{"rt":19819,"responses":"{\"pregunta18\":\"a) Se necesita un marco legal para delimitar lo público y lo privado en materia informativa.\"}","question_order":"[0]","trial_type":"survey-multi-choice","trial_index":29,"time_elapsed":743010,"internal_node_id":"0.0-5.0-24.0"},{"rt":2815,"response":{"pregunta18 likert":1},"question_order":[0],"trial_type":"survey-likert","trial_index":30,"time_elapsed":745829,"internal_node_id":"0.0-5.0-25.0"},{"rt":3526,"responses":"{\"pregunta11\":\"e) sólo las leyes bastan para gobernarse.\"}","question_order":"[0]","trial_type":"survey-multi-choice","trial_index":31,"time_elapsed":749363,"internal_node_id":"0.0-5.0-26.0"},{"rt":3160,"response":{"pregunta11 likert":1},"question_order":[0],"trial_type":"survey-likert","trial_index":32,"time_elapsed":752527,"internal_node_id":"0.0-5.0-27.0"},{"rt":16001,"responses":"{\"pregunta12\":\"c) la creación de elementos químicos artificiales ha resultado de la manipulación del uranio.\"}","question_order":"[0]","trial_type":"survey-multi-choice","trial_index":33,"time_elapsed":768534,"internal_node_id":"0.0-5.0-28.0"},{"rt":2173,"response":{"pregunta12 likert":0},"question_order":[0],"trial_type":"survey-likert","trial_index":34,"time_elapsed":770712,"internal_node_id":"0.0-5.0-29.0"},{"rt":4841,"responses":"{\"pregunta14\":\"a) A la inexistencia de un recinto adecuado para el recital.\"}","question_order":"[0]","trial_type":"survey-multi-choice","trial_index":35,"time_elapsed":775559,"internal_node_id":"0.0-5.0-30.0"},{"rt":1787,"response":{"pregunta14 likert":1},"question_order":[0],"trial_type":"survey-likert","trial_index":36,"time_elapsed":777349,"internal_node_id":"0.0-5.0-31.0"},{"rt":2517,"responses":"{\"pregunta5\":\"b) El ser humano se comporta de acuerdo con las circunstancias.\"}","question_order":"[0]","trial_type":"survey-multi-choice","trial_index":37,"time_elapsed":779872,"internal_node_id":"0.0-5.0-32.0"},{"rt":2171,"response":{"pregunta5 likert":1},"question_order":[0],"trial_type":"survey-likert","trial_index":38,"time_elapsed":782047,"internal_node_id":"0.0-5.0-33.0"},{"rt":19046,"responses":"{\"pregunta20\":\"d) la muerte es distinta en las grandes ciudades.\"}","question_order":"[0]","trial_type":"survey-multi-choice","trial_index":39,"time_elapsed":801098,"internal_node_id":"0.0-5.0-34.0"},{"rt":3979,"response":{"pregunta20 likert":2},"question_order":[0],"trial_type":"survey-likert","trial_index":40,"time_elapsed":805081,"internal_node_id":"0.0-5.0-35.0"},{"rt":23472,"responses":"{\"pregunta17\":\"d) El TLC causará una completa transformación de la economía chilena.\"}","question_order":"[0]","trial_type":"survey-multi-choice","trial_index":41,"time_elapsed":828559,"internal_node_id":"0.0-5.0-36.0"},{"rt":1817,"response":{"pregunta17 likert":1},"question_order":[0],"trial_type":"survey-likert","trial_index":42,"time_elapsed":830381,"internal_node_id":"0.0-5.0-37.0"},{"rt":3528,"responses":"{\"pregunta19\":\"e) el príncipe puede conceder milagros.\"}","question_order":"[0]","trial_type":"survey-multi-choice","trial_index":43,"time_elapsed":833915,"internal_node_id":"0.0-5.0-38.0"},{"rt":5147,"response":{"pregunta19 likert":1},"question_order":[0],"trial_type":"survey-likert","trial_index":44,"time_elapsed":839067,"internal_node_id":"0.0-5.0-39.0"},{"rt":3580,"stimulus":"<p style=\"font-size: 120%\">Gracias por completar esta etapa del estudio. Ahora te invitamos a responder el cuestionario.<br><br></p>","response":0,"trial_type":"html-button-response","trial_index":45,"time_elapsed":842690,"internal_node_id":"0.0-6.0"},{"rt":12418,"stimulus":"<h1 style=\"margin-top: 5%\">Cuestionario para la Evaluación de Metas Académicas</h1><p style=\"font-size: 120%; margin-left: 3%; margin-top: 5%\">Este es un cuestionario que permite conocer cuáles son los principales motivos por los que los estudiantes se esfuerzan en su trabajo académico. A continuación, se te presentarán una serie de afirmaciones acerca de los motivos que puedes tener para estudiar.<br>Te pedimos que contestes a dichas afirmaciones reflexionando sobre el contenido de cada una de ellas, que, aunque te parezcan semejantes, en realidad, no lo son.<br>NO HAY RESPUESTAS CORRECTAS o INCORRECTAS, sólo queremos que respondas con la mayor precisión y sinceridad posible a las preguntas que se plantean.","response":0,"trial_type":"html-button-response","trial_index":46,"time_elapsed":854979,"internal_node_id":"0.0-7.0"},{"rt":77183,"response":{"Metas cuestionario pregunta1":3,"Metas cuestionario pregunta2":3,"Metas cuestionario pregunta3":4,"Metas cuestionario pregunta4":4,"Metas cuestionario pregunta5":3,"Metas cuestionario pregunta6":4,"Metas cuestionario pregunta7":4,"Metas cuestionario pregunta8":4,"Metas cuestionario pregunta9":2,"Metas cuestionario pregunta10":2,"Metas cuestionario pregunta11":2,"Metas cuestionario pregunta12":1,"Metas cuestionario pregunta13":2,"Metas cuestionario pregunta14":2,"Metas cuestionario pregunta15":4,"Metas cuestionario pregunta16":4,"Metas cuestionario pregunta17":4,"Metas cuestionario pregunta18":4,"Metas cuestionario pregunta19":4,"Metas cuestionario pregunta20":4},"question_order":[0,1,2,3,4,5,6,7,8,9,10,11,12,13,14,15,16,17,18,19],"trial_type":"survey-likert","trial_index":47,"time_elapsed":932170,"internal_node_id":"0.0-8.0"}]