[{"rt":9942.400000035763,"stimulus":"<h1 style=\"color:red; margin-top: 3%;\">¡Bienvenido(a)!</h1><p style=\"text-align:left; justify-content:space-between; margin-right: 5%; margin-left: 5%; margin-top: 5%\"> Antes de empezar el estudio, necesitamos que nos confirmes que estás de acuerdo con participar. Recuerda que tu participación es 100% voluntaria y que lo único que te pedimos es responder lo mejor que puedas. Recuerda también que el estudio incluye:</p><ol style=\"text-align:left; justify-content:space-between; margin-right: 5%; margin-left: 5%;\"><li> un ejercicio de resolución de preguntas de selección múltiple (30’),</li><li>un cuestionario breve (5’),</li><li>un juego muy breve (3’),</li></ol><p style=\"text-align:left; justify-content:space-between; margin-right: 5%; margin-left: 5%;\">Si quieres participar, haz clic en “Acepto” luego de leer lo siguiente:<br></p><p style=\"text-align:left; justify-content:space-between; margin-right: 5%; margin-left: 5%;\">Acepto participar en el estudio “Estrategias de lectura y resolución de preguntas de selección múltiple”, en los términos aquí señalados:<br></p><p style=\"text-align:left; justify-content:space-between; margin-right: 5%; margin-left: 5%;\"><a href=\"http://ciae.uchile.cl/download.php?file=noticias/Asentimiento.pdf\" target=\"_blank\">Link a la hoja de información del Consentimiento.</a></p><p style=\"text-align:left; justify-content:space-between; margin-right: 5%; margin-left: 5%;\">Declaro que he leído (o se me ha leído) y (he) comprendido, las condiciones de mi participación en este estudio. He tenido la oportunidad de hacer preguntas y éstas han sido respondidas. No tengo dudas al respecto.</p>","response":0,"condicion_MCQ":17,"condicion_JUEGO":57,"condicion_INTER":9,"numero_participante":57,"numero_version":2,"dimx":1366,"dimy":768,"color_profundidad":24,"pixel_profundidad":24,"Browser":"Google Chrome","dia":30,"mes":5,"hora":17,"minuto":16,"segundo":10,"trial_type":"html-button-response","trial_index":0,"time_elapsed":9950,"internal_node_id":"0.0-0.0"},{"success":true,"trial_type":"fullscreen","trial_index":1,"time_elapsed":22680,"internal_node_id":"0.0-1.0"},{"rt":153650.19999998808,"responses":"{\"Nombres\":\"Yasna Tatiana Soledad\",\"Apellidos\":\"Rivas Carrasco\",\"Edad\":\"37\",\"Sexo\":\"mujer\",\"Curso\":\"primer semestre -1er año\",\"Colegio\":\"universidad\",\"Contacto\":\"yasnarivasc@gmail.com\"}","trial_type":"survey-text","trial_index":2,"time_elapsed":176339,"internal_node_id":"0.0-2.0"},{"success":true,"timeout":false,"failed_images":[],"failed_audio":[],"failed_video":[],"trial_type":"preload","trial_index":3,"time_elapsed":178103,"internal_node_id":"0.0-3.0"},{"rt":23225.100000023842,"stimulus":"<h1 style:\"margin-top: 5%;\">Ejercicios de Comprensión de Lectura de la Universidad de Chile</h1><p style=\"font-size: 120%;\">En esta actividad, debes responder 20 preguntas de selección múltiple. Cada pregunta presenta 5 respuestas alternativas, pero sólo una de ellas es correcta. Por lo tanto, debes escoger una sola alternativa para cada pregunta. Además, debes reportar qué tan seguro(a) estás de la respuesta que das, con un:</p><ol style=\"font-size: 120%;text-align:left;margin-left: 40%;\"><li>No estoy seguro(a) para nada</li><li>No estoy muy seguro(a)</li><li>Estoy bastante seguro(a)</li><li>Estoy totalmente seguro(a)</li></ol><p style=\"font-size: 120%;\">Por favor lee bien los enunciados antes de responder. ¡Éxito!</p>","response":0,"trial_type":"html-button-response","trial_index":4,"time_elapsed":201332,"internal_node_id":"0.0-4.0"},{"rt":220179.29999995232,"responses":"{\"pregunta16\":\"c) sufren dolores de espalda.\"}","question_order":"[0]","trial_type":"survey-multi-choice","trial_index":5,"time_elapsed":421516,"internal_node_id":"0.0-5.0-0.0"},{"rt":6152.200000047684,"response":{"pregunta16 likert":2},"question_order":[0],"trial_type":"survey-likert","trial_index":6,"time_elapsed":427675,"internal_node_id":"0.0-5.0-1.0"},{"rt":93671.40000003576,"responses":"{\"pregunta12\":\"e) la creación de elementos químicos artificiales ha resultado de la manipulación del uranio.\"}","question_order":"[0]","trial_type":"survey-multi-choice","trial_index":7,"time_elapsed":521349,"internal_node_id":"0.0-5.0-2.0"},{"rt":3511,"response":{"pregunta12 likert":2},"question_order":[0],"trial_type":"survey-likert","trial_index":8,"time_elapsed":524863,"internal_node_id":"0.0-5.0-3.0"},{"rt":66209.69999998808,"responses":"{\"pregunta20\":\"e) la muerte es distinta en las grandes ciudades.\"}","question_order":"[0]","trial_type":"survey-multi-choice","trial_index":9,"time_elapsed":591077,"internal_node_id":"0.0-5.0-4.0"},{"rt":3501.399999976158,"response":{"pregunta20 likert":2},"question_order":[0],"trial_type":"survey-likert","trial_index":10,"time_elapsed":594583,"internal_node_id":"0.0-5.0-5.0"},{"rt":295269.2999999523,"responses":"{\"pregunta3\":\"c) La escritura plasma los mejores momentos de los viajes.\"}","question_order":"[0]","trial_type":"survey-multi-choice","trial_index":11,"time_elapsed":889855,"internal_node_id":"0.0-5.0-6.0"},{"rt":3156.300000011921,"response":{"pregunta3 likert":1},"question_order":[0],"trial_type":"survey-likert","trial_index":12,"time_elapsed":893015,"internal_node_id":"0.0-5.0-7.0"},{"rt":129725.60000002384,"responses":"{\"pregunta18\":\"d) Se necesita un marco legal para delimitar lo público y lo privado en materia informativa.\"}","question_order":"[0]","trial_type":"survey-multi-choice","trial_index":13,"time_elapsed":1022744,"internal_node_id":"0.0-5.0-8.0"},{"rt":4406.599999964237,"response":{"pregunta18 likert":2},"question_order":[0],"trial_type":"survey-likert","trial_index":14,"time_elapsed":1027155,"internal_node_id":"0.0-5.0-9.0"},{"rt":101909,"responses":"{\"pregunta2\":\"b) A la relación entre sociedad y constitución social.\"}","question_order":"[0]","trial_type":"survey-multi-choice","trial_index":15,"time_elapsed":1129068,"internal_node_id":"0.0-5.0-10.0"},{"rt":3550.5,"response":{"pregunta2 likert":2},"question_order":[0],"trial_type":"survey-likert","trial_index":16,"time_elapsed":1132622,"internal_node_id":"0.0-5.0-11.0"},{"rt":176135.70000004768,"responses":"{\"pregunta15\":\"c) El receptor es habitualmente pasivo frente a la publicidad.\"}","question_order":"[0]","trial_type":"survey-multi-choice","trial_index":17,"time_elapsed":1308760,"internal_node_id":"0.0-5.0-12.0"},{"rt":2613.300000011921,"response":{"pregunta15 likert":1},"question_order":[0],"trial_type":"survey-likert","trial_index":18,"time_elapsed":1311377,"internal_node_id":"0.0-5.0-13.0"},{"rt":77425.69999998808,"responses":"{\"pregunta6\":\"a) preparar los recuerdos del mañana.\"}","question_order":"[0]","trial_type":"survey-multi-choice","trial_index":19,"time_elapsed":1388806,"internal_node_id":"0.0-5.0-14.0"},{"rt":2967.399999976158,"response":{"pregunta6 likert":2},"question_order":[0],"trial_type":"survey-likert","trial_index":20,"time_elapsed":1391777,"internal_node_id":"0.0-5.0-15.0"},{"rt":87896.69999998808,"responses":"{\"pregunta8\":\"a) Provocar el deseo de la adquisición vertiginosa.\"}","question_order":"[0]","trial_type":"survey-multi-choice","trial_index":21,"time_elapsed":1479677,"internal_node_id":"0.0-5.0-16.0"},{"rt":2395.5,"response":{"pregunta8 likert":1},"question_order":[0],"trial_type":"survey-likert","trial_index":22,"time_elapsed":1482075,"internal_node_id":"0.0-5.0-17.0"},{"rt":52679,"responses":"{\"pregunta5\":\"a) El ser humano se comporta de acuerdo con las circunstancias.\"}","question_order":"[0]","trial_type":"survey-multi-choice","trial_index":23,"time_elapsed":1534757,"internal_node_id":"0.0-5.0-18.0"},{"rt":2050.399999976158,"response":{"pregunta5 likert":1},"question_order":[0],"trial_type":"survey-likert","trial_index":24,"time_elapsed":1536811,"internal_node_id":"0.0-5.0-19.0"},{"rt":110511.19999998808,"responses":"{\"pregunta13\":\"d) Se debe crear un seguro médico especial para esta institución, pues es de alto riesgo.\"}","question_order":"[0]","trial_type":"survey-multi-choice","trial_index":25,"time_elapsed":1647325,"internal_node_id":"0.0-5.0-20.0"},{"rt":2491.800000011921,"response":{"pregunta13 likert":2},"question_order":[0],"trial_type":"survey-likert","trial_index":26,"time_elapsed":1649820,"internal_node_id":"0.0-5.0-21.0"},{"rt":6544.199999988079,"responses":"{\"pregunta4\":\"c) Orientar la opción estética de un grupo de personas en lo que se refiere a la decoración de interiores.\"}","question_order":"[0]","trial_type":"survey-multi-choice","trial_index":27,"time_elapsed":1656368,"internal_node_id":"0.0-5.0-22.0"},{"rt":4224.200000047684,"response":{"pregunta4 likert":1},"question_order":[0],"trial_type":"survey-likert","trial_index":28,"time_elapsed":1660595,"internal_node_id":"0.0-5.0-23.0"},{"rt":50234.30000001192,"responses":"{\"pregunta7\":\"a) ritualistas y obsesivos.\"}","question_order":"[0]","trial_type":"survey-multi-choice","trial_index":29,"time_elapsed":1710833,"internal_node_id":"0.0-5.0-24.0"},{"rt":2618.099999964237,"response":{"pregunta7 likert":2},"question_order":[0],"trial_type":"survey-likert","trial_index":30,"time_elapsed":1713455,"internal_node_id":"0.0-5.0-25.0"},{"rt":48352.799999952316,"responses":"{\"pregunta9\":\"b) Homenajear a quienes murieron.\"}","question_order":"[0]","trial_type":"survey-multi-choice","trial_index":31,"time_elapsed":1761811,"internal_node_id":"0.0-5.0-26.0"},{"rt":2820.599999964237,"response":{"pregunta9 likert":1},"question_order":[0],"trial_type":"survey-likert","trial_index":32,"time_elapsed":1764634,"internal_node_id":"0.0-5.0-27.0"},{"rt":38685.19999998808,"responses":"{\"pregunta10\":\"c) A la inutilidad de tanto esfuerzo si el objetivo es el reposo.\"}","question_order":"[0]","trial_type":"survey-multi-choice","trial_index":33,"time_elapsed":1803322,"internal_node_id":"0.0-5.0-28.0"},{"rt":2981.800000011921,"response":{"pregunta10 likert":1},"question_order":[0],"trial_type":"survey-likert","trial_index":34,"time_elapsed":1806307,"internal_node_id":"0.0-5.0-29.0"},{"rt":17462.80000001192,"responses":"{\"pregunta1\":\"c) Entregan una característica detallada del personaje, a través de la voz narrativa.\"}","question_order":"[0]","trial_type":"survey-multi-choice","trial_index":35,"time_elapsed":1823773,"internal_node_id":"0.0-5.0-30.0"},{"rt":3182.300000011921,"response":{"pregunta1 likert":2},"question_order":[0],"trial_type":"survey-likert","trial_index":36,"time_elapsed":1826958,"internal_node_id":"0.0-5.0-31.0"},{"rt":4408.199999988079,"responses":"{\"pregunta17\":\"c) El TLC puede traer más dificultades que progresos.\"}","question_order":"[0]","trial_type":"survey-multi-choice","trial_index":37,"time_elapsed":1831369,"internal_node_id":"0.0-5.0-32.0"},{"rt":2015.5,"response":{"pregunta17 likert":1},"question_order":[0],"trial_type":"survey-likert","trial_index":38,"time_elapsed":1833389,"internal_node_id":"0.0-5.0-33.0"},{"rt":3347.699999988079,"responses":"{\"pregunta14\":\"c) A la influencia de grupos que rechazaban su música.\"}","question_order":"[0]","trial_type":"survey-multi-choice","trial_index":39,"time_elapsed":1836739,"internal_node_id":"0.0-5.0-34.0"},{"rt":3247.100000023842,"response":{"pregunta14 likert":2},"question_order":[0],"trial_type":"survey-likert","trial_index":40,"time_elapsed":1839989,"internal_node_id":"0.0-5.0-35.0"},{"rt":3487.5,"responses":"{\"pregunta19\":\"a) la Muerte acostumbraba a aparecer en Ispahán.\"}","question_order":"[0]","trial_type":"survey-multi-choice","trial_index":41,"time_elapsed":1843480,"internal_node_id":"0.0-5.0-36.0"},{"rt":3888.400000035763,"response":{"pregunta19 likert":1},"question_order":[0],"trial_type":"survey-likert","trial_index":42,"time_elapsed":1847372,"internal_node_id":"0.0-5.0-37.0"},{"rt":8584.200000047684,"responses":"{\"pregunta11\":\"e) sólo las leyes bastan para gobernarse.\"}","question_order":"[0]","trial_type":"survey-multi-choice","trial_index":43,"time_elapsed":1855959,"internal_node_id":"0.0-5.0-38.0"},{"rt":2878.399999976158,"response":{"pregunta11 likert":1},"question_order":[0],"trial_type":"survey-likert","trial_index":44,"time_elapsed":1858840,"internal_node_id":"0.0-5.0-39.0"},{"rt":2293.5,"stimulus":"<p style=\"font-size: 120%\">Gracias por completar esta etapa del estudio. Ahora te invitamos a responder el cuestionario.<br><br></p>","response":0,"trial_type":"html-button-response","trial_index":45,"time_elapsed":1861139,"internal_node_id":"0.0-6.0"},{"rt":14855.100000023842,"stimulus":"<h1 style=\"margin-top: 5%\">Cuestionario para la Evaluación de Metas Académicas</h1><p style=\"font-size: 120%; margin-left: 3%; margin-top: 5%\">Este es un cuestionario que permite conocer cuáles son los principales motivos por los que los estudiantes se esfuerzan en su trabajo académico. A continuación, se te presentarán una serie de afirmaciones acerca de los motivos que puedes tener para estudiar.<br>Te pedimos que contestes a dichas afirmaciones reflexionando sobre el contenido de cada una de ellas, que, aunque te parezcan semejantes, en realidad, no lo son.<br>NO HAY RESPUESTAS CORRECTAS o INCORRECTAS, sólo queremos que respondas con la mayor precisión y sinceridad posible a las preguntas que se plantean.","response":0,"trial_type":"html-button-response","trial_index":46,"time_elapsed":1875997,"internal_node_id":"0.0-7.0"},{"rt":263338,"response":{"Metas cuestionario pregunta1":2,"Metas cuestionario pregunta2":1,"Metas cuestionario pregunta3":1,"Metas cuestionario pregunta4":1,"Metas cuestionario pregunta5":1,"Metas cuestionario pregunta6":1,"Metas cuestionario pregunta7":1,"Metas cuestionario pregunta8":2,"Metas cuestionario pregunta9":0,"Metas cuestionario pregunta10":0,"Metas cuestionario pregunta11":0,"Metas cuestionario pregunta12":0,"Metas cuestionario pregunta13":0,"Metas cuestionario pregunta14":0,"Metas cuestionario pregunta15":2,"Metas cuestionario pregunta16":3,"Metas cuestionario pregunta17":4,"Metas cuestionario pregunta18":4,"Metas cuestionario pregunta19":4,"Metas cuestionario pregunta20":0},"question_order":[0,1,2,3,4,5,6,7,8,9,10,11,12,13,14,15,16,17,18,19],"trial_type":"survey-likert","trial_index":47,"time_elapsed":2139342,"internal_node_id":"0.0-8.0"},{"rt":2775.699999988079,"stimulus":"<p style=\"font-size: 120%\">Gracias por responder el cuestionario. Ahora te invitamos a seguir con el juego, que es muy breve.<br><br></p>","response":0,"trial_type":"html-button-response","trial_index":48,"time_elapsed":2142122,"internal_node_id":"0.0-9.0"},{"rt":2198,"stimulus":"<h1>Juego</h1><p style=\"font-size: 120%;\">A continuación se te presentarán 16 pequeñas historias.<br>Por favor lee el texto presentado en cada una de ellas y luego haz click en el objeto de tu elección.<br>Si estás listo(a),<span style=\"color:red;\"> haz click en \"comenzar\"</span>.</p>","response":0,"trial_type":"html-button-response","trial_index":49,"time_elapsed":2144324,"internal_node_id":"0.0-10.0"},{"rt":2831.199999988079,"grid":[[1,1,1,1,1]],"target":[0,0],"response":[0,2],"correct":false,"juego":1,"trial_type":"serial-reaction-time-mouse","trial_index":50,"time_elapsed":2147159,"internal_node_id":"0.0-11.0-0.0"},{"rt":13669.800000011921,"grid":[[1,1,1,1,1]],"target":[0,0],"response":[0,2],"correct":false,"juego":11,"trial_type":"serial-reaction-time-mouse","trial_index":51,"time_elapsed":2160832,"internal_node_id":"0.0-11.0-1.0"},{"rt":14100.200000047684,"grid":[[1,1,1,1,1]],"target":[0,0],"response":[0,1],"correct":false,"juego":9,"trial_type":"serial-reaction-time-mouse","trial_index":52,"time_elapsed":2174935,"internal_node_id":"0.0-11.0-2.0"},{"rt":19502.19999998808,"grid":[[1,1,1,1],[1,1,1,1],[1,1,1,1],[1,1,1,1],[1,1,1,1],[1,1,1,1],[1,1,1,1],[1,1,1,1],[1,1,1,1],[1,1,1,1],[1,1,1,1]],"target":[0,0],"response":[7,2],"correct":false,"juego":14,"trial_type":"serial-reaction-time-mouse","trial_index":53,"time_elapsed":2194442,"internal_node_id":"0.0-11.0-3.0"},{"rt":4637.199999988079,"grid":[[1],[1],[1],[1],[1]],"target":[0,0],"response":[2,0],"correct":false,"juego":4,"trial_type":"serial-reaction-time-mouse","trial_index":54,"time_elapsed":2199082,"internal_node_id":"0.0-11.0-4.0"},{"rt":7871.899999976158,"grid":[[1,1,1,1,1]],"target":[0,0],"response":[0,2],"correct":false,"juego":2,"trial_type":"serial-reaction-time-mouse","trial_index":55,"time_elapsed":2206956,"internal_node_id":"0.0-11.0-5.0"},{"rt":20994,"grid":[[1,1,1],[1,1,1],[1,1,1],[1,1,1],[1,1,1],[1,1,1],[1,1,1],[1,1,1],[1,1,1],[1,1,1],[1,1,1]],"target":[0,0],"response":[1,2],"correct":false,"juego":10,"trial_type":"serial-reaction-time-mouse","trial_index":56,"time_elapsed":2227953,"internal_node_id":"0.0-11.0-6.0"},{"rt":11925.800000011921,"grid":[[1,1,1,1,1]],"target":[0,0],"response":[0,4],"correct":false,"juego":8,"trial_type":"serial-reaction-time-mouse","trial_index":57,"time_elapsed":2239880,"internal_node_id":"0.0-11.0-7.0"},{"rt":7840.599999964237,"grid":[[1,1,1],[1,1,1],[1,1,1],[1,1,1],[1,1,1],[1,1,1],[1,1,1],[1,1,1],[1,1,1],[1,1,1],[1,1,1]],"target":[0,0],"response":[1,1],"correct":false,"juego":13,"trial_type":"serial-reaction-time-mouse","trial_index":58,"time_elapsed":2247725,"internal_node_id":"0.0-11.0-8.0"},{"rt":9591,"grid":[[1,1,1,1,1]],"target":[0,0],"response":[0,2],"correct":false,"juego":12,"trial_type":"serial-reaction-time-mouse","trial_index":59,"time_elapsed":2257318,"internal_node_id":"0.0-11.0-9.0"},{"rt":13157.899999976158,"grid":[[1,1,1,1,1]],"target":[0,0],"response":[0,0],"correct":true,"juego":3,"trial_type":"serial-reaction-time-mouse","trial_index":60,"time_elapsed":2270479,"internal_node_id":"0.0-11.0-10.0"},{"rt":9469.300000011921,"grid":[[1,1,1],[1,1,1],[1,1,1],[1,1,1],[1,1,1],[1,1,1],[1,1,1],[1,1,1],[1,1,1],[1,1,1],[1,1,1]],"target":[0,0],"response":[9,1],"correct":false,"juego":5,"trial_type":"serial-reaction-time-mouse","trial_index":61,"time_elapsed":2279952,"internal_node_id":"0.0-11.0-11.0"},{"rt":17742.19999998808,"grid":[[1,1,1,1],[1,1,1,1],[1,1,1,1],[1,1,1,1],[1,1,1,1],[1,1,1,1],[1,1,1,1],[1,1,1,1],[1,1,1,1],[1,1,1,1],[1,1,1,1]],"target":[0,0],"response":[9,2],"correct":false,"juego":15,"trial_type":"serial-reaction-time-mouse","trial_index":62,"time_elapsed":2297700,"internal_node_id":"0.0-11.0-12.0"},{"rt":8373.199999988079,"grid":[[1,1,1,1,1]],"target":[0,0],"response":[0,2],"correct":false,"juego":7,"trial_type":"serial-reaction-time-mouse","trial_index":63,"time_elapsed":2306076,"internal_node_id":"0.0-11.0-13.0"},{"rt":8072.100000023842,"grid":[[1,1,1],[1,1,1],[1,1,1],[1,1,1],[1,1,1],[1,1,1],[1,1,1],[1,1,1],[1,1,1],[1,1,1],[1,1,1]],"target":[0,0],"response":[1,1],"correct":false,"juego":6,"trial_type":"serial-reaction-time-mouse","trial_index":64,"time_elapsed":2314152,"internal_node_id":"0.0-11.0-14.0"},{"rt":4313.600000023842,"stimulus":"<h1>Último juego</h1><p style=\"font-size: 130%;\">Tienes <span style=\"color:red\">35</span> segundos para recordar los pares de palabras que aparecerán a continuación. <br></p>","response":0,"trial_type":"html-button-response","trial_index":65,"time_elapsed":2318471,"internal_node_id":"0.0-12.0"},{"animation_sequence":[{"stimulus":"imagen_juego_interferencia.jpg","time":528.6999999880791},{"stimulus":"imagen_juego_interferencia.jpg","time":1004.3000000119209},{"stimulus":"imagen_juego_interferencia.jpg","time":1502.6000000238419},{"stimulus":"imagen_juego_interferencia.jpg","time":2008.5},{"stimulus":"imagen_juego_interferencia.jpg","time":2507.399999976158},{"stimulus":"imagen_juego_interferencia.jpg","time":3005},{"stimulus":"imagen_juego_interferencia.jpg","time":3503},{"stimulus":"imagen_juego_interferencia.jpg","time":4010.699999988079},{"stimulus":"imagen_juego_interferencia.jpg","time":4508.5},{"stimulus":"imagen_juego_interferencia.jpg","time":5004.399999976158},{"stimulus":"imagen_juego_interferencia.jpg","time":5510.399999976158},{"stimulus":"imagen_juego_interferencia.jpg","time":6008.699999988079},{"stimulus":"imagen_juego_interferencia.jpg","time":6509.399999976158},{"stimulus":"imagen_juego_interferencia.jpg","time":7008.199999988079},{"stimulus":"imagen_juego_interferencia.jpg","time":7511.699999988079},{"stimulus":"imagen_juego_interferencia.jpg","time":8017.300000011921},{"stimulus":"imagen_juego_interferencia.jpg","time":8508.600000023842},{"stimulus":"imagen_juego_interferencia.jpg","time":9002.800000011921},{"stimulus":"imagen_juego_interferencia.jpg","time":9512.5},{"stimulus":"imagen_juego_interferencia.jpg","time":10003.199999988079},{"stimulus":"imagen_juego_interferencia.jpg","time":10510.399999976158},{"stimulus":"imagen_juego_interferencia.jpg","time":11009.699999988079},{"stimulus":"imagen_juego_interferencia.jpg","time":11503.100000023842},{"stimulus":"imagen_juego_interferencia.jpg","time":12016.600000023842},{"stimulus":"imagen_juego_interferencia.jpg","time":12508.399999976158},{"stimulus":"imagen_juego_interferencia.jpg","time":13005.899999976158},{"stimulus":"imagen_juego_interferencia.jpg","time":13512},{"stimulus":"imagen_juego_interferencia.jpg","time":14013.399999976158},{"stimulus":"imagen_juego_interferencia.jpg","time":14509.5},{"stimulus":"imagen_juego_interferencia.jpg","time":15006.399999976158},{"stimulus":"imagen_juego_interferencia.jpg","time":15513.600000023842},{"stimulus":"imagen_juego_interferencia.jpg","time":16010.800000011921},{"stimulus":"imagen_juego_interferencia.jpg","time":16511.899999976158},{"stimulus":"imagen_juego_interferencia.jpg","time":17011.100000023842},{"stimulus":"imagen_juego_interferencia.jpg","time":17508.5},{"stimulus":"imagen_juego_interferencia.jpg","time":18012.19999998808},{"stimulus":"imagen_juego_interferencia.jpg","time":18510.5},{"stimulus":"imagen_juego_interferencia.jpg","time":19008.899999976158},{"stimulus":"imagen_juego_interferencia.jpg","time":19514.5},{"stimulus":"imagen_juego_interferencia.jpg","time":20008.69999998808},{"stimulus":"imagen_juego_interferencia.jpg","time":20515.69999998808},{"stimulus":"imagen_juego_interferencia.jpg","time":21008.30000001192},{"stimulus":"imagen_juego_interferencia.jpg","time":21514.80000001192},{"stimulus":"imagen_juego_interferencia.jpg","time":22007.899999976158},{"stimulus":"imagen_juego_interferencia.jpg","time":22506.80000001192},{"stimulus":"imagen_juego_interferencia.jpg","time":23009.69999998808},{"stimulus":"imagen_juego_interferencia.jpg","time":23510.899999976158},{"stimulus":"imagen_juego_interferencia.jpg","time":24016.100000023842},{"stimulus":"imagen_juego_interferencia.jpg","time":24507.80000001192},{"stimulus":"imagen_juego_interferencia.jpg","time":25024.19999998808},{"stimulus":"imagen_juego_interferencia.jpg","time":25507.19999998808},{"stimulus":"imagen_juego_interferencia.jpg","time":26001.80000001192},{"stimulus":"imagen_juego_interferencia.jpg","time":26509.100000023842},{"stimulus":"imagen_juego_interferencia.jpg","time":27005.80000001192},{"stimulus":"imagen_juego_interferencia.jpg","time":27506},{"stimulus":"imagen_juego_interferencia.jpg","time":28006.600000023842},{"stimulus":"imagen_juego_interferencia.jpg","time":28512.69999998808},{"stimulus":"imagen_juego_interferencia.jpg","time":29014.19999998808},{"stimulus":"imagen_juego_interferencia.jpg","time":29512.69999998808},{"stimulus":"imagen_juego_interferencia.jpg","time":30007.600000023842},{"stimulus":"imagen_juego_interferencia.jpg","time":30503.30000001192},{"stimulus":"imagen_juego_interferencia.jpg","time":31007.399999976158},{"stimulus":"imagen_juego_interferencia.jpg","time":31511.100000023842},{"stimulus":"imagen_juego_interferencia.jpg","time":32010.5},{"stimulus":"imagen_juego_interferencia.jpg","time":32506.100000023842},{"stimulus":"imagen_juego_interferencia.jpg","time":33016.39999997616},{"stimulus":"imagen_juego_interferencia.jpg","time":33514.30000001192},{"stimulus":"imagen_juego_interferencia.jpg","time":34016.39999997616},{"stimulus":"imagen_juego_interferencia.jpg","time":34511.89999997616},{"stimulus":"imagen_juego_interferencia.jpg","time":35005.89999997616}],"response":[],"trial_type":"animation","trial_index":66,"time_elapsed":2353989,"internal_node_id":"0.0-13.0"},{"rt":14199.900000035763,"responses":"{\"pregunta interferencia3\":\"plata\"}","question_order":"[0]","trial_type":"survey-multi-choice-cuest","trial_index":67,"time_elapsed":2368191,"internal_node_id":"0.0-14.0-0.0"},{"rt":17598.899999976158,"responses":"{\"pregunta interferencia4\":\"contador\"}","question_order":"[0]","trial_type":"survey-multi-choice-cuest","trial_index":68,"time_elapsed":2385794,"internal_node_id":"0.0-14.0-1.0"},{"rt":8029.700000047684,"responses":"{\"pregunta interferencia1\":\"naranja\"}","question_order":"[0]","trial_type":"survey-multi-choice-cuest","trial_index":69,"time_elapsed":2393827,"internal_node_id":"0.0-14.0-2.0"},{"rt":7705.800000011921,"responses":"{\"pregunta interferencia2\":\"saltamontes\"}","question_order":"[0]","trial_type":"survey-multi-choice-cuest","trial_index":70,"time_elapsed":2401536,"internal_node_id":"0.0-14.0-3.0"},{"success":true,"trial_type":"fullscreen","trial_index":71,"time_elapsed":2402553,"internal_node_id":"0.0-15.0"}]