[{"rt":6172.5,"stimulus":"<h1 style=\"color:red; margin-top: 3%;\">¡Bienvenido(a)!</h1><p style=\"text-align:left; justify-content:space-between; margin-right: 5%; margin-left: 5%; margin-top: 5%\"> Antes de empezar el estudio, necesitamos que nos confirmes que estás de acuerdo con participar. Recuerda que tu participación es 100% voluntaria y que lo único que te pedimos es responder lo mejor que puedas. Recuerda también que el estudio incluye:</p><ol style=\"text-align:left; justify-content:space-between; margin-right: 5%; margin-left: 5%;\"><li> un ejercicio de resolución de preguntas de selección múltiple (30’),</li><li>un cuestionario breve (5’),</li><li>un juego muy breve (3’),</li></ol><p style=\"text-align:left; justify-content:space-between; margin-right: 5%; margin-left: 5%;\">Si quieres participar, haz clic en “Acepto” luego de leer lo siguiente:<br></p><p style=\"text-align:left; justify-content:space-between; margin-right: 5%; margin-left: 5%;\">Acepto participar en el estudio “Estrategias de lectura y resolución de preguntas de selección múltiple”, en los términos aquí señalados:<br></p><p style=\"text-align:left; justify-content:space-between; margin-right: 5%; margin-left: 5%;\"><a href=\"http://ciae.uchile.cl/download.php?file=noticias/Asentimiento.pdf\" target=\"_blank\">Link a la hoja de información del Consentimiento.</a></p><p style=\"text-align:left; justify-content:space-between; margin-right: 5%; margin-left: 5%;\">Declaro que he leído (o se me ha leído) y (he) comprendido, las condiciones de mi participación en este estudio. He tenido la oportunidad de hacer preguntas y éstas han sido respondidas. No tengo dudas al respecto.</p>","response":0,"condicion_MCQ":7,"condicion_JUEGO":27,"condicion_INTER":3,"numero_participante":27,"numero_version":2,"dimx":1536,"dimy":864,"color_profundidad":24,"pixel_profundidad":24,"Browser":"Google Chrome","dia":20,"mes":5,"hora":20,"minuto":21,"segundo":20,"trial_type":"html-button-response","trial_index":0,"time_elapsed":6177,"internal_node_id":"0.0-0.0"},{"success":true,"trial_type":"fullscreen","trial_index":1,"time_elapsed":8727,"internal_node_id":"0.0-1.0"},{"rt":65677.59999990463,"responses":"{\"Nombres\":\"Bastián Alexis\",\"Apellidos\":\"Aravena Román\",\"Edad\":\"19\",\"Sexo\":\"hombre\",\"Curso\":\"200\",\"Colegio\":\"Universidad Andrés Bello\",\"Contacto\":\"bastyfbs@gmail.com\"}","trial_type":"survey-text","trial_index":2,"time_elapsed":74420,"internal_node_id":"0.0-2.0"},{"success":true,"timeout":false,"failed_images":[],"failed_audio":[],"failed_video":[],"trial_type":"preload","trial_index":3,"time_elapsed":76466,"internal_node_id":"0.0-3.0"},{"rt":3684.100000023842,"stimulus":"<h1 style:\"margin-top: 5%;\">Ejercicios de Comprensión de Lectura de la Universidad de Chile</h1><p style=\"font-size: 120%;\">En esta actividad, debes responder 20 preguntas de selección múltiple. Cada pregunta presenta 5 respuestas alternativas, pero sólo una de ellas es correcta. Por lo tanto, debes escoger una sola alternativa para cada pregunta. Además, debes reportar qué tan seguro(a) estás de la respuesta que das, con un:</p><ol style=\"font-size: 120%;text-align:left;margin-left: 40%;\"><li>No estoy seguro(a) para nada</li><li>No estoy muy seguro(a)</li><li>Estoy bastante seguro(a)</li><li>Estoy totalmente seguro(a)</li></ol><p style=\"font-size: 120%;\">Por favor lee bien los enunciados antes de responder. ¡Éxito!</p>","response":0,"trial_type":"html-button-response","trial_index":4,"time_elapsed":80152,"internal_node_id":"0.0-4.0"},{"rt":58411.60000002384,"responses":"{\"pregunta14\":\"e) A la influencia de grupos que rechazaban su música.\"}","question_order":"[0]","trial_type":"survey-multi-choice","trial_index":5,"time_elapsed":138567,"internal_node_id":"0.0-5.0-0.0"},{"rt":4113,"response":{"pregunta14 likert":3},"question_order":[0],"trial_type":"survey-likert","trial_index":6,"time_elapsed":142684,"internal_node_id":"0.0-5.0-1.0"},{"rt":68216.70000004768,"responses":"{\"pregunta19\":\"b) el jardinero estará muerto al día siguiente.\"}","question_order":"[0]","trial_type":"survey-multi-choice","trial_index":7,"time_elapsed":210904,"internal_node_id":"0.0-5.0-2.0"},{"rt":3834.1999999284744,"response":{"pregunta19 likert":3},"question_order":[0],"trial_type":"survey-likert","trial_index":8,"time_elapsed":214742,"internal_node_id":"0.0-5.0-3.0"},{"rt":72953.59999990463,"responses":"{\"pregunta5\":\"d) El concepto de normalidad es diferente para un psiquiatra que para nosotros.\"}","question_order":"[0]","trial_type":"survey-multi-choice","trial_index":9,"time_elapsed":287698,"internal_node_id":"0.0-5.0-4.0"},{"rt":3270.5,"response":{"pregunta5 likert":1},"question_order":[0],"trial_type":"survey-likert","trial_index":10,"time_elapsed":290972,"internal_node_id":"0.0-5.0-5.0"},{"rt":87275.20000004768,"responses":"{\"pregunta11\":\"e) el mejor emperador es el que está muerto.\"}","question_order":"[0]","trial_type":"survey-multi-choice","trial_index":11,"time_elapsed":378250,"internal_node_id":"0.0-5.0-6.0"},{"rt":2932.5,"response":{"pregunta11 likert":2},"question_order":[0],"trial_type":"survey-likert","trial_index":12,"time_elapsed":381185,"internal_node_id":"0.0-5.0-7.0"},{"rt":109515.89999997616,"responses":"{\"pregunta20\":\"b) para el mexicano, la muerte es cotidiana.\"}","question_order":"[0]","trial_type":"survey-multi-choice","trial_index":13,"time_elapsed":490703,"internal_node_id":"0.0-5.0-8.0"},{"rt":9132.900000095367,"response":{"pregunta20 likert":3},"question_order":[0],"trial_type":"survey-likert","trial_index":14,"time_elapsed":499838,"internal_node_id":"0.0-5.0-9.0"},{"rt":78941.89999997616,"responses":"{\"pregunta9\":\"d) Homenajear a quienes murieron.\"}","question_order":"[0]","trial_type":"survey-multi-choice","trial_index":15,"time_elapsed":578782,"internal_node_id":"0.0-5.0-10.0"},{"rt":2115.899999976158,"response":{"pregunta9 likert":2},"question_order":[0],"trial_type":"survey-likert","trial_index":16,"time_elapsed":580901,"internal_node_id":"0.0-5.0-11.0"},{"rt":81078.39999997616,"responses":"{\"pregunta15\":\"a) El receptor es habitualmente pasivo frente a la publicidad.\"}","question_order":"[0]","trial_type":"survey-multi-choice","trial_index":17,"time_elapsed":661983,"internal_node_id":"0.0-5.0-12.0"},{"rt":6320.400000095367,"response":{"pregunta15 likert":1},"question_order":[0],"trial_type":"survey-likert","trial_index":18,"time_elapsed":668306,"internal_node_id":"0.0-5.0-13.0"},{"rt":119023.30000007153,"responses":"{\"pregunta6\":\"c) preparar los recuerdos del mañana.\"}","question_order":"[0]","trial_type":"survey-multi-choice","trial_index":19,"time_elapsed":787331,"internal_node_id":"0.0-5.0-14.0"},{"rt":3127.5,"response":{"pregunta6 likert":3},"question_order":[0],"trial_type":"survey-likert","trial_index":20,"time_elapsed":790462,"internal_node_id":"0.0-5.0-15.0"},{"rt":56985.700000047684,"responses":"{\"pregunta12\":\"c) a partir de la manipulación del núcleo se han creado elementos químicos naturales.\"}","question_order":"[0]","trial_type":"survey-multi-choice","trial_index":21,"time_elapsed":847450,"internal_node_id":"0.0-5.0-16.0"},{"rt":4127.600000023842,"response":{"pregunta12 likert":2},"question_order":[0],"trial_type":"survey-likert","trial_index":22,"time_elapsed":851581,"internal_node_id":"0.0-5.0-17.0"},{"rt":64882.39999997616,"responses":"{\"pregunta8\":\"d) Provocar el deseo de la adquisición vertiginosa.\"}","question_order":"[0]","trial_type":"survey-multi-choice","trial_index":23,"time_elapsed":916467,"internal_node_id":"0.0-5.0-18.0"},{"rt":5085.5,"response":{"pregunta8 likert":3},"question_order":[0],"trial_type":"survey-likert","trial_index":24,"time_elapsed":921555,"internal_node_id":"0.0-5.0-19.0"},{"rt":60443.89999997616,"responses":"{\"pregunta13\":\"e) Bomberos debería tener acceso a un seguro médico, al que pueda recurrir en caso de accidente.\"}","question_order":"[0]","trial_type":"survey-multi-choice","trial_index":25,"time_elapsed":982001,"internal_node_id":"0.0-5.0-20.0"},{"rt":6067.200000047684,"response":{"pregunta13 likert":2},"question_order":[0],"trial_type":"survey-likert","trial_index":26,"time_elapsed":988071,"internal_node_id":"0.0-5.0-21.0"},{"rt":72241.5,"responses":"{\"pregunta1\":\"b) Aportan informaciones con las que se reconstruye el personaje dentro de un relato.\"}","question_order":"[0]","trial_type":"survey-multi-choice","trial_index":27,"time_elapsed":1060315,"internal_node_id":"0.0-5.0-22.0"},{"rt":2349.0999999046326,"response":{"pregunta1 likert":1},"question_order":[0],"trial_type":"survey-likert","trial_index":28,"time_elapsed":1062665,"internal_node_id":"0.0-5.0-23.0"},{"rt":64944.199999928474,"responses":"{\"pregunta17\":\"a) Nuestra economía vivirá un proceso de ajuste a la nueva realidad.\"}","question_order":"[0]","trial_type":"survey-multi-choice","trial_index":29,"time_elapsed":1127611,"internal_node_id":"0.0-5.0-24.0"},{"rt":2490.0999999046326,"response":{"pregunta17 likert":2},"question_order":[0],"trial_type":"survey-likert","trial_index":30,"time_elapsed":1130103,"internal_node_id":"0.0-5.0-25.0"},{"rt":68133,"responses":"{\"pregunta2\":\"e) A la relación entre sociedad y constitución social.\"}","question_order":"[0]","trial_type":"survey-multi-choice","trial_index":31,"time_elapsed":1198237,"internal_node_id":"0.0-5.0-26.0"},{"rt":4519.299999952316,"response":{"pregunta2 likert":2},"question_order":[0],"trial_type":"survey-likert","trial_index":32,"time_elapsed":1202758,"internal_node_id":"0.0-5.0-27.0"},{"rt":50056.200000047684,"responses":"{\"pregunta18\":\"d) La prensa tiene derecho a meter sus narices en todos lados.\"}","question_order":"[0]","trial_type":"survey-multi-choice","trial_index":33,"time_elapsed":1252815,"internal_node_id":"0.0-5.0-28.0"},{"rt":5191.699999928474,"response":{"pregunta18 likert":1},"question_order":[0],"trial_type":"survey-likert","trial_index":34,"time_elapsed":1258008,"internal_node_id":"0.0-5.0-29.0"},{"rt":11356.400000095367,"responses":"{\"pregunta4\":\"c) Promover la asistencia a un evento específico de decoración a través de una atractiva descripción.\"}","question_order":"[0]","trial_type":"survey-multi-choice","trial_index":35,"time_elapsed":1269366,"internal_node_id":"0.0-5.0-30.0"},{"rt":3988.6999999284744,"response":{"pregunta4 likert":3},"question_order":[0],"trial_type":"survey-likert","trial_index":36,"time_elapsed":1273357,"internal_node_id":"0.0-5.0-31.0"},{"rt":76079.79999995232,"responses":"{\"pregunta10\":\"d) Al premio merecido después de tantos esfuerzos.\"}","question_order":"[0]","trial_type":"survey-multi-choice","trial_index":37,"time_elapsed":1349439,"internal_node_id":"0.0-5.0-32.0"},{"rt":4998.700000047684,"response":{"pregunta10 likert":2},"question_order":[0],"trial_type":"survey-likert","trial_index":38,"time_elapsed":1354439,"internal_node_id":"0.0-5.0-33.0"},{"rt":78478.10000002384,"responses":"{\"pregunta7\":\"d) ritualistas y obsesivos.\"}","question_order":"[0]","trial_type":"survey-multi-choice","trial_index":39,"time_elapsed":1432918,"internal_node_id":"0.0-5.0-34.0"},{"rt":5310.100000023842,"response":{"pregunta7 likert":3},"question_order":[0],"trial_type":"survey-likert","trial_index":40,"time_elapsed":1438229,"internal_node_id":"0.0-5.0-35.0"},{"rt":37819.299999952316,"responses":"{\"pregunta3\":\"d) La escritura olvida los momentos insignificantes de los viajes.\"}","question_order":"[0]","trial_type":"survey-multi-choice","trial_index":41,"time_elapsed":1476050,"internal_node_id":"0.0-5.0-36.0"},{"rt":3593.5999999046326,"response":{"pregunta3 likert":2},"question_order":[0],"trial_type":"survey-likert","trial_index":42,"time_elapsed":1479645,"internal_node_id":"0.0-5.0-37.0"},{"rt":136775,"responses":"{\"pregunta16\":\"c) llevan un control grupal de su embarazo.\"}","question_order":"[0]","trial_type":"survey-multi-choice","trial_index":43,"time_elapsed":1616421,"internal_node_id":"0.0-5.0-38.0"},{"rt":2210.899999976158,"response":{"pregunta16 likert":2},"question_order":[0],"trial_type":"survey-likert","trial_index":44,"time_elapsed":1618634,"internal_node_id":"0.0-5.0-39.0"},{"rt":2478.600000023842,"stimulus":"<p style=\"font-size: 120%\">Gracias por completar esta etapa del estudio. Ahora te invitamos a responder el cuestionario.<br><br></p>","response":0,"trial_type":"html-button-response","trial_index":45,"time_elapsed":1621115,"internal_node_id":"0.0-6.0"},{"rt":28777.800000071526,"stimulus":"<h1 style=\"margin-top: 5%\">Cuestionario para la Evaluación de Metas Académicas</h1><p style=\"font-size: 120%; margin-left: 3%; margin-top: 5%\">Este es un cuestionario que permite conocer cuáles son los principales motivos por los que los estudiantes se esfuerzan en su trabajo académico. A continuación, se te presentarán una serie de afirmaciones acerca de los motivos que puedes tener para estudiar.<br>Te pedimos que contestes a dichas afirmaciones reflexionando sobre el contenido de cada una de ellas, que, aunque te parezcan semejantes, en realidad, no lo son.<br>NO HAY RESPUESTAS CORRECTAS o INCORRECTAS, sólo queremos que respondas con la mayor precisión y sinceridad posible a las preguntas que se plantean.","response":0,"trial_type":"html-button-response","trial_index":46,"time_elapsed":1649894,"internal_node_id":"0.0-7.0"},{"rt":163061.40000009537,"response":{"Metas cuestionario pregunta1":3,"Metas cuestionario pregunta2":4,"Metas cuestionario pregunta3":4,"Metas cuestionario pregunta4":3,"Metas cuestionario pregunta5":4,"Metas cuestionario pregunta6":3,"Metas cuestionario pregunta7":4,"Metas cuestionario pregunta8":4,"Metas cuestionario pregunta9":0,"Metas cuestionario pregunta10":0,"Metas cuestionario pregunta11":0,"Metas cuestionario pregunta12":0,"Metas cuestionario pregunta13":0,"Metas cuestionario pregunta14":1,"Metas cuestionario pregunta15":3,"Metas cuestionario pregunta16":4,"Metas cuestionario pregunta17":3,"Metas cuestionario pregunta18":4,"Metas cuestionario pregunta19":4,"Metas cuestionario pregunta20":3},"question_order":[0,1,2,3,4,5,6,7,8,9,10,11,12,13,14,15,16,17,18,19],"trial_type":"survey-likert","trial_index":47,"time_elapsed":1812960,"internal_node_id":"0.0-8.0"},{"rt":3508.1999999284744,"stimulus":"<p style=\"font-size: 120%\">Gracias por responder el cuestionario. Ahora te invitamos a seguir con el juego, que es muy breve.<br><br></p>","response":0,"trial_type":"html-button-response","trial_index":48,"time_elapsed":1816471,"internal_node_id":"0.0-9.0"},{"rt":9547.199999928474,"stimulus":"<h1>Juego</h1><p style=\"font-size: 120%;\">A continuación se te presentarán 16 pequeñas historias.<br>Por favor lee el texto presentado en cada una de ellas y luego haz click en el objeto de tu elección.<br>Si estás listo(a),<span style=\"color:red;\"> haz click en \"comenzar\"</span>.</p>","response":0,"trial_type":"html-button-response","trial_index":49,"time_elapsed":1826019,"internal_node_id":"0.0-10.0"},{"rt":18085.799999952316,"grid":[[1,1,1],[1,1,1],[1,1,1],[1,1,1],[1,1,1],[1,1,1],[1,1,1],[1,1,1],[1,1,1],[1,1,1],[1,1,1]],"target":[0,0],"response":[5,0],"correct":false,"juego":10,"trial_type":"serial-reaction-time-mouse","trial_index":50,"time_elapsed":1844107,"internal_node_id":"0.0-11.0-0.0"},{"rt":6042.700000047684,"grid":[[1,1,1,1,1]],"target":[0,0],"response":[0,4],"correct":false,"juego":1,"trial_type":"serial-reaction-time-mouse","trial_index":51,"time_elapsed":1850150,"internal_node_id":"0.0-11.0-1.0"},{"rt":13177.100000023842,"grid":[[1,1,1,1,1]],"target":[0,0],"response":[0,2],"correct":false,"juego":3,"trial_type":"serial-reaction-time-mouse","trial_index":52,"time_elapsed":1863329,"internal_node_id":"0.0-11.0-2.0"},{"rt":140104.69999992847,"grid":[[1,1,1,1],[1,1,1,1],[1,1,1,1],[1,1,1,1],[1,1,1,1],[1,1,1,1],[1,1,1,1],[1,1,1,1],[1,1,1,1],[1,1,1,1],[1,1,1,1]],"target":[0,0],"response":[5,2],"correct":false,"juego":15,"trial_type":"serial-reaction-time-mouse","trial_index":53,"time_elapsed":2003436,"internal_node_id":"0.0-11.0-3.0"},{"rt":6687.5,"grid":[[1,1,1,1,1]],"target":[0,0],"response":[0,2],"correct":false,"juego":2,"trial_type":"serial-reaction-time-mouse","trial_index":54,"time_elapsed":2010124,"internal_node_id":"0.0-11.0-4.0"},{"rt":5619.5,"grid":[[1,1,1,1,1]],"target":[0,0],"response":[0,2],"correct":false,"juego":9,"trial_type":"serial-reaction-time-mouse","trial_index":55,"time_elapsed":2015745,"internal_node_id":"0.0-11.0-5.0"},{"rt":3449.3000000715256,"grid":[[1],[1],[1],[1],[1]],"target":[0,0],"response":[2,0],"correct":false,"juego":4,"trial_type":"serial-reaction-time-mouse","trial_index":56,"time_elapsed":2019195,"internal_node_id":"0.0-11.0-6.0"},{"rt":20204.200000047684,"grid":[[1,1,1,1,1]],"target":[0,0],"response":[0,4],"correct":false,"juego":12,"trial_type":"serial-reaction-time-mouse","trial_index":57,"time_elapsed":2039401,"internal_node_id":"0.0-11.0-7.0"},{"rt":6256.5,"grid":[[1,1,1,1,1]],"target":[0,0],"response":[0,3],"correct":false,"juego":7,"trial_type":"serial-reaction-time-mouse","trial_index":58,"time_elapsed":2045658,"internal_node_id":"0.0-11.0-8.0"},{"rt":8771.899999976158,"grid":[[1,1,1],[1,1,1],[1,1,1],[1,1,1],[1,1,1],[1,1,1],[1,1,1],[1,1,1],[1,1,1],[1,1,1],[1,1,1]],"target":[0,0],"response":[1,1],"correct":false,"juego":6,"trial_type":"serial-reaction-time-mouse","trial_index":59,"time_elapsed":2054432,"internal_node_id":"0.0-11.0-9.0"},{"rt":6943.799999952316,"grid":[[1,1,1,1,1]],"target":[0,0],"response":[0,2],"correct":false,"juego":11,"trial_type":"serial-reaction-time-mouse","trial_index":60,"time_elapsed":2061376,"internal_node_id":"0.0-11.0-10.0"},{"rt":1262.7999999523163,"grid":[[1,1,1,1,1]],"target":[0,0],"response":[0,2],"correct":false,"juego":8,"trial_type":"serial-reaction-time-mouse","trial_index":61,"time_elapsed":2062640,"internal_node_id":"0.0-11.0-11.0"},{"rt":4040.7000000476837,"grid":[[1,1,1],[1,1,1],[1,1,1],[1,1,1],[1,1,1],[1,1,1],[1,1,1],[1,1,1],[1,1,1],[1,1,1],[1,1,1]],"target":[0,0],"response":[1,1],"correct":false,"juego":5,"trial_type":"serial-reaction-time-mouse","trial_index":62,"time_elapsed":2066683,"internal_node_id":"0.0-11.0-12.0"},{"rt":14045.200000047684,"grid":[[1,1,1,1],[1,1,1,1],[1,1,1,1],[1,1,1,1],[1,1,1,1],[1,1,1,1],[1,1,1,1],[1,1,1,1],[1,1,1,1],[1,1,1,1],[1,1,1,1]],"target":[0,0],"response":[1,2],"correct":false,"juego":14,"trial_type":"serial-reaction-time-mouse","trial_index":63,"time_elapsed":2080730,"internal_node_id":"0.0-11.0-13.0"},{"rt":16028.5,"grid":[[1,1,1],[1,1,1],[1,1,1],[1,1,1],[1,1,1],[1,1,1],[1,1,1],[1,1,1],[1,1,1],[1,1,1],[1,1,1]],"target":[0,0],"response":[3,1],"correct":false,"juego":13,"trial_type":"serial-reaction-time-mouse","trial_index":64,"time_elapsed":2096760,"internal_node_id":"0.0-11.0-14.0"},{"rt":5434.600000023842,"stimulus":"<h1>Último juego</h1><p style=\"font-size: 130%;\">Tienes <span style=\"color:red\">35</span> segundos para recordar los pares de palabras que aparecerán a continuación. <br></p>","response":0,"trial_type":"html-button-response","trial_index":65,"time_elapsed":2102198,"internal_node_id":"0.0-12.0"},{"animation_sequence":[{"stimulus":"imagen_juego_interferencia.jpg","time":522.6000000238419},{"stimulus":"imagen_juego_interferencia.jpg","time":1007.8999999761581},{"stimulus":"imagen_juego_interferencia.jpg","time":1502.3999999761581},{"stimulus":"imagen_juego_interferencia.jpg","time":2001.1000000238419},{"stimulus":"imagen_juego_interferencia.jpg","time":2501.2000000476837},{"stimulus":"imagen_juego_interferencia.jpg","time":3015.7000000476837},{"stimulus":"imagen_juego_interferencia.jpg","time":3502.3000000715256},{"stimulus":"imagen_juego_interferencia.jpg","time":4011.5},{"stimulus":"imagen_juego_interferencia.jpg","time":4501.100000023842},{"stimulus":"imagen_juego_interferencia.jpg","time":5000.800000071526},{"stimulus":"imagen_juego_interferencia.jpg","time":5500.800000071526},{"stimulus":"imagen_juego_interferencia.jpg","time":6001.200000047684},{"stimulus":"imagen_juego_interferencia.jpg","time":6502.5},{"stimulus":"imagen_juego_interferencia.jpg","time":7015.600000023842},{"stimulus":"imagen_juego_interferencia.jpg","time":7501.399999976158},{"stimulus":"imagen_juego_interferencia.jpg","time":8002.200000047684},{"stimulus":"imagen_juego_interferencia.jpg","time":8509.899999976158},{"stimulus":"imagen_juego_interferencia.jpg","time":9005},{"stimulus":"imagen_juego_interferencia.jpg","time":9501.399999976158},{"stimulus":"imagen_juego_interferencia.jpg","time":10011.5},{"stimulus":"imagen_juego_interferencia.jpg","time":10501.399999976158},{"stimulus":"imagen_juego_interferencia.jpg","time":11007.100000023842},{"stimulus":"imagen_juego_interferencia.jpg","time":11501.100000023842},{"stimulus":"imagen_juego_interferencia.jpg","time":12001.100000023842},{"stimulus":"imagen_juego_interferencia.jpg","time":12501.300000071526},{"stimulus":"imagen_juego_interferencia.jpg","time":13009.200000047684},{"stimulus":"imagen_juego_interferencia.jpg","time":13509.100000023842},{"stimulus":"imagen_juego_interferencia.jpg","time":14000.800000071526},{"stimulus":"imagen_juego_interferencia.jpg","time":14501.600000023842},{"stimulus":"imagen_juego_interferencia.jpg","time":15006.5},{"stimulus":"imagen_juego_interferencia.jpg","time":15501.200000047684},{"stimulus":"imagen_juego_interferencia.jpg","time":16004.399999976158},{"stimulus":"imagen_juego_interferencia.jpg","time":16504.899999976158},{"stimulus":"imagen_juego_interferencia.jpg","time":17014.800000071526},{"stimulus":"imagen_juego_interferencia.jpg","time":17513.700000047684},{"stimulus":"imagen_juego_interferencia.jpg","time":18005.399999976158},{"stimulus":"imagen_juego_interferencia.jpg","time":18501.300000071526},{"stimulus":"imagen_juego_interferencia.jpg","time":19004.200000047684},{"stimulus":"imagen_juego_interferencia.jpg","time":19506.100000023842},{"stimulus":"imagen_juego_interferencia.jpg","time":20016},{"stimulus":"imagen_juego_interferencia.jpg","time":20517.100000023842},{"stimulus":"imagen_juego_interferencia.jpg","time":21008.899999976158},{"stimulus":"imagen_juego_interferencia.jpg","time":21512.800000071526},{"stimulus":"imagen_juego_interferencia.jpg","time":22004},{"stimulus":"imagen_juego_interferencia.jpg","time":22508.700000047684},{"stimulus":"imagen_juego_interferencia.jpg","time":23012.899999976158},{"stimulus":"imagen_juego_interferencia.jpg","time":23515.700000047684},{"stimulus":"imagen_juego_interferencia.jpg","time":24007.399999976158},{"stimulus":"imagen_juego_interferencia.jpg","time":24513.800000071526},{"stimulus":"imagen_juego_interferencia.jpg","time":25002.800000071526},{"stimulus":"imagen_juego_interferencia.jpg","time":25505},{"stimulus":"imagen_juego_interferencia.jpg","time":26000.800000071526},{"stimulus":"imagen_juego_interferencia.jpg","time":26500.899999976158},{"stimulus":"imagen_juego_interferencia.jpg","time":27002.399999976158},{"stimulus":"imagen_juego_interferencia.jpg","time":27501.399999976158},{"stimulus":"imagen_juego_interferencia.jpg","time":28001.800000071526},{"stimulus":"imagen_juego_interferencia.jpg","time":28500.800000071526},{"stimulus":"imagen_juego_interferencia.jpg","time":29002.100000023842},{"stimulus":"imagen_juego_interferencia.jpg","time":29501.399999976158},{"stimulus":"imagen_juego_interferencia.jpg","time":30002.600000023842},{"stimulus":"imagen_juego_interferencia.jpg","time":30500.700000047684},{"stimulus":"imagen_juego_interferencia.jpg","time":31004.600000023842},{"stimulus":"imagen_juego_interferencia.jpg","time":31501},{"stimulus":"imagen_juego_interferencia.jpg","time":32002.300000071526},{"stimulus":"imagen_juego_interferencia.jpg","time":32502.399999976158},{"stimulus":"imagen_juego_interferencia.jpg","time":33000.60000002384},{"stimulus":"imagen_juego_interferencia.jpg","time":33500.800000071526},{"stimulus":"imagen_juego_interferencia.jpg","time":34004.89999997616},{"stimulus":"imagen_juego_interferencia.jpg","time":34502},{"stimulus":"imagen_juego_interferencia.jpg","time":35015.200000047684}],"response":[],"trial_type":"animation","trial_index":66,"time_elapsed":2137711,"internal_node_id":"0.0-13.0"},{"rt":38050.199999928474,"responses":"{\"pregunta interferencia3\":\"aluminio\"}","question_order":"[0]","trial_type":"survey-multi-choice-cuest","trial_index":67,"time_elapsed":2175763,"internal_node_id":"0.0-14.0-0.0"},{"rt":24545.399999976158,"responses":"{\"pregunta interferencia4\":\"contador\"}","question_order":"[0]","trial_type":"survey-multi-choice-cuest","trial_index":68,"time_elapsed":2200310,"internal_node_id":"0.0-14.0-1.0"},{"rt":5224.699999928474,"responses":"{\"pregunta interferencia1\":\"naranja\"}","question_order":"[0]","trial_type":"survey-multi-choice-cuest","trial_index":69,"time_elapsed":2205536,"internal_node_id":"0.0-14.0-2.0"},{"rt":18128.100000023842,"responses":"{\"pregunta interferencia2\":\"saltamontes\"}","question_order":"[0]","trial_type":"survey-multi-choice-cuest","trial_index":70,"time_elapsed":2223666,"internal_node_id":"0.0-14.0-3.0"},{"success":true,"trial_type":"fullscreen","trial_index":71,"time_elapsed":2224672,"internal_node_id":"0.0-15.0"}]