[{"rt":149335.09999999404,"stimulus":"<h1 style=\"color:red; margin-top: 3%;\">¡Bienvenido(a)!</h1><p style=\"text-align:left; justify-content:space-between; margin-right: 5%; margin-left: 5%; margin-top: 5%\"> Antes de empezar el estudio, necesitamos que nos confirmes que estás de acuerdo con participar. Recuerda que tu participación es 100% voluntaria y que lo único que te pedimos es responder lo mejor que puedas. Recuerda también que el estudio incluye:</p><ol style=\"text-align:left; justify-content:space-between; margin-right: 5%; margin-left: 5%;\"><li> un ejercicio de resolución de preguntas de selección múltiple (30’),</li><li>un cuestionario breve (5’),</li><li>un juego muy breve (3’),</li></ol><p style=\"text-align:left; justify-content:space-between; margin-right: 5%; margin-left: 5%;\">Si quieres participar, haz clic en “Acepto” luego de leer lo siguiente:<br></p><p style=\"text-align:left; justify-content:space-between; margin-right: 5%; margin-left: 5%;\">Acepto participar en el estudio “Estrategias de lectura y resolución de preguntas de selección múltiple”, en los términos aquí señalados:<br></p><p style=\"text-align:left; justify-content:space-between; margin-right: 5%; margin-left: 5%;\"><a href=\"http://ciae.uchile.cl/download.php?file=noticias/Asentimiento.pdf\" target=\"_blank\">Link a la hoja de información del Consentimiento.</a></p><p style=\"text-align:left; justify-content:space-between; margin-right: 5%; margin-left: 5%;\">Declaro que he leído (o se me ha leído) y (he) comprendido, las condiciones de mi participación en este estudio. He tenido la oportunidad de hacer preguntas y éstas han sido respondidas. No tengo dudas al respecto.</p>","response":0,"condicion_MCQ":8,"condicion_JUEGO":48,"condicion_INTER":24,"numero_participante":48,"numero_version":1,"dimx":1280,"dimy":720,"color_profundidad":24,"pixel_profundidad":24,"Browser":"Google Chrome","dia":19,"mes":5,"hora":18,"minuto":42,"segundo":17,"trial_type":"html-button-response","trial_index":0,"time_elapsed":149342,"internal_node_id":"0.0-0.0"},{"success":true,"trial_type":"fullscreen","trial_index":1,"time_elapsed":152463,"internal_node_id":"0.0-1.0"},{"rt":180156.40000000596,"responses":"{\"Nombres\":\"Daniela Irina\",\"Apellidos\":\"Robledo Hormazábal\",\"Edad\":\"29\",\"Sexo\":\"mujer\",\"Curso\":\"Sección 100\",\"Colegio\":\"Universidad Andres Bello\",\"Contacto\":\"d.robledohormazabal@unab.edu\"}","trial_type":"survey-text","trial_index":2,"time_elapsed":332639,"internal_node_id":"0.0-2.0"},{"success":true,"timeout":false,"failed_images":[],"failed_audio":[],"failed_video":[],"trial_type":"preload","trial_index":3,"time_elapsed":334285,"internal_node_id":"0.0-3.0"},{"rt":20033.29999998212,"stimulus":"<h1 style:\"margin-top: 5%;\">Ejercicios de Comprensión de Lectura de la Universidad de Chile</h1><p style=\"font-size: 120%;\">En esta actividad, debes responder 20 preguntas de selección múltiple. Cada pregunta presenta 5 respuestas alternativas, pero sólo una de ellas es correcta. Por lo tanto, debes escoger una sola alternativa para cada pregunta. Además, debes reportar qué tan seguro(a) estás de la respuesta que das, con un:</p><ol style=\"font-size: 120%;text-align:left;margin-left: 40%;\"><li>No estoy seguro(a) para nada</li><li>No estoy muy seguro(a)</li><li>Estoy bastante seguro(a)</li><li>Estoy totalmente seguro(a)</li></ol><p style=\"font-size: 120%;\">Por favor lee bien los enunciados antes de responder. ¡Éxito!</p>","response":0,"trial_type":"html-button-response","trial_index":4,"time_elapsed":354321,"internal_node_id":"0.0-4.0"},{"rt":81224.09999999404,"responses":"{\"pregunta2\":\"d) A la relación entre civilización y sociedad.\"}","question_order":"[0]","trial_type":"survey-multi-choice","trial_index":5,"time_elapsed":435549,"internal_node_id":"0.0-5.0-0.0"},{"rt":5896.799999982119,"response":{"pregunta2 likert":2},"question_order":[0],"trial_type":"survey-likert","trial_index":6,"time_elapsed":441450,"internal_node_id":"0.0-5.0-1.0"},{"rt":154908.40000000596,"responses":"{\"pregunta19\":\"b) el jardinero estará muerto al día siguiente.\"}","question_order":"[0]","trial_type":"survey-multi-choice","trial_index":7,"time_elapsed":596362,"internal_node_id":"0.0-5.0-2.0"},{"rt":2528.800000011921,"response":{"pregunta19 likert":1},"question_order":[0],"trial_type":"survey-likert","trial_index":8,"time_elapsed":598895,"internal_node_id":"0.0-5.0-3.0"},{"rt":189566,"responses":"{\"pregunta16\":\"a) sufren dolores de espalda.\"}","question_order":"[0]","trial_type":"survey-multi-choice","trial_index":9,"time_elapsed":788466,"internal_node_id":"0.0-5.0-4.0"},{"rt":3878.0999999940395,"response":{"pregunta16 likert":2},"question_order":[0],"trial_type":"survey-likert","trial_index":10,"time_elapsed":792347,"internal_node_id":"0.0-5.0-5.0"},{"rt":65068.19999998808,"responses":"{\"pregunta3\":\"b) La escritura plasma los mejores momentos de los viajes.\"}","question_order":"[0]","trial_type":"survey-multi-choice","trial_index":11,"time_elapsed":857424,"internal_node_id":"0.0-5.0-6.0"},{"rt":2510.399999976158,"response":{"pregunta3 likert":2},"question_order":[0],"trial_type":"survey-likert","trial_index":12,"time_elapsed":859936,"internal_node_id":"0.0-5.0-7.0"},{"rt":120735.30000001192,"responses":"{\"pregunta15\":\"c) La publicidad es dañina para sus receptores.\"}","question_order":"[0]","trial_type":"survey-multi-choice","trial_index":13,"time_elapsed":980675,"internal_node_id":"0.0-5.0-8.0"},{"rt":2488,"response":{"pregunta15 likert":1},"question_order":[0],"trial_type":"survey-likert","trial_index":14,"time_elapsed":983167,"internal_node_id":"0.0-5.0-9.0"},{"rt":57900.30000001192,"responses":"{\"pregunta17\":\"a) Nuestra economía vivirá un proceso de ajuste a la nueva realidad.\"}","question_order":"[0]","trial_type":"survey-multi-choice","trial_index":15,"time_elapsed":1041069,"internal_node_id":"0.0-5.0-10.0"},{"rt":3365.399999976158,"response":{"pregunta17 likert":2},"question_order":[0],"trial_type":"survey-likert","trial_index":16,"time_elapsed":1044437,"internal_node_id":"0.0-5.0-11.0"},{"rt":81580.59999999404,"responses":"{\"pregunta10\":\"e) Al premio merecido después de tantos esfuerzos.\"}","question_order":"[0]","trial_type":"survey-multi-choice","trial_index":17,"time_elapsed":1126022,"internal_node_id":"0.0-5.0-12.0"},{"rt":5556.5999999940395,"response":{"pregunta10 likert":2},"question_order":[0],"trial_type":"survey-likert","trial_index":18,"time_elapsed":1131582,"internal_node_id":"0.0-5.0-13.0"},{"rt":30843.29999998212,"responses":"{\"pregunta20\":\"b) para el mexicano, la muerte es cotidiana.\"}","question_order":"[0]","trial_type":"survey-multi-choice","trial_index":19,"time_elapsed":1162429,"internal_node_id":"0.0-5.0-14.0"},{"rt":3104.5,"response":{"pregunta20 likert":2},"question_order":[0],"trial_type":"survey-likert","trial_index":20,"time_elapsed":1165537,"internal_node_id":"0.0-5.0-15.0"},{"rt":62668.90000000596,"responses":"{\"pregunta11\":\"e) el mejor emperador es el que está muerto.\"}","question_order":"[0]","trial_type":"survey-multi-choice","trial_index":21,"time_elapsed":1228208,"internal_node_id":"0.0-5.0-16.0"},{"rt":2564.2999999821186,"response":{"pregunta11 likert":1},"question_order":[0],"trial_type":"survey-likert","trial_index":22,"time_elapsed":1230776,"internal_node_id":"0.0-5.0-17.0"},{"rt":42384.80000001192,"responses":"{\"pregunta8\":\"d) Provocar el deseo de la adquisición vertiginosa.\"}","question_order":"[0]","trial_type":"survey-multi-choice","trial_index":23,"time_elapsed":1273163,"internal_node_id":"0.0-5.0-18.0"},{"rt":3854.2999999821186,"response":{"pregunta8 likert":1},"question_order":[0],"trial_type":"survey-likert","trial_index":24,"time_elapsed":1277020,"internal_node_id":"0.0-5.0-19.0"},{"rt":125973.80000001192,"responses":"{\"pregunta5\":\"e) El concepto de normalidad es diferente para un psiquiatra que para nosotros.\"}","question_order":"[0]","trial_type":"survey-multi-choice","trial_index":25,"time_elapsed":1402997,"internal_node_id":"0.0-5.0-20.0"},{"rt":4104.0999999940395,"response":{"pregunta5 likert":1},"question_order":[0],"trial_type":"survey-likert","trial_index":26,"time_elapsed":1407103,"internal_node_id":"0.0-5.0-21.0"},{"rt":79206.80000001192,"responses":"{\"pregunta6\":\"c) una constante espera.\"}","question_order":"[0]","trial_type":"survey-multi-choice","trial_index":27,"time_elapsed":1486313,"internal_node_id":"0.0-5.0-22.0"},{"rt":2740.7000000178814,"response":{"pregunta6 likert":1},"question_order":[0],"trial_type":"survey-likert","trial_index":28,"time_elapsed":1489057,"internal_node_id":"0.0-5.0-23.0"},{"rt":108915.70000001788,"responses":"{\"pregunta1\":\"b) Aportan informaciones con las que se reconstruye el personaje dentro de un relato.\"}","question_order":"[0]","trial_type":"survey-multi-choice","trial_index":29,"time_elapsed":1597976,"internal_node_id":"0.0-5.0-24.0"},{"rt":2596.9000000059605,"response":{"pregunta1 likert":1},"question_order":[0],"trial_type":"survey-likert","trial_index":30,"time_elapsed":1600577,"internal_node_id":"0.0-5.0-25.0"},{"rt":54101.70000001788,"responses":"{\"pregunta14\":\"b) A la inexistencia de un recinto adecuado para el recital.\"}","question_order":"[0]","trial_type":"survey-multi-choice","trial_index":31,"time_elapsed":1654681,"internal_node_id":"0.0-5.0-26.0"},{"rt":3498.399999976158,"response":{"pregunta14 likert":2},"question_order":[0],"trial_type":"survey-likert","trial_index":32,"time_elapsed":1658183,"internal_node_id":"0.0-5.0-27.0"},{"rt":40116,"responses":"{\"pregunta13\":\"e) Bomberos debería tener acceso a un seguro médico, al que pueda recurrir en caso de accidente.\"}","question_order":"[0]","trial_type":"survey-multi-choice","trial_index":33,"time_elapsed":1698302,"internal_node_id":"0.0-5.0-28.0"},{"rt":2919.699999988079,"response":{"pregunta13 likert":2},"question_order":[0],"trial_type":"survey-likert","trial_index":34,"time_elapsed":1701223,"internal_node_id":"0.0-5.0-29.0"},{"rt":93976.80000001192,"responses":"{\"pregunta12\":\"c) la creación de elementos químicos artificiales ha resultado de la manipulación del uranio.\"}","question_order":"[0]","trial_type":"survey-multi-choice","trial_index":35,"time_elapsed":1795202,"internal_node_id":"0.0-5.0-30.0"},{"rt":3337.5,"response":{"pregunta12 likert":1},"question_order":[0],"trial_type":"survey-likert","trial_index":36,"time_elapsed":1798542,"internal_node_id":"0.0-5.0-31.0"},{"rt":41209.79999998212,"responses":"{\"pregunta18\":\"b) Se necesita un marco legal para delimitar lo público y lo privado en materia informativa.\"}","question_order":"[0]","trial_type":"survey-multi-choice","trial_index":37,"time_elapsed":1839755,"internal_node_id":"0.0-5.0-32.0"},{"rt":2554.2999999821186,"response":{"pregunta18 likert":2},"question_order":[0],"trial_type":"survey-likert","trial_index":38,"time_elapsed":1842312,"internal_node_id":"0.0-5.0-33.0"},{"rt":92161.09999999404,"responses":"{\"pregunta4\":\"d) Presentar positivamente las diversas tendencias del diseño de interiores a través de un comentario.\"}","question_order":"[0]","trial_type":"survey-multi-choice","trial_index":39,"time_elapsed":1934476,"internal_node_id":"0.0-5.0-34.0"},{"rt":4681.5,"response":{"pregunta4 likert":1},"question_order":[0],"trial_type":"survey-likert","trial_index":40,"time_elapsed":1939161,"internal_node_id":"0.0-5.0-35.0"},{"rt":75654.09999999404,"responses":"{\"pregunta7\":\"d) ritualistas y obsesivos.\"}","question_order":"[0]","trial_type":"survey-multi-choice","trial_index":41,"time_elapsed":2014819,"internal_node_id":"0.0-5.0-36.0"},{"rt":2225.0999999940395,"response":{"pregunta7 likert":2},"question_order":[0],"trial_type":"survey-likert","trial_index":42,"time_elapsed":2017047,"internal_node_id":"0.0-5.0-37.0"},{"rt":60458.79999998212,"responses":"{\"pregunta9\":\"d) Homenajear a quienes murieron.\"}","question_order":"[0]","trial_type":"survey-multi-choice","trial_index":43,"time_elapsed":2077508,"internal_node_id":"0.0-5.0-38.0"},{"rt":2116.199999988079,"response":{"pregunta9 likert":2},"question_order":[0],"trial_type":"survey-likert","trial_index":44,"time_elapsed":2079627,"internal_node_id":"0.0-5.0-39.0"},{"rt":3892.9000000059605,"stimulus":"<p style=\"font-size: 120%\">Gracias por completar esta etapa del estudio. Ahora te invitamos a responder el cuestionario.<br><br></p>","response":0,"trial_type":"html-button-response","trial_index":45,"time_elapsed":2083527,"internal_node_id":"0.0-6.0"},{"rt":23588.59999999404,"stimulus":"<h1 style=\"margin-top: 5%\">Cuestionario para la Evaluación de Metas Académicas</h1><p style=\"font-size: 120%; margin-left: 3%; margin-top: 5%\">Este es un cuestionario que permite conocer cuáles son los principales motivos por los que los estudiantes se esfuerzan en su trabajo académico. A continuación, se te presentarán una serie de afirmaciones acerca de los motivos que puedes tener para estudiar.<br>Te pedimos que contestes a dichas afirmaciones reflexionando sobre el contenido de cada una de ellas, que, aunque te parezcan semejantes, en realidad, no lo son.<br>NO HAY RESPUESTAS CORRECTAS o INCORRECTAS, sólo queremos que respondas con la mayor precisión y sinceridad posible a las preguntas que se plantean.","response":0,"trial_type":"html-button-response","trial_index":46,"time_elapsed":2107118,"internal_node_id":"0.0-7.0"},{"rt":98833.90000000596,"response":{"Metas cuestionario pregunta1":4,"Metas cuestionario pregunta2":4,"Metas cuestionario pregunta3":3,"Metas cuestionario pregunta4":3,"Metas cuestionario pregunta5":4,"Metas cuestionario pregunta6":3,"Metas cuestionario pregunta7":4,"Metas cuestionario pregunta8":3,"Metas cuestionario pregunta9":0,"Metas cuestionario pregunta10":0,"Metas cuestionario pregunta11":0,"Metas cuestionario pregunta12":0,"Metas cuestionario pregunta13":0,"Metas cuestionario pregunta14":0,"Metas cuestionario pregunta15":4,"Metas cuestionario pregunta16":4,"Metas cuestionario pregunta17":4,"Metas cuestionario pregunta18":4,"Metas cuestionario pregunta19":4,"Metas cuestionario pregunta20":2},"question_order":[0,1,2,3,4,5,6,7,8,9,10,11,12,13,14,15,16,17,18,19],"trial_type":"survey-likert","trial_index":47,"time_elapsed":2205959,"internal_node_id":"0.0-8.0"},{"rt":4360,"stimulus":"<p style=\"font-size: 120%\">Gracias por responder el cuestionario. Ahora te invitamos a seguir con el juego, que es muy breve.<br><br></p>","response":0,"trial_type":"html-button-response","trial_index":48,"time_elapsed":2210322,"internal_node_id":"0.0-9.0"},{"rt":18033.09999999404,"stimulus":"<h1>Juego</h1><p style=\"font-size: 120%;\">A continuación se te presentarán 16 pequeñas historias.<br>Por favor lee el texto presentado en cada una de ellas y luego haz click en el objeto de tu elección.<br>Si estás listo(a),<span style=\"color:red;\"> haz click en \"comenzar\"</span>.</p>","response":0,"trial_type":"html-button-response","trial_index":49,"time_elapsed":2228357,"internal_node_id":"0.0-10.0"},{"rt":27978.79999998212,"grid":[[1,1,1,1],[1,1,1,1],[1,1,1,1],[1,1,1,1],[1,1,1,1],[1,1,1,1],[1,1,1,1],[1,1,1,1],[1,1,1,1],[1,1,1,1],[1,1,1,1]],"target":[0,0],"response":[9,2],"correct":false,"juego":14,"trial_type":"serial-reaction-time-mouse","trial_index":50,"time_elapsed":2256341,"internal_node_id":"0.0-11.0-0.0"},{"rt":20846.30000001192,"grid":[[1,1,1,1,1]],"target":[0,0],"response":[0,0],"correct":true,"juego":12,"trial_type":"serial-reaction-time-mouse","trial_index":51,"time_elapsed":2277190,"internal_node_id":"0.0-11.0-1.0"},{"rt":20571.20000001788,"grid":[[1,1,1],[1,1,1],[1,1,1],[1,1,1],[1,1,1],[1,1,1],[1,1,1],[1,1,1],[1,1,1],[1,1,1],[1,1,1]],"target":[0,0],"response":[1,0],"correct":false,"juego":10,"trial_type":"serial-reaction-time-mouse","trial_index":52,"time_elapsed":2297765,"internal_node_id":"0.0-11.0-2.0"},{"rt":18488.600000023842,"grid":[[1,1,1],[1,1,1],[1,1,1],[1,1,1],[1,1,1],[1,1,1],[1,1,1],[1,1,1],[1,1,1],[1,1,1],[1,1,1]],"target":[0,0],"response":[1,1],"correct":false,"juego":13,"trial_type":"serial-reaction-time-mouse","trial_index":53,"time_elapsed":2316256,"internal_node_id":"0.0-11.0-3.0"},{"rt":15874,"grid":[[1,1,1,1,1]],"target":[0,0],"response":[0,4],"correct":false,"juego":2,"trial_type":"serial-reaction-time-mouse","trial_index":54,"time_elapsed":2332132,"internal_node_id":"0.0-11.0-4.0"},{"rt":8365.299999982119,"grid":[[1],[1],[1],[1],[1]],"target":[0,0],"response":[2,0],"correct":false,"juego":4,"trial_type":"serial-reaction-time-mouse","trial_index":55,"time_elapsed":2340499,"internal_node_id":"0.0-11.0-5.0"},{"rt":23816.600000023842,"grid":[[1,1,1,1],[1,1,1,1],[1,1,1,1],[1,1,1,1],[1,1,1,1],[1,1,1,1],[1,1,1,1],[1,1,1,1],[1,1,1,1],[1,1,1,1],[1,1,1,1]],"target":[0,0],"response":[7,2],"correct":false,"juego":15,"trial_type":"serial-reaction-time-mouse","trial_index":56,"time_elapsed":2364320,"internal_node_id":"0.0-11.0-6.0"},{"rt":6926.0999999940395,"grid":[[1,1,1],[1,1,1],[1,1,1],[1,1,1],[1,1,1],[1,1,1],[1,1,1],[1,1,1],[1,1,1],[1,1,1],[1,1,1]],"target":[0,0],"response":[9,1],"correct":false,"juego":5,"trial_type":"serial-reaction-time-mouse","trial_index":57,"time_elapsed":2371250,"internal_node_id":"0.0-11.0-7.0"},{"rt":13193.199999988079,"grid":[[1,1,1],[1,1,1],[1,1,1],[1,1,1],[1,1,1],[1,1,1],[1,1,1],[1,1,1],[1,1,1],[1,1,1],[1,1,1]],"target":[0,0],"response":[7,1],"correct":false,"juego":6,"trial_type":"serial-reaction-time-mouse","trial_index":58,"time_elapsed":2384447,"internal_node_id":"0.0-11.0-8.0"},{"rt":11209.800000011921,"grid":[[1,1,1,1,1]],"target":[0,0],"response":[0,2],"correct":false,"juego":8,"trial_type":"serial-reaction-time-mouse","trial_index":59,"time_elapsed":2395658,"internal_node_id":"0.0-11.0-9.0"},{"rt":11102.40000000596,"grid":[[1,1,1,1,1]],"target":[0,0],"response":[0,1],"correct":false,"juego":9,"trial_type":"serial-reaction-time-mouse","trial_index":60,"time_elapsed":2406762,"internal_node_id":"0.0-11.0-10.0"},{"rt":14876.09999999404,"grid":[[1,1,1,1,1]],"target":[0,0],"response":[0,4],"correct":false,"juego":3,"trial_type":"serial-reaction-time-mouse","trial_index":61,"time_elapsed":2421641,"internal_node_id":"0.0-11.0-11.0"},{"rt":10202,"grid":[[1,1,1,1,1]],"target":[0,0],"response":[0,1],"correct":false,"juego":7,"trial_type":"serial-reaction-time-mouse","trial_index":62,"time_elapsed":2431845,"internal_node_id":"0.0-11.0-12.0"},{"rt":18781.79999998212,"grid":[[1,1,1,1,1]],"target":[0,0],"response":[0,2],"correct":false,"juego":11,"trial_type":"serial-reaction-time-mouse","trial_index":63,"time_elapsed":2450628,"internal_node_id":"0.0-11.0-13.0"},{"rt":6647.5999999940395,"grid":[[1,1,1,1,1]],"target":[0,0],"response":[0,3],"correct":false,"juego":1,"trial_type":"serial-reaction-time-mouse","trial_index":64,"time_elapsed":2457279,"internal_node_id":"0.0-11.0-14.0"}]