[{"rt":22929,"stimulus":"<h1 style=\"color:red; margin-top: 3%;\">¡Bienvenido(a)!</h1><p style=\"text-align:left; justify-content:space-between; margin-right: 5%; margin-left: 5%; margin-top: 5%\"> Antes de empezar el estudio, necesitamos que nos confirmes que estás de acuerdo con participar. Recuerda que tu participación es 100% voluntaria y que lo único que te pedimos es responder lo mejor que puedas. Recuerda también que el estudio incluye:</p><ol style=\"text-align:left; justify-content:space-between; margin-right: 5%; margin-left: 5%;\"><li> un ejercicio de resolución de preguntas de selección múltiple (30’),</li><li>un cuestionario breve (5’),</li><li>un juego muy breve (3’),</li></ol><p style=\"text-align:left; justify-content:space-between; margin-right: 5%; margin-left: 5%;\">Si quieres participar, haz clic en “Acepto” luego de leer lo siguiente:<br></p><p style=\"text-align:left; justify-content:space-between; margin-right: 5%; margin-left: 5%;\">Acepto participar en el estudio “Estrategias de lectura y resolución de preguntas de selección múltiple”, en los términos aquí señalados:<br></p><p style=\"text-align:left; justify-content:space-between; margin-right: 5%; margin-left: 5%;\"><a href=\"http://ciae.uchile.cl/download.php?file=noticias/Asentimiento.pdf\" target=\"_blank\">Link a la hoja de información del Consentimiento.</a></p><p style=\"text-align:left; justify-content:space-between; margin-right: 5%; margin-left: 5%;\">Declaro que he leído (o se me ha leído) y (he) comprendido, las condiciones de mi participación en este estudio. He tenido la oportunidad de hacer preguntas y éstas han sido respondidas. No tengo dudas al respecto.</p>","response":0,"condicion_MCQ":20,"condicion_JUEGO":80,"condicion_INTER":8,"numero_participante":80,"numero_version":1,"dimx":375,"dimy":667,"color_profundidad":32,"pixel_profundidad":32,"Browser":"Apple Safari","dia":23,"mes":5,"hora":14,"minuto":5,"segundo":45,"trial_type":"html-button-response","trial_index":0,"time_elapsed":22934,"internal_node_id":"0.0-0.0"},{"success":true,"trial_type":"fullscreen","trial_index":1,"time_elapsed":26743,"internal_node_id":"0.0-1.0"},{"rt":265033,"responses":"{\"Nombres\":\"José\",\"Apellidos\":\"Moreno Varas\",\"Edad\":\"56\",\"Sexo\":\"Hombre\",\"Curso\":\"PSIC112.202110.8310.TR\",\"Colegio\":\"Universidad Andres Bello\",\"Contacto\":\"Jos. moreno@uandresbello.edu\"}","trial_type":"survey-text","trial_index":2,"time_elapsed":352756,"internal_node_id":"0.0-2.0"},{"success":true,"timeout":false,"failed_images":[],"failed_audio":[],"failed_video":[],"trial_type":"preload","trial_index":3,"time_elapsed":366498,"internal_node_id":"0.0-3.0"},{"rt":136390,"stimulus":"<h1 style:\"margin-top: 5%;\">Ejercicios de Comprensión de Lectura de la Universidad de Chile</h1><p style=\"font-size: 120%;\">En esta actividad, debes responder 20 preguntas de selección múltiple. Cada pregunta presenta 5 respuestas alternativas, pero sólo una de ellas es correcta. Por lo tanto, debes escoger una sola alternativa para cada pregunta. Además, debes reportar qué tan seguro(a) estás de la respuesta que das, con un:</p><ol style=\"font-size: 120%;text-align:left;margin-left: 40%;\"><li>No estoy seguro(a) para nada</li><li>No estoy muy seguro(a)</li><li>Estoy bastante seguro(a)</li><li>Estoy totalmente seguro(a)</li></ol><p style=\"font-size: 120%;\">Por favor lee bien los enunciados antes de responder. ¡Éxito!</p>","response":0,"trial_type":"html-button-response","trial_index":4,"time_elapsed":562382,"internal_node_id":"0.0-4.0"},{"rt":87597,"responses":"{\"pregunta2\":\"a) A la relación entre pensamiento y estructura social.\"}","question_order":"[0]","trial_type":"survey-multi-choice","trial_index":5,"time_elapsed":649999,"internal_node_id":"0.0-5.0-0.0"},{"rt":18932,"response":{"pregunta2 likert":3},"question_order":[0],"trial_type":"survey-likert","trial_index":6,"time_elapsed":668938,"internal_node_id":"0.0-5.0-1.0"},{"rt":56024,"responses":"{\"pregunta1\":\"d) Muestran las opiniones expuestas por los personajes en un relato.\"}","question_order":"[0]","trial_type":"survey-multi-choice","trial_index":7,"time_elapsed":724968,"internal_node_id":"0.0-5.0-2.0"},{"rt":7625,"response":{"pregunta1 likert":3},"question_order":[0],"trial_type":"survey-likert","trial_index":8,"time_elapsed":732600,"internal_node_id":"0.0-5.0-3.0"},{"rt":67788,"responses":"{\"pregunta14\":\"d) A la influencia de grupos que rechazaban su música.\"}","question_order":"[0]","trial_type":"survey-multi-choice","trial_index":9,"time_elapsed":800393,"internal_node_id":"0.0-5.0-4.0"},{"rt":4272,"response":{"pregunta14 likert":3},"question_order":[0],"trial_type":"survey-likert","trial_index":10,"time_elapsed":804670,"internal_node_id":"0.0-5.0-5.0"},{"rt":76533,"responses":"{\"pregunta11\":\"d) el Primer Ministro debía morir por ambicioso.\"}","question_order":"[0]","trial_type":"survey-multi-choice","trial_index":11,"time_elapsed":881209,"internal_node_id":"0.0-5.0-6.0"},{"rt":4213,"response":{"pregunta11 likert":3},"question_order":[0],"trial_type":"survey-likert","trial_index":12,"time_elapsed":885426,"internal_node_id":"0.0-5.0-7.0"},{"rt":119220,"responses":"{\"pregunta3\":\"c) La escritura plasma los mejores momentos de los viajes.\"}","question_order":"[0]","trial_type":"survey-multi-choice","trial_index":13,"time_elapsed":1004648,"internal_node_id":"0.0-5.0-8.0"},{"rt":4044,"response":{"pregunta3 likert":3},"question_order":[0],"trial_type":"survey-likert","trial_index":14,"time_elapsed":1008697,"internal_node_id":"0.0-5.0-9.0"},{"rt":139683,"responses":"{\"pregunta18\":\"e) Se necesita un marco legal para delimitar lo público y lo privado en materia informativa.\"}","question_order":"[0]","trial_type":"survey-multi-choice","trial_index":15,"time_elapsed":1181646,"internal_node_id":"0.0-5.0-10.0"},{"rt":3944,"response":{"pregunta18 likert":3},"question_order":[0],"trial_type":"survey-likert","trial_index":16,"time_elapsed":1185597,"internal_node_id":"0.0-5.0-11.0"},{"rt":93499.00000000012,"responses":"{\"pregunta15\":\"d) El receptor es habitualmente pasivo frente a la publicidad.\"}","question_order":"[0]","trial_type":"survey-multi-choice","trial_index":17,"time_elapsed":1279100,"internal_node_id":"0.0-5.0-12.0"},{"rt":10405,"response":{"pregunta15 likert":3},"question_order":[0],"trial_type":"survey-likert","trial_index":18,"time_elapsed":1289510,"internal_node_id":"0.0-5.0-13.0"},{"rt":98505,"responses":"{\"pregunta16\":\"a) tienen mayores niveles de relaxín.\"}","question_order":"[0]","trial_type":"survey-multi-choice","trial_index":19,"time_elapsed":1388019,"internal_node_id":"0.0-5.0-14.0"},{"rt":3661,"response":{"pregunta16 likert":3},"question_order":[0],"trial_type":"survey-likert","trial_index":20,"time_elapsed":1391685,"internal_node_id":"0.0-5.0-15.0"},{"rt":211495,"responses":"{\"pregunta12\":\"e) la creación de elementos químicos es altamente contaminante.\"}","question_order":"[0]","trial_type":"survey-multi-choice","trial_index":21,"time_elapsed":2086330,"internal_node_id":"0.0-5.0-16.0"},{"rt":5463,"response":{"pregunta12 likert":3},"question_order":[0],"trial_type":"survey-likert","trial_index":22,"time_elapsed":2091805,"internal_node_id":"0.0-5.0-17.0"},{"rt":85356,"responses":"{\"pregunta7\":\"b) ritualistas y obsesivos.\"}","question_order":"[0]","trial_type":"survey-multi-choice","trial_index":23,"time_elapsed":2177165,"internal_node_id":"0.0-5.0-18.0"},{"rt":4029,"response":{"pregunta7 likert":3},"question_order":[0],"trial_type":"survey-likert","trial_index":24,"time_elapsed":2181199,"internal_node_id":"0.0-5.0-19.0"},{"rt":17413,"responses":"{\"pregunta8\":\"b) Provocar el deseo de la adquisición vertiginosa.\"}","question_order":"[0]","trial_type":"survey-multi-choice","trial_index":25,"time_elapsed":2198616,"internal_node_id":"0.0-5.0-20.0"},{"rt":3026,"response":{"pregunta8 likert":2},"question_order":[0],"trial_type":"survey-likert","trial_index":26,"time_elapsed":2201647,"internal_node_id":"0.0-5.0-21.0"},{"rt":19897.999999999767,"responses":"{\"pregunta9\":\"b) Homenajear a quienes murieron.\"}","question_order":"[0]","trial_type":"survey-multi-choice","trial_index":27,"time_elapsed":2221550,"internal_node_id":"0.0-5.0-22.0"},{"rt":3543,"response":{"pregunta9 likert":3},"question_order":[0],"trial_type":"survey-likert","trial_index":28,"time_elapsed":2225098,"internal_node_id":"0.0-5.0-23.0"},{"rt":59733,"responses":"{\"pregunta10\":\"b) A la importancia de optar entre descansar y triunfar.\"}","question_order":"[0]","trial_type":"survey-multi-choice","trial_index":29,"time_elapsed":2284836,"internal_node_id":"0.0-5.0-24.0"},{"rt":3013,"response":{"pregunta10 likert":3},"question_order":[0],"trial_type":"survey-likert","trial_index":30,"time_elapsed":2287853,"internal_node_id":"0.0-5.0-25.0"},{"rt":35335,"responses":"{\"pregunta5\":\"a) El ser humano se comporta de acuerdo con las circunstancias.\"}","question_order":"[0]","trial_type":"survey-multi-choice","trial_index":31,"time_elapsed":2323192,"internal_node_id":"0.0-5.0-26.0"},{"rt":2875,"response":{"pregunta5 likert":2},"question_order":[0],"trial_type":"survey-likert","trial_index":32,"time_elapsed":2326071,"internal_node_id":"0.0-5.0-27.0"},{"rt":71583.99999999977,"responses":"{\"pregunta4\":\"a) Promover la asistencia a un evento específico de decoración a través de una atractiva descripción.\"}","question_order":"[0]","trial_type":"survey-multi-choice","trial_index":33,"time_elapsed":2397660,"internal_node_id":"0.0-5.0-28.0"},{"rt":3210.000000000233,"response":{"pregunta4 likert":3},"question_order":[0],"trial_type":"survey-likert","trial_index":34,"time_elapsed":2400874,"internal_node_id":"0.0-5.0-29.0"},{"rt":15247,"responses":"{\"pregunta19\":\"b) la Muerte vaticina el futuro mediante gestos.\"}","question_order":"[0]","trial_type":"survey-multi-choice","trial_index":35,"time_elapsed":2416125,"internal_node_id":"0.0-5.0-30.0"},{"rt":3144,"response":{"pregunta19 likert":2},"question_order":[0],"trial_type":"survey-likert","trial_index":36,"time_elapsed":2419274,"internal_node_id":"0.0-5.0-31.0"},{"rt":32787.00000000023,"responses":"{\"pregunta17\":\"d) Nuestra economía vivirá un proceso de ajuste a la nueva realidad.\"}","question_order":"[0]","trial_type":"survey-multi-choice","trial_index":37,"time_elapsed":2452066,"internal_node_id":"0.0-5.0-32.0"},{"rt":3140.000000000233,"response":{"pregunta17 likert":3},"question_order":[0],"trial_type":"survey-likert","trial_index":38,"time_elapsed":2455210,"internal_node_id":"0.0-5.0-33.0"},{"rt":34248,"responses":"{\"pregunta13\":\"e) Por el riesgo que corren diariamente, los bomberos deberían tener mejores condiciones de seguridad.\"}","question_order":"[0]","trial_type":"survey-multi-choice","trial_index":39,"time_elapsed":2489463,"internal_node_id":"0.0-5.0-34.0"},{"rt":4009,"response":{"pregunta13 likert":3},"question_order":[0],"trial_type":"survey-likert","trial_index":40,"time_elapsed":2493477,"internal_node_id":"0.0-5.0-35.0"},{"rt":30038,"responses":"{\"pregunta20\":\"c) la muerte es distinta en las grandes ciudades.\"}","question_order":"[0]","trial_type":"survey-multi-choice","trial_index":41,"time_elapsed":2523521,"internal_node_id":"0.0-5.0-36.0"},{"rt":2875,"response":{"pregunta20 likert":2},"question_order":[0],"trial_type":"survey-likert","trial_index":42,"time_elapsed":2526400,"internal_node_id":"0.0-5.0-37.0"},{"rt":13993,"responses":"{\"pregunta6\":\"a) un recuerdo nostálgico.\"}","question_order":"[0]","trial_type":"survey-multi-choice","trial_index":43,"time_elapsed":2540399,"internal_node_id":"0.0-5.0-38.0"},{"rt":2464,"response":{"pregunta6 likert":2},"question_order":[0],"trial_type":"survey-likert","trial_index":44,"time_elapsed":2542868,"internal_node_id":"0.0-5.0-39.0"},{"rt":2165,"stimulus":"<p style=\"font-size: 120%\">Gracias por completar esta etapa del estudio. Ahora te invitamos a responder el cuestionario.<br><br></p>","response":0,"trial_type":"html-button-response","trial_index":45,"time_elapsed":2545062,"internal_node_id":"0.0-6.0"},{"rt":4038.999999999767,"stimulus":"<h1 style=\"margin-top: 5%\">Cuestionario para la Evaluación de Metas Académicas</h1><p style=\"font-size: 120%; margin-left: 3%; margin-top: 5%\">Este es un cuestionario que permite conocer cuáles son los principales motivos por los que los estudiantes se esfuerzan en su trabajo académico. A continuación, se te presentarán una serie de afirmaciones acerca de los motivos que puedes tener para estudiar.<br>Te pedimos que contestes a dichas afirmaciones reflexionando sobre el contenido de cada una de ellas, que, aunque te parezcan semejantes, en realidad, no lo son.<br>NO HAY RESPUESTAS CORRECTAS o INCORRECTAS, sólo queremos que respondas con la mayor precisión y sinceridad posible a las preguntas que se plantean.","response":0,"trial_type":"html-button-response","trial_index":46,"time_elapsed":2549105,"internal_node_id":"0.0-7.0"},{"rt":114042,"response":{"Metas cuestionario pregunta1":3,"Metas cuestionario pregunta2":3,"Metas cuestionario pregunta3":3,"Metas cuestionario pregunta4":3,"Metas cuestionario pregunta5":3,"Metas cuestionario pregunta6":3,"Metas cuestionario pregunta7":3,"Metas cuestionario pregunta8":3,"Metas cuestionario pregunta9":1,"Metas cuestionario pregunta10":2,"Metas cuestionario pregunta11":0,"Metas cuestionario pregunta12":0,"Metas cuestionario pregunta13":0,"Metas cuestionario pregunta14":2,"Metas cuestionario pregunta15":4,"Metas cuestionario pregunta16":4,"Metas cuestionario pregunta17":4,"Metas cuestionario pregunta18":4,"Metas cuestionario pregunta19":4,"Metas cuestionario pregunta20":4},"question_order":[0,1,2,3,4,5,6,7,8,9,10,11,12,13,14,15,16,17,18,19],"trial_type":"survey-likert","trial_index":47,"time_elapsed":2663163,"internal_node_id":"0.0-8.0"}]