[{"rt":10798.400000000373,"stimulus":"<h1 style=\"color:red; margin-top: 3%;\">¡Bienvenido(a)!</h1><p style=\"text-align:left; justify-content:space-between; margin-right: 5%; margin-left: 5%; margin-top: 5%\"> Antes de empezar el estudio, necesitamos que nos confirmes que estás de acuerdo con participar. Recuerda que tu participación es 100% voluntaria y que lo único que te pedimos es responder lo mejor que puedas. Recuerda también que el estudio incluye:</p><ol style=\"text-align:left; justify-content:space-between; margin-right: 5%; margin-left: 5%;\"><li> un ejercicio de resolución de preguntas de selección múltiple (30’),</li><li>un cuestionario breve (5’),</li><li>un juego muy breve (3’),</li></ol><p style=\"text-align:left; justify-content:space-between; margin-right: 5%; margin-left: 5%;\">Si quieres participar, haz clic en “Acepto” luego de leer lo siguiente:<br></p><p style=\"text-align:left; justify-content:space-between; margin-right: 5%; margin-left: 5%;\">Acepto participar en el estudio “Estrategias de lectura y resolución de preguntas de selección múltiple”, en los términos aquí señalados:<br></p><p style=\"text-align:left; justify-content:space-between; margin-right: 5%; margin-left: 5%;\"><a href=\"http://ciae.uchile.cl/download.php?file=noticias/Asentimiento.pdf\" target=\"_blank\">Link a la hoja de información del Consentimiento.</a></p><p style=\"text-align:left; justify-content:space-between; margin-right: 5%; margin-left: 5%;\">Declaro que he leído (o se me ha leído) y (he) comprendido, las condiciones de mi participación en este estudio. He tenido la oportunidad de hacer preguntas y éstas han sido respondidas. No tengo dudas al respecto.</p>","response":0,"condicion_MCQ":6,"condicion_JUEGO":26,"condicion_INTER":2,"numero_participante":26,"numero_version":1,"dimx":1280,"dimy":800,"color_profundidad":24,"pixel_profundidad":24,"Browser":"Google Chrome","dia":18,"mes":5,"hora":14,"minuto":18,"segundo":46,"trial_type":"html-button-response","trial_index":0,"time_elapsed":10804,"internal_node_id":"0.0-0.0"},{"success":true,"trial_type":"fullscreen","trial_index":1,"time_elapsed":18857,"internal_node_id":"0.0-1.0"},{"rt":118091.90000000037,"responses":"{\"Nombres\":\"Tomás Alberto\",\"Apellidos\":\"Domínguez Valdés\",\"Edad\":\"18\",\"Sexo\":\"Hombre\",\"Curso\":\"Sección 201\",\"Colegio\":\"Universidad\",\"Contacto\":\"tomasdominguezvaldes@gmail.com\"}","trial_type":"survey-text","trial_index":2,"time_elapsed":136955,"internal_node_id":"0.0-2.0"},{"success":true,"timeout":false,"failed_images":[],"failed_audio":[],"failed_video":[],"trial_type":"preload","trial_index":3,"time_elapsed":137882,"internal_node_id":"0.0-3.0"},{"rt":8506.299999998882,"stimulus":"<h1 style:\"margin-top: 5%;\">Ejercicios de Comprensión de Lectura de la Universidad de Chile</h1><p style=\"font-size: 120%;\">En esta actividad, debes responder 20 preguntas de selección múltiple. Cada pregunta presenta 5 respuestas alternativas, pero sólo una de ellas es correcta. Por lo tanto, debes escoger una sola alternativa para cada pregunta. Además, debes reportar qué tan seguro(a) estás de la respuesta que das, con un:</p><ol style=\"font-size: 120%;text-align:left;margin-left: 40%;\"><li>No estoy seguro(a) para nada</li><li>No estoy muy seguro(a)</li><li>Estoy bastante seguro(a)</li><li>Estoy totalmente seguro(a)</li></ol><p style=\"font-size: 120%;\">Por favor lee bien los enunciados antes de responder. ¡Éxito!</p>","response":0,"trial_type":"html-button-response","trial_index":4,"time_elapsed":146390,"internal_node_id":"0.0-4.0"},{"rt":40070.79999999888,"responses":"{\"pregunta7\":\"c) ritualistas y obsesivos.\"}","question_order":"[0]","trial_type":"survey-multi-choice","trial_index":5,"time_elapsed":186463,"internal_node_id":"0.0-5.0-0.0"},{"rt":3906.60000000149,"response":{"pregunta7 likert":2},"question_order":[0],"trial_type":"survey-likert","trial_index":6,"time_elapsed":190372,"internal_node_id":"0.0-5.0-1.0"},{"rt":39420.20000000112,"responses":"{\"pregunta17\":\"a) Nuestra economía vivirá un proceso de ajuste a la nueva realidad.\"}","question_order":"[0]","trial_type":"survey-multi-choice","trial_index":7,"time_elapsed":229794,"internal_node_id":"0.0-5.0-2.0"},{"rt":1777.5,"response":{"pregunta17 likert":2},"question_order":[0],"trial_type":"survey-likert","trial_index":8,"time_elapsed":231574,"internal_node_id":"0.0-5.0-3.0"},{"rt":46620.40000000037,"responses":"{\"pregunta2\":\"d) A la relación entre sociedad y constitución social.\"}","question_order":"[0]","trial_type":"survey-multi-choice","trial_index":9,"time_elapsed":278195,"internal_node_id":"0.0-5.0-4.0"},{"rt":1981.800000000745,"response":{"pregunta2 likert":3},"question_order":[0],"trial_type":"survey-likert","trial_index":10,"time_elapsed":280179,"internal_node_id":"0.0-5.0-5.0"},{"rt":52550.800000000745,"responses":"{\"pregunta8\":\"d) Provocar el deseo de la adquisición vertiginosa.\"}","question_order":"[0]","trial_type":"survey-multi-choice","trial_index":11,"time_elapsed":332731,"internal_node_id":"0.0-5.0-6.0"},{"rt":3091.699999999255,"response":{"pregunta8 likert":3},"question_order":[0],"trial_type":"survey-likert","trial_index":12,"time_elapsed":335825,"internal_node_id":"0.0-5.0-7.0"},{"rt":43289.79999999702,"responses":"{\"pregunta14\":\"e) A la influencia de grupos que rechazaban su música.\"}","question_order":"[0]","trial_type":"survey-multi-choice","trial_index":13,"time_elapsed":379117,"internal_node_id":"0.0-5.0-8.0"},{"rt":2656.199999999255,"response":{"pregunta14 likert":2},"question_order":[0],"trial_type":"survey-likert","trial_index":14,"time_elapsed":381776,"internal_node_id":"0.0-5.0-9.0"},{"rt":19338.699999999255,"responses":"{\"pregunta13\":\"e) Bomberos debería tener acceso a un seguro médico, al que pueda recurrir en caso de accidente.\"}","question_order":"[0]","trial_type":"survey-multi-choice","trial_index":15,"time_elapsed":401117,"internal_node_id":"0.0-5.0-10.0"},{"rt":1743,"response":{"pregunta13 likert":3},"question_order":[0],"trial_type":"survey-likert","trial_index":16,"time_elapsed":402863,"internal_node_id":"0.0-5.0-11.0"},{"rt":40910.199999999255,"responses":"{\"pregunta10\":\"d) Al premio merecido después de tantos esfuerzos.\"}","question_order":"[0]","trial_type":"survey-multi-choice","trial_index":17,"time_elapsed":443774,"internal_node_id":"0.0-5.0-12.0"},{"rt":2774.300000000745,"response":{"pregunta10 likert":3},"question_order":[0],"trial_type":"survey-likert","trial_index":18,"time_elapsed":446550,"internal_node_id":"0.0-5.0-13.0"},{"rt":14603.099999997765,"responses":"{\"pregunta9\":\"d) Homenajear a quienes murieron.\"}","question_order":"[0]","trial_type":"survey-multi-choice","trial_index":19,"time_elapsed":461155,"internal_node_id":"0.0-5.0-14.0"},{"rt":1682.5999999977648,"response":{"pregunta9 likert":3},"question_order":[0],"trial_type":"survey-likert","trial_index":20,"time_elapsed":462841,"internal_node_id":"0.0-5.0-15.0"},{"rt":52497.099999997765,"responses":"{\"pregunta5\":\"c) El ser humano se comporta de acuerdo con las circunstancias.\"}","question_order":"[0]","trial_type":"survey-multi-choice","trial_index":21,"time_elapsed":515339,"internal_node_id":"0.0-5.0-16.0"},{"rt":2512.099999997765,"response":{"pregunta5 likert":2},"question_order":[0],"trial_type":"survey-likert","trial_index":22,"time_elapsed":517853,"internal_node_id":"0.0-5.0-17.0"},{"rt":97171.80000000075,"responses":"{\"pregunta16\":\"c) tienen mayores niveles de relaxín.\"}","question_order":"[0]","trial_type":"survey-multi-choice","trial_index":23,"time_elapsed":615025,"internal_node_id":"0.0-5.0-18.0"},{"rt":2279.900000002235,"response":{"pregunta16 likert":1},"question_order":[0],"trial_type":"survey-likert","trial_index":24,"time_elapsed":617308,"internal_node_id":"0.0-5.0-19.0"},{"rt":106376.19999999925,"responses":"{\"pregunta12\":\"a) la creación de elementos químicos artificiales ha resultado de la manipulación del uranio.\"}","question_order":"[0]","trial_type":"survey-multi-choice","trial_index":25,"time_elapsed":723684,"internal_node_id":"0.0-5.0-20.0"},{"rt":1545.5,"response":{"pregunta12 likert":2},"question_order":[0],"trial_type":"survey-likert","trial_index":26,"time_elapsed":725232,"internal_node_id":"0.0-5.0-21.0"},{"rt":46514,"responses":"{\"pregunta19\":\"a) el jardinero estará muerto al día siguiente.\"}","question_order":"[0]","trial_type":"survey-multi-choice","trial_index":27,"time_elapsed":771747,"internal_node_id":"0.0-5.0-22.0"},{"rt":2541.60000000149,"response":{"pregunta19 likert":2},"question_order":[0],"trial_type":"survey-likert","trial_index":28,"time_elapsed":774291,"internal_node_id":"0.0-5.0-23.0"},{"rt":60226.89999999851,"responses":"{\"pregunta20\":\"a) la muerte es distinta en las grandes ciudades.\"}","question_order":"[0]","trial_type":"survey-multi-choice","trial_index":29,"time_elapsed":834519,"internal_node_id":"0.0-5.0-24.0"},{"rt":1577,"response":{"pregunta20 likert":2},"question_order":[0],"trial_type":"survey-likert","trial_index":30,"time_elapsed":836099,"internal_node_id":"0.0-5.0-25.0"},{"rt":41134.70000000298,"responses":"{\"pregunta15\":\"e) El receptor es habitualmente pasivo frente a la publicidad.\"}","question_order":"[0]","trial_type":"survey-multi-choice","trial_index":31,"time_elapsed":877235,"internal_node_id":"0.0-5.0-26.0"},{"rt":1804,"response":{"pregunta15 likert":2},"question_order":[0],"trial_type":"survey-likert","trial_index":32,"time_elapsed":879041,"internal_node_id":"0.0-5.0-27.0"},{"rt":104880,"responses":"{\"pregunta4\":\"c) Promover la asistencia a un evento específico de decoración a través de una atractiva descripción.\"}","question_order":"[0]","trial_type":"survey-multi-choice","trial_index":33,"time_elapsed":983920,"internal_node_id":"0.0-5.0-28.0"},{"rt":1358.800000000745,"response":{"pregunta4 likert":2},"question_order":[0],"trial_type":"survey-likert","trial_index":34,"time_elapsed":985281,"internal_node_id":"0.0-5.0-29.0"},{"rt":127356.5,"responses":"{\"pregunta6\":\"a) un conjunto de imágenes de recuerdos gratos.\"}","question_order":"[0]","trial_type":"survey-multi-choice","trial_index":35,"time_elapsed":1112636,"internal_node_id":"0.0-5.0-30.0"},{"rt":2009.1000000014901,"response":{"pregunta6 likert":2},"question_order":[0],"trial_type":"survey-likert","trial_index":36,"time_elapsed":1114648,"internal_node_id":"0.0-5.0-31.0"},{"rt":64759.699999999255,"responses":"{\"pregunta18\":\"a) Se necesita un marco legal para delimitar lo público y lo privado en materia informativa.\"}","question_order":"[0]","trial_type":"survey-multi-choice","trial_index":37,"time_elapsed":1179409,"internal_node_id":"0.0-5.0-32.0"},{"rt":1752.9000000022352,"response":{"pregunta18 likert":2},"question_order":[0],"trial_type":"survey-likert","trial_index":38,"time_elapsed":1181164,"internal_node_id":"0.0-5.0-33.0"},{"rt":126528.09999999776,"responses":"{\"pregunta3\":\"e) La escritura plasma los mejores momentos de los viajes.\"}","question_order":"[0]","trial_type":"survey-multi-choice","trial_index":39,"time_elapsed":1307692,"internal_node_id":"0.0-5.0-34.0"},{"rt":1664.5,"response":{"pregunta3 likert":3},"question_order":[0],"trial_type":"survey-likert","trial_index":40,"time_elapsed":1309359,"internal_node_id":"0.0-5.0-35.0"},{"rt":39757.900000002235,"responses":"{\"pregunta1\":\"b) Aportan informaciones con las que se reconstruye el personaje dentro de un relato.\"}","question_order":"[0]","trial_type":"survey-multi-choice","trial_index":41,"time_elapsed":1349118,"internal_node_id":"0.0-5.0-36.0"},{"rt":1450.0999999977648,"response":{"pregunta1 likert":3},"question_order":[0],"trial_type":"survey-likert","trial_index":42,"time_elapsed":1350570,"internal_node_id":"0.0-5.0-37.0"},{"rt":37478.60000000149,"responses":"{\"pregunta11\":\"d) el mejor emperador es el que está muerto.\"}","question_order":"[0]","trial_type":"survey-multi-choice","trial_index":43,"time_elapsed":1388051,"internal_node_id":"0.0-5.0-38.0"},{"rt":1827,"response":{"pregunta11 likert":2},"question_order":[0],"trial_type":"survey-likert","trial_index":44,"time_elapsed":1389881,"internal_node_id":"0.0-5.0-39.0"},{"rt":2508.699999999255,"stimulus":"<p style=\"font-size: 120%\">Gracias por completar esta etapa del estudio. Ahora te invitamos a responder el cuestionario.<br><br></p>","response":0,"trial_type":"html-button-response","trial_index":45,"time_elapsed":1392396,"internal_node_id":"0.0-6.0"},{"rt":12505.70000000298,"stimulus":"<h1 style=\"margin-top: 5%\">Cuestionario para la Evaluación de Metas Académicas</h1><p style=\"font-size: 120%; margin-left: 3%; margin-top: 5%\">Este es un cuestionario que permite conocer cuáles son los principales motivos por los que los estudiantes se esfuerzan en su trabajo académico. A continuación, se te presentarán una serie de afirmaciones acerca de los motivos que puedes tener para estudiar.<br>Te pedimos que contestes a dichas afirmaciones reflexionando sobre el contenido de cada una de ellas, que, aunque te parezcan semejantes, en realidad, no lo son.<br>NO HAY RESPUESTAS CORRECTAS o INCORRECTAS, sólo queremos que respondas con la mayor precisión y sinceridad posible a las preguntas que se plantean.","response":0,"trial_type":"html-button-response","trial_index":46,"time_elapsed":1404903,"internal_node_id":"0.0-7.0"},{"rt":58967.89999999851,"response":{"Metas cuestionario pregunta1":3,"Metas cuestionario pregunta2":4,"Metas cuestionario pregunta3":4,"Metas cuestionario pregunta4":3,"Metas cuestionario pregunta5":4,"Metas cuestionario pregunta6":3,"Metas cuestionario pregunta7":4,"Metas cuestionario pregunta8":4,"Metas cuestionario pregunta9":4,"Metas cuestionario pregunta10":2,"Metas cuestionario pregunta11":0,"Metas cuestionario pregunta12":1,"Metas cuestionario pregunta13":2,"Metas cuestionario pregunta14":2,"Metas cuestionario pregunta15":4,"Metas cuestionario pregunta16":4,"Metas cuestionario pregunta17":4,"Metas cuestionario pregunta18":4,"Metas cuestionario pregunta19":4,"Metas cuestionario pregunta20":4},"question_order":[0,1,2,3,4,5,6,7,8,9,10,11,12,13,14,15,16,17,18,19],"trial_type":"survey-likert","trial_index":47,"time_elapsed":1463878,"internal_node_id":"0.0-8.0"},{"rt":2219,"stimulus":"<p style=\"font-size: 120%\">Gracias por responder el cuestionario. Ahora te invitamos a seguir con el juego, que es muy breve.<br><br></p>","response":0,"trial_type":"html-button-response","trial_index":48,"time_elapsed":1466101,"internal_node_id":"0.0-9.0"},{"rt":7742.60000000149,"stimulus":"<h1>Juego</h1><p style=\"font-size: 120%;\">A continuación se te presentarán 16 pequeñas historias.<br>Por favor lee el texto presentado en cada una de ellas y luego haz click en el objeto de tu elección.<br>Si estás listo(a),<span style=\"color:red;\"> haz click en \"comenzar\"</span>.</p>","response":0,"trial_type":"html-button-response","trial_index":49,"time_elapsed":1473846,"internal_node_id":"0.0-10.0"},{"rt":15755.70000000298,"grid":[[1,1,1,1],[1,1,1,1],[1,1,1,1],[1,1,1,1],[1,1,1,1],[1,1,1,1],[1,1,1,1],[1,1,1,1],[1,1,1,1],[1,1,1,1],[1,1,1,1]],"target":[0,0],"response":[3,2],"correct":false,"juego":14,"trial_type":"serial-reaction-time-mouse","trial_index":50,"time_elapsed":1489606,"internal_node_id":"0.0-11.0-0.0"},{"rt":16027.89999999851,"grid":[[1,1,1],[1,1,1],[1,1,1],[1,1,1],[1,1,1],[1,1,1],[1,1,1],[1,1,1],[1,1,1],[1,1,1],[1,1,1]],"target":[0,0],"response":[3,1],"correct":false,"juego":5,"trial_type":"serial-reaction-time-mouse","trial_index":51,"time_elapsed":1505638,"internal_node_id":"0.0-11.0-1.0"},{"rt":17946.10000000149,"grid":[[1,1,1,1,1]],"target":[0,0],"response":[0,3],"correct":false,"juego":12,"trial_type":"serial-reaction-time-mouse","trial_index":52,"time_elapsed":1523585,"internal_node_id":"0.0-11.0-2.0"},{"rt":6305.39999999851,"grid":[[1,1,1,1,1]],"target":[0,0],"response":[0,3],"correct":false,"juego":1,"trial_type":"serial-reaction-time-mouse","trial_index":53,"time_elapsed":1529892,"internal_node_id":"0.0-11.0-3.0"},{"rt":7448.10000000149,"grid":[[1,1,1,1,1]],"target":[0,0],"response":[0,3],"correct":false,"juego":2,"trial_type":"serial-reaction-time-mouse","trial_index":54,"time_elapsed":1537343,"internal_node_id":"0.0-11.0-4.0"},{"rt":4018.800000000745,"grid":[[1],[1],[1],[1],[1]],"target":[0,0],"response":[1,0],"correct":false,"juego":4,"trial_type":"serial-reaction-time-mouse","trial_index":55,"time_elapsed":1541364,"internal_node_id":"0.0-11.0-5.0"},{"rt":10252.5,"grid":[[1,1,1],[1,1,1],[1,1,1],[1,1,1],[1,1,1],[1,1,1],[1,1,1],[1,1,1],[1,1,1],[1,1,1],[1,1,1]],"target":[0,0],"response":[9,1],"correct":false,"juego":6,"trial_type":"serial-reaction-time-mouse","trial_index":56,"time_elapsed":1551620,"internal_node_id":"0.0-11.0-6.0"},{"rt":6337.599999997765,"grid":[[1,1,1,1,1]],"target":[0,0],"response":[0,3],"correct":false,"juego":8,"trial_type":"serial-reaction-time-mouse","trial_index":57,"time_elapsed":1557960,"internal_node_id":"0.0-11.0-7.0"},{"rt":7161.900000002235,"grid":[[1,1,1,1,1]],"target":[0,0],"response":[0,1],"correct":false,"juego":9,"trial_type":"serial-reaction-time-mouse","trial_index":58,"time_elapsed":1565124,"internal_node_id":"0.0-11.0-8.0"},{"rt":11348.39999999851,"grid":[[1,1,1,1,1]],"target":[0,0],"response":[0,3],"correct":false,"juego":3,"trial_type":"serial-reaction-time-mouse","trial_index":59,"time_elapsed":1576473,"internal_node_id":"0.0-11.0-9.0"},{"rt":8962.300000000745,"grid":[[1,1,1,1],[1,1,1,1],[1,1,1,1],[1,1,1,1],[1,1,1,1],[1,1,1,1],[1,1,1,1],[1,1,1,1],[1,1,1,1],[1,1,1,1],[1,1,1,1]],"target":[0,0],"response":[5,2],"correct":false,"juego":15,"trial_type":"serial-reaction-time-mouse","trial_index":60,"time_elapsed":1585438,"internal_node_id":"0.0-11.0-10.0"},{"rt":10103.900000002235,"grid":[[1,1,1,1,1]],"target":[0,0],"response":[0,4],"correct":false,"juego":11,"trial_type":"serial-reaction-time-mouse","trial_index":61,"time_elapsed":1595543,"internal_node_id":"0.0-11.0-11.0"},{"rt":9573.599999997765,"grid":[[1,1,1],[1,1,1],[1,1,1],[1,1,1],[1,1,1],[1,1,1],[1,1,1],[1,1,1],[1,1,1],[1,1,1],[1,1,1]],"target":[0,0],"response":[5,0],"correct":false,"juego":10,"trial_type":"serial-reaction-time-mouse","trial_index":62,"time_elapsed":1605118,"internal_node_id":"0.0-11.0-12.0"},{"rt":10060.70000000298,"grid":[[1,1,1],[1,1,1],[1,1,1],[1,1,1],[1,1,1],[1,1,1],[1,1,1],[1,1,1],[1,1,1],[1,1,1],[1,1,1]],"target":[0,0],"response":[9,1],"correct":false,"juego":13,"trial_type":"serial-reaction-time-mouse","trial_index":63,"time_elapsed":1615181,"internal_node_id":"0.0-11.0-13.0"},{"rt":10636.60000000149,"grid":[[1,1,1,1,1]],"target":[0,0],"response":[0,2],"correct":false,"juego":7,"trial_type":"serial-reaction-time-mouse","trial_index":64,"time_elapsed":1625819,"internal_node_id":"0.0-11.0-14.0"},{"rt":7955.300000000745,"stimulus":"<h1>Último juego</h1><p style=\"font-size: 130%;\">Tienes <span style=\"color:red\">35</span> segundos para recordar los pares de palabras que aparecerán a continuación. <br></p>","response":0,"trial_type":"html-button-response","trial_index":65,"time_elapsed":1633777,"internal_node_id":"0.0-12.0"},{"animation_sequence":[{"stimulus":"imagen_juego_interferencia.jpg","time":512.1000000014901},{"stimulus":"imagen_juego_interferencia.jpg","time":1001.1999999992549},{"stimulus":"imagen_juego_interferencia.jpg","time":1501.199999999255},{"stimulus":"imagen_juego_interferencia.jpg","time":2001},{"stimulus":"imagen_juego_interferencia.jpg","time":2501.60000000149},{"stimulus":"imagen_juego_interferencia.jpg","time":3001.400000002235},{"stimulus":"imagen_juego_interferencia.jpg","time":3502.800000000745},{"stimulus":"imagen_juego_interferencia.jpg","time":4006.199999999255},{"stimulus":"imagen_juego_interferencia.jpg","time":4506.199999999255},{"stimulus":"imagen_juego_interferencia.jpg","time":5005.5},{"stimulus":"imagen_juego_interferencia.jpg","time":5504.60000000149},{"stimulus":"imagen_juego_interferencia.jpg","time":6004.400000002235},{"stimulus":"imagen_juego_interferencia.jpg","time":6501.900000002235},{"stimulus":"imagen_juego_interferencia.jpg","time":7004.300000000745},{"stimulus":"imagen_juego_interferencia.jpg","time":7502.800000000745},{"stimulus":"imagen_juego_interferencia.jpg","time":8005.5},{"stimulus":"imagen_juego_interferencia.jpg","time":8501.199999999255},{"stimulus":"imagen_juego_interferencia.jpg","time":9002},{"stimulus":"imagen_juego_interferencia.jpg","time":9504},{"stimulus":"imagen_juego_interferencia.jpg","time":10006.199999999255},{"stimulus":"imagen_juego_interferencia.jpg","time":10505.699999999255},{"stimulus":"imagen_juego_interferencia.jpg","time":11001.400000002235},{"stimulus":"imagen_juego_interferencia.jpg","time":11505.60000000149},{"stimulus":"imagen_juego_interferencia.jpg","time":12005.60000000149},{"stimulus":"imagen_juego_interferencia.jpg","time":12504.5},{"stimulus":"imagen_juego_interferencia.jpg","time":13003.300000000745},{"stimulus":"imagen_juego_interferencia.jpg","time":13503.199999999255},{"stimulus":"imagen_juego_interferencia.jpg","time":14002.10000000149},{"stimulus":"imagen_juego_interferencia.jpg","time":14502.5},{"stimulus":"imagen_juego_interferencia.jpg","time":15001.199999999255},{"stimulus":"imagen_juego_interferencia.jpg","time":15501.199999999255},{"stimulus":"imagen_juego_interferencia.jpg","time":16006.10000000149},{"stimulus":"imagen_juego_interferencia.jpg","time":16501.300000000745},{"stimulus":"imagen_juego_interferencia.jpg","time":17006.199999999255},{"stimulus":"imagen_juego_interferencia.jpg","time":17506.199999999255},{"stimulus":"imagen_juego_interferencia.jpg","time":18006.300000000745},{"stimulus":"imagen_juego_interferencia.jpg","time":18504.400000002235},{"stimulus":"imagen_juego_interferencia.jpg","time":19005.10000000149},{"stimulus":"imagen_juego_interferencia.jpg","time":19506.199999999255},{"stimulus":"imagen_juego_interferencia.jpg","time":20003.60000000149},{"stimulus":"imagen_juego_interferencia.jpg","time":20502},{"stimulus":"imagen_juego_interferencia.jpg","time":21002.60000000149},{"stimulus":"imagen_juego_interferencia.jpg","time":21501.800000000745},{"stimulus":"imagen_juego_interferencia.jpg","time":22001.199999999255},{"stimulus":"imagen_juego_interferencia.jpg","time":22501.199999999255},{"stimulus":"imagen_juego_interferencia.jpg","time":23004.300000000745},{"stimulus":"imagen_juego_interferencia.jpg","time":23501.60000000149},{"stimulus":"imagen_juego_interferencia.jpg","time":24006.10000000149},{"stimulus":"imagen_juego_interferencia.jpg","time":24506.10000000149},{"stimulus":"imagen_juego_interferencia.jpg","time":25006.10000000149},{"stimulus":"imagen_juego_interferencia.jpg","time":25506.10000000149},{"stimulus":"imagen_juego_interferencia.jpg","time":26006},{"stimulus":"imagen_juego_interferencia.jpg","time":26503.199999999255},{"stimulus":"imagen_juego_interferencia.jpg","time":27004.800000000745},{"stimulus":"imagen_juego_interferencia.jpg","time":27503.60000000149},{"stimulus":"imagen_juego_interferencia.jpg","time":28002.5},{"stimulus":"imagen_juego_interferencia.jpg","time":28503.699999999255},{"stimulus":"imagen_juego_interferencia.jpg","time":29001.300000000745},{"stimulus":"imagen_juego_interferencia.jpg","time":29504.5},{"stimulus":"imagen_juego_interferencia.jpg","time":30001.300000000745},{"stimulus":"imagen_juego_interferencia.jpg","time":30506.199999999255},{"stimulus":"imagen_juego_interferencia.jpg","time":31006.199999999255},{"stimulus":"imagen_juego_interferencia.jpg","time":31506.199999999255},{"stimulus":"imagen_juego_interferencia.jpg","time":32006.300000000745},{"stimulus":"imagen_juego_interferencia.jpg","time":32506.199999999255},{"stimulus":"imagen_juego_interferencia.jpg","time":33005},{"stimulus":"imagen_juego_interferencia.jpg","time":33504.60000000149},{"stimulus":"imagen_juego_interferencia.jpg","time":34004.900000002235},{"stimulus":"imagen_juego_interferencia.jpg","time":34503.5},{"stimulus":"imagen_juego_interferencia.jpg","time":35002.400000002235}],"response":[],"trial_type":"animation","trial_index":66,"time_elapsed":1669278,"internal_node_id":"0.0-13.0"},{"rt":5308.900000002235,"responses":"{\"pregunta interferencia1\":\"naranja\"}","question_order":"[0]","trial_type":"survey-multi-choice-cuest","trial_index":67,"time_elapsed":1674589,"internal_node_id":"0.0-14.0-0.0"},{"rt":4187.699999999255,"responses":"{\"pregunta interferencia3\":\"aluminio\"}","question_order":"[0]","trial_type":"survey-multi-choice-cuest","trial_index":68,"time_elapsed":1678779,"internal_node_id":"0.0-14.0-1.0"},{"rt":4520.099999997765,"responses":"{\"pregunta interferencia2\":\"saltamontes\"}","question_order":"[0]","trial_type":"survey-multi-choice-cuest","trial_index":69,"time_elapsed":1683301,"internal_node_id":"0.0-14.0-2.0"},{"rt":6360.599999997765,"responses":"{\"pregunta interferencia4\":\"conserje\"}","question_order":"[0]","trial_type":"survey-multi-choice-cuest","trial_index":70,"time_elapsed":1689663,"internal_node_id":"0.0-14.0-3.0"},{"success":true,"trial_type":"fullscreen","trial_index":71,"time_elapsed":1690671,"internal_node_id":"0.0-15.0"},{"rt":2635.5,"responses":"{\"Telefono\":\"\"}","trial_type":"survey-text","trial_index":72,"time_elapsed":1693312,"internal_node_id":"0.0-16.0"}]