[{"rt":14298,"stimulus":"<h1 style=\"color:red; margin-top: 3%;\">¡Bienvenido(a)!</h1><p style=\"text-align:left; justify-content:space-between; margin-right: 5%; margin-left: 5%; margin-top: 5%\"> Antes de empezar el estudio, necesitamos que nos confirmes que estás de acuerdo con participar. Recuerda que tu participación es 100% voluntaria y que lo único que te pedimos es responder lo mejor que puedas. Recuerda también que el estudio incluye:</p><ol style=\"text-align:left; justify-content:space-between; margin-right: 5%; margin-left: 5%;\"><li> un ejercicio de resolución de preguntas de selección múltiple (30’),</li><li>un cuestionario breve (5’),</li><li>un juego muy breve (3’),</li></ol><p style=\"text-align:left; justify-content:space-between; margin-right: 5%; margin-left: 5%;\">Si quieres participar, haz clic en “Acepto” luego de leer lo siguiente:<br></p><p style=\"text-align:left; justify-content:space-between; margin-right: 5%; margin-left: 5%;\">Acepto participar en el estudio “Estrategias de lectura y resolución de preguntas de selección múltiple”, en los términos aquí señalados:<br></p><p style=\"text-align:left; justify-content:space-between; margin-right: 5%; margin-left: 5%;\"><a href=\"http://ciae.uchile.cl/download.php?file=noticias/Asentimiento.pdf\" target=\"_blank\">Link a la hoja de información del Consentimiento.</a></p><p style=\"text-align:left; justify-content:space-between; margin-right: 5%; margin-left: 5%;\">Declaro que he leído (o se me ha leído) y (he) comprendido, las condiciones de mi participación en este estudio. He tenido la oportunidad de hacer preguntas y éstas han sido respondidas. No tengo dudas al respecto.</p>","response":0,"condicion_MCQ":5,"condicion_JUEGO":45,"condicion_INTER":21,"numero_participante":45,"numero_version":3,"dimx":1280,"dimy":720,"color_profundidad":24,"pixel_profundidad":24,"Browser":"Google Chrome","dia":26,"mes":5,"hora":12,"minuto":39,"segundo":45,"trial_type":"html-button-response","trial_index":0,"time_elapsed":14301,"internal_node_id":"0.0-0.0"},{"success":true,"trial_type":"fullscreen","trial_index":1,"time_elapsed":22914,"internal_node_id":"0.0-1.0"},{"rt":101659.79999995232,"responses":"{\"Nombres\":\"Angela Michelle\",\"Apellidos\":\"Díaz Salazar\",\"Edad\":\"37\",\"Sexo\":\"mujer\",\"Curso\":\"primer año Psicología Vespertino\",\"Colegio\":\"Universidad Andres Bello\",\"Contacto\":\"angeladiazsalazar@gmail.com\"}","trial_type":"survey-text","trial_index":2,"time_elapsed":124579,"internal_node_id":"0.0-2.0"},{"success":true,"timeout":false,"failed_images":[],"failed_audio":[],"failed_video":[],"trial_type":"preload","trial_index":3,"time_elapsed":125536,"internal_node_id":"0.0-3.0"},{"rt":179824,"stimulus":"<h1 style:\"margin-top: 5%;\">Ejercicios de Comprensión de Lectura de la Universidad de Chile</h1><p style=\"font-size: 120%;\">En esta actividad, debes responder 20 preguntas de selección múltiple. Cada pregunta presenta 5 respuestas alternativas, pero sólo una de ellas es correcta. Por lo tanto, debes escoger una sola alternativa para cada pregunta. Además, debes reportar qué tan seguro(a) estás de la respuesta que das, con un:</p><ol style=\"font-size: 120%;text-align:left;margin-left: 40%;\"><li>No estoy seguro(a) para nada</li><li>No estoy muy seguro(a)</li><li>Estoy bastante seguro(a)</li><li>Estoy totalmente seguro(a)</li></ol><p style=\"font-size: 120%;\">Por favor lee bien los enunciados antes de responder. ¡Éxito!</p>","response":0,"trial_type":"html-button-response","trial_index":4,"time_elapsed":305362,"internal_node_id":"0.0-4.0"},{"rt":63945,"responses":"{\"pregunta7\":\"c) ritualistas y obsesivos.\"}","question_order":"[0]","trial_type":"survey-multi-choice","trial_index":5,"time_elapsed":369309,"internal_node_id":"0.0-5.0-0.0"},{"rt":5464.5,"response":{"pregunta7 likert":2},"question_order":[0],"trial_type":"survey-likert","trial_index":6,"time_elapsed":374775,"internal_node_id":"0.0-5.0-1.0"},{"rt":66355.89999997616,"responses":"{\"pregunta19\":\"a) el jardinero estará muerto al día siguiente.\"}","question_order":"[0]","trial_type":"survey-multi-choice","trial_index":7,"time_elapsed":441132,"internal_node_id":"0.0-5.0-2.0"},{"rt":3127.800000011921,"response":{"pregunta19 likert":2},"question_order":[0],"trial_type":"survey-likert","trial_index":8,"time_elapsed":444262,"internal_node_id":"0.0-5.0-3.0"},{"rt":90259,"responses":"{\"pregunta9\":\"d) Homenajear a quienes murieron.\"}","question_order":"[0]","trial_type":"survey-multi-choice","trial_index":9,"time_elapsed":534523,"internal_node_id":"0.0-5.0-4.0"},{"rt":2711.800000011921,"response":{"pregunta9 likert":2},"question_order":[0],"trial_type":"survey-likert","trial_index":10,"time_elapsed":537236,"internal_node_id":"0.0-5.0-5.0"},{"rt":81263.80000001192,"responses":"{\"pregunta10\":\"b) A la inutilidad de tanto esfuerzo si el objetivo es el reposo.\"}","question_order":"[0]","trial_type":"survey-multi-choice","trial_index":11,"time_elapsed":618502,"internal_node_id":"0.0-5.0-6.0"},{"rt":3363.2000000476837,"response":{"pregunta10 likert":2},"question_order":[0],"trial_type":"survey-likert","trial_index":12,"time_elapsed":621867,"internal_node_id":"0.0-5.0-7.0"},{"rt":114319.69999998808,"responses":"{\"pregunta13\":\"e) Bomberos debería tener acceso a un seguro médico, al que pueda recurrir en caso de accidente.\"}","question_order":"[0]","trial_type":"survey-multi-choice","trial_index":13,"time_elapsed":736189,"internal_node_id":"0.0-5.0-8.0"},{"rt":3014,"response":{"pregunta13 likert":2},"question_order":[0],"trial_type":"survey-likert","trial_index":14,"time_elapsed":739205,"internal_node_id":"0.0-5.0-9.0"},{"rt":95418.80000001192,"responses":"{\"pregunta2\":\"c) A la relación entre sociedad y constitución social.\"}","question_order":"[0]","trial_type":"survey-multi-choice","trial_index":15,"time_elapsed":834625,"internal_node_id":"0.0-5.0-10.0"},{"rt":2828,"response":{"pregunta2 likert":2},"question_order":[0],"trial_type":"survey-likert","trial_index":16,"time_elapsed":837456,"internal_node_id":"0.0-5.0-11.0"},{"rt":67493,"responses":"{\"pregunta15\":\"e) El receptor es habitualmente pasivo frente a la publicidad.\"}","question_order":"[0]","trial_type":"survey-multi-choice","trial_index":17,"time_elapsed":904951,"internal_node_id":"0.0-5.0-12.0"},{"rt":2729.2999999523163,"response":{"pregunta15 likert":2},"question_order":[0],"trial_type":"survey-likert","trial_index":18,"time_elapsed":907682,"internal_node_id":"0.0-5.0-13.0"},{"rt":63513.299999952316,"responses":"{\"pregunta1\":\"b) Aportan informaciones con las que se reconstruye el personaje dentro de un relato.\"}","question_order":"[0]","trial_type":"survey-multi-choice","trial_index":19,"time_elapsed":971197,"internal_node_id":"0.0-5.0-14.0"},{"rt":2664.599999964237,"response":{"pregunta1 likert":2},"question_order":[0],"trial_type":"survey-likert","trial_index":20,"time_elapsed":973863,"internal_node_id":"0.0-5.0-15.0"},{"rt":59214.69999998808,"responses":"{\"pregunta8\":\"c) Provocar el deseo de la adquisición vertiginosa.\"}","question_order":"[0]","trial_type":"survey-multi-choice","trial_index":21,"time_elapsed":1033080,"internal_node_id":"0.0-5.0-16.0"},{"rt":2678.2999999523163,"response":{"pregunta8 likert":2},"question_order":[0],"trial_type":"survey-likert","trial_index":22,"time_elapsed":1035760,"internal_node_id":"0.0-5.0-17.0"},{"rt":47210.19999998808,"responses":"{\"pregunta18\":\"a) Se necesita un marco legal para delimitar lo público y lo privado en materia informativa.\"}","question_order":"[0]","trial_type":"survey-multi-choice","trial_index":23,"time_elapsed":1082971,"internal_node_id":"0.0-5.0-18.0"},{"rt":2580.900000035763,"response":{"pregunta18 likert":2},"question_order":[0],"trial_type":"survey-likert","trial_index":24,"time_elapsed":1085553,"internal_node_id":"0.0-5.0-19.0"},{"rt":81911.20000004768,"responses":"{\"pregunta6\":\"c) preparar los recuerdos del mañana.\"}","question_order":"[0]","trial_type":"survey-multi-choice","trial_index":25,"time_elapsed":1167467,"internal_node_id":"0.0-5.0-20.0"},{"rt":2549,"response":{"pregunta6 likert":2},"question_order":[0],"trial_type":"survey-likert","trial_index":26,"time_elapsed":1170017,"internal_node_id":"0.0-5.0-21.0"},{"rt":81246.69999998808,"responses":"{\"pregunta5\":\"c) El ser humano se comporta de acuerdo con las circunstancias.\"}","question_order":"[0]","trial_type":"survey-multi-choice","trial_index":27,"time_elapsed":1251266,"internal_node_id":"0.0-5.0-22.0"},{"rt":4294.200000047684,"response":{"pregunta5 likert":2},"question_order":[0],"trial_type":"survey-likert","trial_index":28,"time_elapsed":1255562,"internal_node_id":"0.0-5.0-23.0"},{"rt":64879.299999952316,"responses":"{\"pregunta11\":\"d) el mejor emperador es el que está muerto.\"}","question_order":"[0]","trial_type":"survey-multi-choice","trial_index":29,"time_elapsed":1320443,"internal_node_id":"0.0-5.0-24.0"},{"rt":2878.100000023842,"response":{"pregunta11 likert":2},"question_order":[0],"trial_type":"survey-likert","trial_index":30,"time_elapsed":1323323,"internal_node_id":"0.0-5.0-25.0"},{"rt":47695.299999952316,"responses":"{\"pregunta4\":\"e) Presentar positivamente las diversas tendencias del diseño de interiores a través de un comentario.\"}","question_order":"[0]","trial_type":"survey-multi-choice","trial_index":31,"time_elapsed":1371020,"internal_node_id":"0.0-5.0-26.0"},{"rt":2643,"response":{"pregunta4 likert":2},"question_order":[0],"trial_type":"survey-likert","trial_index":32,"time_elapsed":1373665,"internal_node_id":"0.0-5.0-27.0"},{"rt":82715.89999997616,"responses":"{\"pregunta20\":\"a) para el mexicano, la muerte es cotidiana.\"}","question_order":"[0]","trial_type":"survey-multi-choice","trial_index":33,"time_elapsed":1456383,"internal_node_id":"0.0-5.0-28.0"},{"rt":2760.100000023842,"response":{"pregunta20 likert":1},"question_order":[0],"trial_type":"survey-likert","trial_index":34,"time_elapsed":1459145,"internal_node_id":"0.0-5.0-29.0"},{"rt":66106.39999997616,"responses":"{\"pregunta17\":\"b) El TLC causará una completa transformación de la economía chilena.\"}","question_order":"[0]","trial_type":"survey-multi-choice","trial_index":35,"time_elapsed":1525253,"internal_node_id":"0.0-5.0-30.0"},{"rt":2434.5,"response":{"pregunta17 likert":2},"question_order":[0],"trial_type":"survey-likert","trial_index":36,"time_elapsed":1527689,"internal_node_id":"0.0-5.0-31.0"},{"rt":49556.90000003576,"responses":"{\"pregunta14\":\"b) A la inexistencia de un recinto adecuado para el recital.\"}","question_order":"[0]","trial_type":"survey-multi-choice","trial_index":37,"time_elapsed":1577247,"internal_node_id":"0.0-5.0-32.0"},{"rt":4472.5,"response":{"pregunta14 likert":2},"question_order":[0],"trial_type":"survey-likert","trial_index":38,"time_elapsed":1581721,"internal_node_id":"0.0-5.0-33.0"},{"rt":56253.90000003576,"responses":"{\"pregunta12\":\"d) el uranio es el elemento natural con el mayor número de protones en el núcleo.\"}","question_order":"[0]","trial_type":"survey-multi-choice","trial_index":39,"time_elapsed":1637977,"internal_node_id":"0.0-5.0-34.0"},{"rt":2966.599999964237,"response":{"pregunta12 likert":2},"question_order":[0],"trial_type":"survey-likert","trial_index":40,"time_elapsed":1640945,"internal_node_id":"0.0-5.0-35.0"},{"rt":83797.69999998808,"responses":"{\"pregunta3\":\"b) Los momentos triviales de los viajes, en la escritura se vuelven significativos.\"}","question_order":"[0]","trial_type":"survey-multi-choice","trial_index":41,"time_elapsed":1724745,"internal_node_id":"0.0-5.0-36.0"},{"rt":3012.800000011921,"response":{"pregunta3 likert":2},"question_order":[0],"trial_type":"survey-likert","trial_index":42,"time_elapsed":1727759,"internal_node_id":"0.0-5.0-37.0"},{"rt":159548.80000001192,"responses":"{\"pregunta16\":\"e) sufren dolores de espalda.\"}","question_order":"[0]","trial_type":"survey-multi-choice","trial_index":43,"time_elapsed":1887309,"internal_node_id":"0.0-5.0-38.0"},{"rt":2363.900000035763,"response":{"pregunta16 likert":1},"question_order":[0],"trial_type":"survey-likert","trial_index":44,"time_elapsed":1889675,"internal_node_id":"0.0-5.0-39.0"},{"rt":4591.100000023842,"stimulus":"<p style=\"font-size: 120%\">Gracias por completar esta etapa del estudio. Ahora te invitamos a responder el cuestionario.<br><br></p>","response":0,"trial_type":"html-button-response","trial_index":45,"time_elapsed":1894271,"internal_node_id":"0.0-6.0"},{"rt":27591.600000023842,"stimulus":"<h1 style=\"margin-top: 5%\">Cuestionario para la Evaluación de Metas Académicas</h1><p style=\"font-size: 120%; margin-left: 3%; margin-top: 5%\">Este es un cuestionario que permite conocer cuáles son los principales motivos por los que los estudiantes se esfuerzan en su trabajo académico. A continuación, se te presentarán una serie de afirmaciones acerca de los motivos que puedes tener para estudiar.<br>Te pedimos que contestes a dichas afirmaciones reflexionando sobre el contenido de cada una de ellas, que, aunque te parezcan semejantes, en realidad, no lo son.<br>NO HAY RESPUESTAS CORRECTAS o INCORRECTAS, sólo queremos que respondas con la mayor precisión y sinceridad posible a las preguntas que se plantean.","response":0,"trial_type":"html-button-response","trial_index":46,"time_elapsed":1921864,"internal_node_id":"0.0-7.0"},{"rt":135284.39999997616,"response":{"Metas cuestionario pregunta1":2,"Metas cuestionario pregunta2":3,"Metas cuestionario pregunta3":4,"Metas cuestionario pregunta4":2,"Metas cuestionario pregunta5":4,"Metas cuestionario pregunta6":3,"Metas cuestionario pregunta7":4,"Metas cuestionario pregunta8":4,"Metas cuestionario pregunta9":2,"Metas cuestionario pregunta10":2,"Metas cuestionario pregunta11":0,"Metas cuestionario pregunta12":2,"Metas cuestionario pregunta13":1,"Metas cuestionario pregunta14":1,"Metas cuestionario pregunta15":3,"Metas cuestionario pregunta16":3,"Metas cuestionario pregunta17":3,"Metas cuestionario pregunta18":4,"Metas cuestionario pregunta19":3,"Metas cuestionario pregunta20":2},"question_order":[0,1,2,3,4,5,6,7,8,9,10,11,12,13,14,15,16,17,18,19],"trial_type":"survey-likert","trial_index":47,"time_elapsed":2057155,"internal_node_id":"0.0-8.0"}]