[{"rt":26617.700000001118,"stimulus":"<h1 style=\"color:red; margin-top: 3%;\">¡Bienvenido(a)!</h1><p style=\"text-align:left; justify-content:space-between; margin-right: 5%; margin-left: 5%; margin-top: 5%\"> Antes de empezar el estudio, necesitamos que nos confirmes que estás de acuerdo con participar. Recuerda que tu participación es 100% voluntaria y que lo único que te pedimos es responder lo mejor que puedas. Recuerda también que el estudio incluye:</p><ol style=\"text-align:left; justify-content:space-between; margin-right: 5%; margin-left: 5%;\"><li> un ejercicio de resolución de preguntas de selección múltiple (30’),</li><li>un cuestionario breve (5’),</li><li>un juego muy breve (3’),</li></ol><p style=\"text-align:left; justify-content:space-between; margin-right: 5%; margin-left: 5%;\">Si quieres participar, haz clic en “Acepto” luego de leer lo siguiente:<br></p><p style=\"text-align:left; justify-content:space-between; margin-right: 5%; margin-left: 5%;\">Acepto participar en el estudio “Estrategias de lectura y resolución de preguntas de selección múltiple”, en los términos aquí señalados:<br></p><p style=\"text-align:left; justify-content:space-between; margin-right: 5%; margin-left: 5%;\"><a href=\"http://ciae.uchile.cl/download.php?file=noticias/Asentimiento.pdf\" target=\"_blank\">Link a la hoja de información del Consentimiento.</a></p><p style=\"text-align:left; justify-content:space-between; margin-right: 5%; margin-left: 5%;\">Declaro que he leído (o se me ha leído) y (he) comprendido, las condiciones de mi participación en este estudio. He tenido la oportunidad de hacer preguntas y éstas han sido respondidas. No tengo dudas al respecto.</p>","response":0,"condicion_MCQ":19,"condicion_JUEGO":79,"condicion_INTER":7,"numero_participante":79,"numero_version":1,"dimx":1536,"dimy":864,"color_profundidad":24,"pixel_profundidad":24,"Browser":"Google Chrome","dia":23,"mes":5,"hora":13,"minuto":48,"segundo":42,"trial_type":"html-button-response","trial_index":0,"time_elapsed":26623,"internal_node_id":"0.0-0.0"},{"success":true,"trial_type":"fullscreen","trial_index":1,"time_elapsed":33526,"internal_node_id":"0.0-1.0"},{"rt":75287,"responses":"{\"Nombres\":\"paz Monserrat\",\"Apellidos\":\"Salazar Espinoza\",\"Edad\":\"19\",\"Sexo\":\"mujer\",\"Curso\":\"seccion 101 vespertino\",\"Colegio\":\"andres bello\",\"Contacto\":\"990169646\"}","trial_type":"survey-text","trial_index":2,"time_elapsed":108820,"internal_node_id":"0.0-2.0"},{"success":true,"timeout":false,"failed_images":[],"failed_audio":[],"failed_video":[],"trial_type":"preload","trial_index":3,"time_elapsed":113534,"internal_node_id":"0.0-3.0"},{"rt":16192.299999998882,"stimulus":"<h1 style:\"margin-top: 5%;\">Ejercicios de Comprensión de Lectura de la Universidad de Chile</h1><p style=\"font-size: 120%;\">En esta actividad, debes responder 20 preguntas de selección múltiple. Cada pregunta presenta 5 respuestas alternativas, pero sólo una de ellas es correcta. Por lo tanto, debes escoger una sola alternativa para cada pregunta. Además, debes reportar qué tan seguro(a) estás de la respuesta que das, con un:</p><ol style=\"font-size: 120%;text-align:left;margin-left: 40%;\"><li>No estoy seguro(a) para nada</li><li>No estoy muy seguro(a)</li><li>Estoy bastante seguro(a)</li><li>Estoy totalmente seguro(a)</li></ol><p style=\"font-size: 120%;\">Por favor lee bien los enunciados antes de responder. ¡Éxito!</p>","response":0,"trial_type":"html-button-response","trial_index":4,"time_elapsed":129728,"internal_node_id":"0.0-4.0"},{"rt":35425.29999999888,"responses":"{\"pregunta16\":\"e) son propensas a fertilizar in vitro.\"}","question_order":"[0]","trial_type":"survey-multi-choice","trial_index":5,"time_elapsed":165156,"internal_node_id":"0.0-5.0-0.0"},{"rt":4262.200000001118,"response":{"pregunta16 likert":3},"question_order":[0],"trial_type":"survey-likert","trial_index":6,"time_elapsed":169422,"internal_node_id":"0.0-5.0-1.0"},{"rt":67837.59999999963,"responses":"{\"pregunta4\":\"c) Presentar positivamente las diversas tendencias del diseño de interiores a través de un comentario.\"}","question_order":"[0]","trial_type":"survey-multi-choice","trial_index":7,"time_elapsed":237263,"internal_node_id":"0.0-5.0-2.0"},{"rt":5068.5999999996275,"response":{"pregunta4 likert":1},"question_order":[0],"trial_type":"survey-likert","trial_index":8,"time_elapsed":242335,"internal_node_id":"0.0-5.0-3.0"},{"rt":73435.59999999963,"responses":"{\"pregunta11\":\"c) el mejor emperador es el que está muerto.\"}","question_order":"[0]","trial_type":"survey-multi-choice","trial_index":9,"time_elapsed":315774,"internal_node_id":"0.0-5.0-4.0"},{"rt":3605.7000000011176,"response":{"pregunta11 likert":2},"question_order":[0],"trial_type":"survey-likert","trial_index":10,"time_elapsed":319383,"internal_node_id":"0.0-5.0-5.0"},{"rt":26624.099999999627,"responses":"{\"pregunta13\":\"d) Por el riesgo que corren diariamente, los bomberos deberían tener mejores condiciones de seguridad.\"}","question_order":"[0]","trial_type":"survey-multi-choice","trial_index":11,"time_elapsed":346011,"internal_node_id":"0.0-5.0-6.0"},{"rt":2805.7999999988824,"response":{"pregunta13 likert":2},"question_order":[0],"trial_type":"survey-likert","trial_index":12,"time_elapsed":348820,"internal_node_id":"0.0-5.0-7.0"},{"rt":81311.09999999963,"responses":"{\"pregunta15\":\"b) El receptor es el que posee la decisión sobre la publicidad.\"}","question_order":"[0]","trial_type":"survey-multi-choice","trial_index":13,"time_elapsed":430134,"internal_node_id":"0.0-5.0-8.0"},{"rt":6270.9000000003725,"response":{"pregunta15 likert":2},"question_order":[0],"trial_type":"survey-likert","trial_index":14,"time_elapsed":436407,"internal_node_id":"0.0-5.0-9.0"},{"rt":45302,"responses":"{\"pregunta8\":\"d) Mostrar personajes bellos y poderosos.\"}","question_order":"[0]","trial_type":"survey-multi-choice","trial_index":15,"time_elapsed":481711,"internal_node_id":"0.0-5.0-10.0"},{"rt":3190.5999999996275,"response":{"pregunta8 likert":0},"question_order":[0],"trial_type":"survey-likert","trial_index":16,"time_elapsed":484904,"internal_node_id":"0.0-5.0-11.0"},{"rt":54056.90000000037,"responses":"{\"pregunta19\":\"a) la Muerte vaticina el futuro mediante gestos.\"}","question_order":"[0]","trial_type":"survey-multi-choice","trial_index":17,"time_elapsed":538964,"internal_node_id":"0.0-5.0-12.0"},{"rt":3213.5999999996275,"response":{"pregunta19 likert":1},"question_order":[0],"trial_type":"survey-likert","trial_index":18,"time_elapsed":542180,"internal_node_id":"0.0-5.0-13.0"},{"rt":34671.59999999963,"responses":"{\"pregunta17\":\"d) Nuestra economía vivirá un proceso de ajuste a la nueva realidad.\"}","question_order":"[0]","trial_type":"survey-multi-choice","trial_index":19,"time_elapsed":576854,"internal_node_id":"0.0-5.0-14.0"},{"rt":4250.9000000003725,"response":{"pregunta17 likert":0},"question_order":[0],"trial_type":"survey-likert","trial_index":20,"time_elapsed":581108,"internal_node_id":"0.0-5.0-15.0"},{"rt":37315.5,"responses":"{\"pregunta20\":\"b) la muerte es distinta en las grandes ciudades.\"}","question_order":"[0]","trial_type":"survey-multi-choice","trial_index":21,"time_elapsed":618426,"internal_node_id":"0.0-5.0-16.0"},{"rt":4718.9000000003725,"response":{"pregunta20 likert":0},"question_order":[0],"trial_type":"survey-likert","trial_index":22,"time_elapsed":623148,"internal_node_id":"0.0-5.0-17.0"},{"rt":65579.59999999963,"responses":"{\"pregunta6\":\"a) preparar los recuerdos del mañana.\"}","question_order":"[0]","trial_type":"survey-multi-choice","trial_index":23,"time_elapsed":688731,"internal_node_id":"0.0-5.0-18.0"},{"rt":2727,"response":{"pregunta6 likert":2},"question_order":[0],"trial_type":"survey-likert","trial_index":24,"time_elapsed":691461,"internal_node_id":"0.0-5.0-19.0"},{"rt":47348.70000000112,"responses":"{\"pregunta18\":\"b) Las personas públicas no tienen vida privada.\"}","question_order":"[0]","trial_type":"survey-multi-choice","trial_index":25,"time_elapsed":738812,"internal_node_id":"0.0-5.0-20.0"},{"rt":2472.800000000745,"response":{"pregunta18 likert":1},"question_order":[0],"trial_type":"survey-likert","trial_index":26,"time_elapsed":741288,"internal_node_id":"0.0-5.0-21.0"},{"rt":39478.59999999963,"responses":"{\"pregunta1\":\"c) Muestran las opiniones expuestas por los personajes en un relato.\"}","question_order":"[0]","trial_type":"survey-multi-choice","trial_index":27,"time_elapsed":780770,"internal_node_id":"0.0-5.0-22.0"},{"rt":3343.7000000011176,"response":{"pregunta1 likert":1},"question_order":[0],"trial_type":"survey-likert","trial_index":28,"time_elapsed":784116,"internal_node_id":"0.0-5.0-23.0"},{"rt":53471,"responses":"{\"pregunta10\":\"d) Al deseo de privilegiar el ocio por sobre el trabajo.\"}","question_order":"[0]","trial_type":"survey-multi-choice","trial_index":29,"time_elapsed":837591,"internal_node_id":"0.0-5.0-24.0"},{"rt":2798.4000000003725,"response":{"pregunta10 likert":0},"question_order":[0],"trial_type":"survey-likert","trial_index":30,"time_elapsed":840392,"internal_node_id":"0.0-5.0-25.0"},{"rt":51287.40000000037,"responses":"{\"pregunta7\":\"b) ritualistas y obsesivos.\"}","question_order":"[0]","trial_type":"survey-multi-choice","trial_index":31,"time_elapsed":891682,"internal_node_id":"0.0-5.0-26.0"},{"rt":2837.5999999996275,"response":{"pregunta7 likert":2},"question_order":[0],"trial_type":"survey-likert","trial_index":32,"time_elapsed":894522,"internal_node_id":"0.0-5.0-27.0"},{"rt":25367.900000000373,"responses":"{\"pregunta12\":\"d) a partir de la manipulación del núcleo se han creado elementos químicos naturales.\"}","question_order":"[0]","trial_type":"survey-multi-choice","trial_index":33,"time_elapsed":919893,"internal_node_id":"0.0-5.0-28.0"},{"rt":2868.5999999996275,"response":{"pregunta12 likert":2},"question_order":[0],"trial_type":"survey-likert","trial_index":34,"time_elapsed":922764,"internal_node_id":"0.0-5.0-29.0"},{"rt":37510.20000000112,"responses":"{\"pregunta14\":\"d) Al orden de la productora para no turistear por el país.\"}","question_order":"[0]","trial_type":"survey-multi-choice","trial_index":35,"time_elapsed":960277,"internal_node_id":"0.0-5.0-30.0"},{"rt":2535.2999999988824,"response":{"pregunta14 likert":0},"question_order":[0],"trial_type":"survey-likert","trial_index":36,"time_elapsed":962815,"internal_node_id":"0.0-5.0-31.0"},{"rt":41957.20000000112,"responses":"{\"pregunta5\":\"e) Lo que es normal en un asilo es anormal en un campo de concentración.\"}","question_order":"[0]","trial_type":"survey-multi-choice","trial_index":37,"time_elapsed":1004775,"internal_node_id":"0.0-5.0-32.0"},{"rt":2039.7000000011176,"response":{"pregunta5 likert":0},"question_order":[0],"trial_type":"survey-likert","trial_index":38,"time_elapsed":1006820,"internal_node_id":"0.0-5.0-33.0"},{"rt":62105.5,"responses":"{\"pregunta3\":\"d) La escritura olvida los momentos insignificantes de los viajes.\"}","question_order":"[0]","trial_type":"survey-multi-choice","trial_index":39,"time_elapsed":1068928,"internal_node_id":"0.0-5.0-34.0"},{"rt":1940.199999999255,"response":{"pregunta3 likert":1},"question_order":[0],"trial_type":"survey-likert","trial_index":40,"time_elapsed":1070870,"internal_node_id":"0.0-5.0-35.0"},{"rt":83891.5,"responses":"{\"pregunta9\":\"d) Atraer a los turistas.\"}","question_order":"[0]","trial_type":"survey-multi-choice","trial_index":41,"time_elapsed":1154764,"internal_node_id":"0.0-5.0-36.0"},{"rt":3457.39999999851,"response":{"pregunta9 likert":1},"question_order":[0],"trial_type":"survey-likert","trial_index":42,"time_elapsed":1158225,"internal_node_id":"0.0-5.0-37.0"},{"rt":29473.699999999255,"responses":"{\"pregunta2\":\"a) A la relación entre sociología y sociedad.\"}","question_order":"[0]","trial_type":"survey-multi-choice","trial_index":43,"time_elapsed":1187701,"internal_node_id":"0.0-5.0-38.0"},{"rt":2343.0999999996275,"response":{"pregunta2 likert":2},"question_order":[0],"trial_type":"survey-likert","trial_index":44,"time_elapsed":1190047,"internal_node_id":"0.0-5.0-39.0"},{"rt":3928.300000000745,"stimulus":"<p style=\"font-size: 120%\">Gracias por completar esta etapa del estudio. Ahora te invitamos a responder el cuestionario.<br><br></p>","response":0,"trial_type":"html-button-response","trial_index":45,"time_elapsed":1193980,"internal_node_id":"0.0-6.0"},{"rt":2112.800000000745,"stimulus":"<h1 style=\"margin-top: 5%\">Cuestionario para la Evaluación de Metas Académicas</h1><p style=\"font-size: 120%; margin-left: 3%; margin-top: 5%\">Este es un cuestionario que permite conocer cuáles son los principales motivos por los que los estudiantes se esfuerzan en su trabajo académico. A continuación, se te presentarán una serie de afirmaciones acerca de los motivos que puedes tener para estudiar.<br>Te pedimos que contestes a dichas afirmaciones reflexionando sobre el contenido de cada una de ellas, que, aunque te parezcan semejantes, en realidad, no lo son.<br>NO HAY RESPUESTAS CORRECTAS o INCORRECTAS, sólo queremos que respondas con la mayor precisión y sinceridad posible a las preguntas que se plantean.","response":0,"trial_type":"html-button-response","trial_index":46,"time_elapsed":1196095,"internal_node_id":"0.0-7.0"},{"rt":124423.69999999925,"response":{"Metas cuestionario pregunta1":4,"Metas cuestionario pregunta2":4,"Metas cuestionario pregunta3":4,"Metas cuestionario pregunta4":3,"Metas cuestionario pregunta5":4,"Metas cuestionario pregunta6":2,"Metas cuestionario pregunta7":3,"Metas cuestionario pregunta8":3,"Metas cuestionario pregunta9":4,"Metas cuestionario pregunta10":4,"Metas cuestionario pregunta11":2,"Metas cuestionario pregunta12":2,"Metas cuestionario pregunta13":3,"Metas cuestionario pregunta14":2,"Metas cuestionario pregunta15":4,"Metas cuestionario pregunta16":4,"Metas cuestionario pregunta17":4,"Metas cuestionario pregunta18":4,"Metas cuestionario pregunta19":4,"Metas cuestionario pregunta20":4},"question_order":[0,1,2,3,4,5,6,7,8,9,10,11,12,13,14,15,16,17,18,19],"trial_type":"survey-likert","trial_index":47,"time_elapsed":1320528,"internal_node_id":"0.0-8.0"},{"rt":3922.9000000003725,"stimulus":"<p style=\"font-size: 120%\">Gracias por responder el cuestionario. Ahora te invitamos a seguir con el juego, que es muy breve.<br><br></p>","response":0,"trial_type":"html-button-response","trial_index":48,"time_elapsed":1324457,"internal_node_id":"0.0-9.0"},{"rt":6640.799999998882,"stimulus":"<h1>Juego</h1><p style=\"font-size: 120%;\">A continuación se te presentarán 16 pequeñas historias.<br>Por favor lee el texto presentado en cada una de ellas y luego haz click en el objeto de tu elección.<br>Si estás listo(a),<span style=\"color:red;\"> haz click en \"comenzar\"</span>.</p>","response":0,"trial_type":"html-button-response","trial_index":49,"time_elapsed":1331101,"internal_node_id":"0.0-10.0"},{"rt":9875.199999999255,"grid":[[1,1,1,1],[1,1,1,1],[1,1,1,1],[1,1,1,1],[1,1,1,1],[1,1,1,1],[1,1,1,1],[1,1,1,1],[1,1,1,1],[1,1,1,1],[1,1,1,1]],"target":[0,0],"response":[5,2],"correct":false,"juego":14,"trial_type":"serial-reaction-time-mouse","trial_index":50,"time_elapsed":1340981,"internal_node_id":"0.0-11.0-0.0"},{"rt":17137,"grid":[[1,1,1,1,1]],"target":[0,0],"response":[0,2],"correct":false,"juego":3,"trial_type":"serial-reaction-time-mouse","trial_index":51,"time_elapsed":1358120,"internal_node_id":"0.0-11.0-1.0"},{"rt":15195.89999999851,"grid":[[1,1,1,1],[1,1,1,1],[1,1,1,1],[1,1,1,1],[1,1,1,1],[1,1,1,1],[1,1,1,1],[1,1,1,1],[1,1,1,1],[1,1,1,1],[1,1,1,1]],"target":[0,0],"response":[9,2],"correct":false,"juego":15,"trial_type":"serial-reaction-time-mouse","trial_index":52,"time_elapsed":1373320,"internal_node_id":"0.0-11.0-2.0"},{"rt":8448.699999999255,"grid":[[1,1,1],[1,1,1],[1,1,1],[1,1,1],[1,1,1],[1,1,1],[1,1,1],[1,1,1],[1,1,1],[1,1,1],[1,1,1]],"target":[0,0],"response":[5,1],"correct":false,"juego":5,"trial_type":"serial-reaction-time-mouse","trial_index":53,"time_elapsed":1381773,"internal_node_id":"0.0-11.0-3.0"},{"rt":13993.700000001118,"grid":[[1,1,1,1,1]],"target":[0,0],"response":[0,3],"correct":false,"juego":7,"trial_type":"serial-reaction-time-mouse","trial_index":54,"time_elapsed":1395769,"internal_node_id":"0.0-11.0-4.0"},{"rt":4288.299999998882,"grid":[[1,1,1,1,1]],"target":[0,0],"response":[0,1],"correct":false,"juego":8,"trial_type":"serial-reaction-time-mouse","trial_index":55,"time_elapsed":1400059,"internal_node_id":"0.0-11.0-5.0"},{"rt":24459.60000000149,"grid":[[1,1,1],[1,1,1],[1,1,1],[1,1,1],[1,1,1],[1,1,1],[1,1,1],[1,1,1],[1,1,1],[1,1,1],[1,1,1]],"target":[0,0],"response":[1,1],"correct":false,"juego":13,"trial_type":"serial-reaction-time-mouse","trial_index":56,"time_elapsed":1424521,"internal_node_id":"0.0-11.0-6.0"},{"rt":6419.9000000003725,"grid":[[1],[1],[1],[1],[1]],"target":[0,0],"response":[1,0],"correct":false,"juego":4,"trial_type":"serial-reaction-time-mouse","trial_index":57,"time_elapsed":1430942,"internal_node_id":"0.0-11.0-7.0"},{"rt":12598.60000000149,"grid":[[1,1,1,1,1]],"target":[0,0],"response":[0,2],"correct":false,"juego":2,"trial_type":"serial-reaction-time-mouse","trial_index":58,"time_elapsed":1443543,"internal_node_id":"0.0-11.0-8.0"},{"rt":7975.5,"grid":[[1,1,1],[1,1,1],[1,1,1],[1,1,1],[1,1,1],[1,1,1],[1,1,1],[1,1,1],[1,1,1],[1,1,1],[1,1,1]],"target":[0,0],"response":[1,1],"correct":false,"juego":6,"trial_type":"serial-reaction-time-mouse","trial_index":59,"time_elapsed":1451521,"internal_node_id":"0.0-11.0-9.0"},{"rt":63515.39999999851,"grid":[[1,1,1,1,1]],"target":[0,0],"response":[0,0],"correct":true,"juego":12,"trial_type":"serial-reaction-time-mouse","trial_index":60,"time_elapsed":1515038,"internal_node_id":"0.0-11.0-10.0"},{"rt":10151.60000000149,"grid":[[1,1,1,1,1]],"target":[0,0],"response":[0,4],"correct":false,"juego":9,"trial_type":"serial-reaction-time-mouse","trial_index":61,"time_elapsed":1525192,"internal_node_id":"0.0-11.0-11.0"},{"rt":12872.60000000149,"grid":[[1,1,1],[1,1,1],[1,1,1],[1,1,1],[1,1,1],[1,1,1],[1,1,1],[1,1,1],[1,1,1],[1,1,1],[1,1,1]],"target":[0,0],"response":[5,0],"correct":false,"juego":10,"trial_type":"serial-reaction-time-mouse","trial_index":62,"time_elapsed":1538068,"internal_node_id":"0.0-11.0-12.0"},{"rt":11073.39999999851,"grid":[[1,1,1,1,1]],"target":[0,0],"response":[0,1],"correct":false,"juego":11,"trial_type":"serial-reaction-time-mouse","trial_index":63,"time_elapsed":1549144,"internal_node_id":"0.0-11.0-13.0"},{"rt":3952.0999999996275,"grid":[[1,1,1,1,1]],"target":[0,0],"response":[0,2],"correct":false,"juego":1,"trial_type":"serial-reaction-time-mouse","trial_index":64,"time_elapsed":1553098,"internal_node_id":"0.0-11.0-14.0"}]