[{"rt":28729.5,"stimulus":"<h1 style=\"color:red; margin-top: 3%;\">¡Bienvenido(a)!</h1><p style=\"text-align:left; justify-content:space-between; margin-right: 5%; margin-left: 5%; margin-top: 5%\"> Antes de empezar el estudio, necesitamos que nos confirmes que estás de acuerdo con participar. Recuerda que tu participación es 100% voluntaria y que lo único que te pedimos es responder lo mejor que puedas. Recuerda también que el estudio incluye:</p><ol style=\"text-align:left; justify-content:space-between; margin-right: 5%; margin-left: 5%;\"><li> un ejercicio de resolución de preguntas de selección múltiple (30’),</li><li>un cuestionario breve (5’),</li><li>un juego muy breve (3’),</li></ol><p style=\"text-align:left; justify-content:space-between; margin-right: 5%; margin-left: 5%;\">Si quieres participar, haz clic en “Acepto” luego de leer lo siguiente:<br></p><p style=\"text-align:left; justify-content:space-between; margin-right: 5%; margin-left: 5%;\">Acepto participar en el estudio “Estrategias de lectura y resolución de preguntas de selección múltiple”, en los términos aquí señalados:<br></p><p style=\"text-align:left; justify-content:space-between; margin-right: 5%; margin-left: 5%;\"><a href=\"http://ciae.uchile.cl/download.php?file=noticias/Asentimiento.pdf\" target=\"_blank\">Link a la hoja de información del Consentimiento.</a></p><p style=\"text-align:left; justify-content:space-between; margin-right: 5%; margin-left: 5%;\">Declaro que he leído (o se me ha leído) y (he) comprendido, las condiciones de mi participación en este estudio. He tenido la oportunidad de hacer preguntas y éstas han sido respondidas. No tengo dudas al respecto.</p>","response":0,"condicion_MCQ":4,"condicion_JUEGO":84,"condicion_INTER":12,"numero_participante":84,"numero_version":1,"dimx":1366,"dimy":768,"color_profundidad":24,"pixel_profundidad":24,"Browser":"Google Chrome","dia":23,"mes":5,"hora":15,"minuto":24,"segundo":33,"trial_type":"html-button-response","trial_index":0,"time_elapsed":28735,"internal_node_id":"0.0-0.0"},{"success":true,"trial_type":"fullscreen","trial_index":1,"time_elapsed":98367,"internal_node_id":"0.0-1.0"},{"rt":288387.40000009537,"responses":"{\"Nombres\":\"Angelie Antonia \",\"Apellidos\":\"Maluenda Maluenda \",\"Edad\":\"18\",\"Sexo\":\"mujer \",\"Curso\":\"tópicos de neurobiología \",\"Colegio\":\"Universidad Andrés Bello \",\"Contacto\":\"a.maluendamaluenda@gmail.com \"}","trial_type":"survey-text","trial_index":2,"time_elapsed":386775,"internal_node_id":"0.0-2.0"},{"success":true,"timeout":false,"failed_images":[],"failed_audio":[],"failed_video":[],"trial_type":"preload","trial_index":3,"time_elapsed":396512,"internal_node_id":"0.0-3.0"},{"rt":42374.90000009537,"stimulus":"<h1 style:\"margin-top: 5%;\">Ejercicios de Comprensión de Lectura de la Universidad de Chile</h1><p style=\"font-size: 120%;\">En esta actividad, debes responder 20 preguntas de selección múltiple. Cada pregunta presenta 5 respuestas alternativas, pero sólo una de ellas es correcta. Por lo tanto, debes escoger una sola alternativa para cada pregunta. Además, debes reportar qué tan seguro(a) estás de la respuesta que das, con un:</p><ol style=\"font-size: 120%;text-align:left;margin-left: 40%;\"><li>No estoy seguro(a) para nada</li><li>No estoy muy seguro(a)</li><li>Estoy bastante seguro(a)</li><li>Estoy totalmente seguro(a)</li></ol><p style=\"font-size: 120%;\">Por favor lee bien los enunciados antes de responder. ¡Éxito!</p>","response":0,"trial_type":"html-button-response","trial_index":4,"time_elapsed":438889,"internal_node_id":"0.0-4.0"},{"rt":286834.7999999523,"responses":"{\"pregunta5\":\"a) La conducta de un hombre en un asilo es idéntica a la de un hombre en un campo de concentración.\"}","question_order":"[0]","trial_type":"survey-multi-choice","trial_index":5,"time_elapsed":725728,"internal_node_id":"0.0-5.0-0.0"},{"rt":14212.200000047684,"response":{"pregunta5 likert":2},"question_order":[0],"trial_type":"survey-likert","trial_index":6,"time_elapsed":739944,"internal_node_id":"0.0-5.0-1.0"},{"rt":110437.30000007153,"responses":"{\"pregunta10\":\"d) Al premio merecido después de tantos esfuerzos.\"}","question_order":"[0]","trial_type":"survey-multi-choice","trial_index":7,"time_elapsed":850384,"internal_node_id":"0.0-5.0-2.0"},{"rt":4098.900000095367,"response":{"pregunta10 likert":3},"question_order":[0],"trial_type":"survey-likert","trial_index":8,"time_elapsed":854486,"internal_node_id":"0.0-5.0-3.0"},{"rt":113890,"responses":"{\"pregunta6\":\"a) un recuerdo nostálgico.\"}","question_order":"[0]","trial_type":"survey-multi-choice","trial_index":9,"time_elapsed":968379,"internal_node_id":"0.0-5.0-4.0"},{"rt":3996.399999976158,"response":{"pregunta6 likert":2},"question_order":[0],"trial_type":"survey-likert","trial_index":10,"time_elapsed":972379,"internal_node_id":"0.0-5.0-5.0"},{"rt":159173.19999992847,"responses":"{\"pregunta18\":\"b) El derecho a informar y el derecho a la privacidad son inconciliables.\"}","question_order":"[0]","trial_type":"survey-multi-choice","trial_index":11,"time_elapsed":1131555,"internal_node_id":"0.0-5.0-6.0"},{"rt":4003.2000000476837,"response":{"pregunta18 likert":2},"question_order":[0],"trial_type":"survey-likert","trial_index":12,"time_elapsed":1135562,"internal_node_id":"0.0-5.0-7.0"},{"rt":368104.5,"responses":"{\"pregunta19\":\"a) el jardinero estará muerto al día siguiente.\"}","question_order":"[0]","trial_type":"survey-multi-choice","trial_index":13,"time_elapsed":1503670,"internal_node_id":"0.0-5.0-8.0"},{"rt":3261.5,"response":{"pregunta19 likert":2},"question_order":[0],"trial_type":"survey-likert","trial_index":14,"time_elapsed":1506934,"internal_node_id":"0.0-5.0-9.0"},{"rt":52047.299999952316,"responses":"{\"pregunta13\":\"d) Bomberos debería tener acceso a un seguro médico, al que pueda recurrir en caso de accidente.\"}","question_order":"[0]","trial_type":"survey-multi-choice","trial_index":15,"time_elapsed":1558985,"internal_node_id":"0.0-5.0-10.0"},{"rt":4461.5,"response":{"pregunta13 likert":3},"question_order":[0],"trial_type":"survey-likert","trial_index":16,"time_elapsed":1563450,"internal_node_id":"0.0-5.0-11.0"},{"rt":221314.80000007153,"responses":"{\"pregunta7\":\"c) ritualistas y obsesivos.\"}","question_order":"[0]","trial_type":"survey-multi-choice","trial_index":17,"time_elapsed":1784767,"internal_node_id":"0.0-5.0-12.0"},{"rt":4197.699999928474,"response":{"pregunta7 likert":3},"question_order":[0],"trial_type":"survey-likert","trial_index":18,"time_elapsed":1788967,"internal_node_id":"0.0-5.0-13.0"},{"rt":90728.5,"responses":"{\"pregunta4\":\"b) Promover la asistencia a un evento específico de decoración a través de una atractiva descripción.\"}","question_order":"[0]","trial_type":"survey-multi-choice","trial_index":19,"time_elapsed":1879698,"internal_node_id":"0.0-5.0-14.0"},{"rt":3299.7000000476837,"response":{"pregunta4 likert":2},"question_order":[0],"trial_type":"survey-likert","trial_index":20,"time_elapsed":1883000,"internal_node_id":"0.0-5.0-15.0"},{"rt":80088,"responses":"{\"pregunta14\":\"b) A la negligencia de la empresa que los traía a Chile.\"}","question_order":"[0]","trial_type":"survey-multi-choice","trial_index":21,"time_elapsed":1963092,"internal_node_id":"0.0-5.0-16.0"},{"rt":9943.100000023842,"response":{"pregunta14 likert":2},"question_order":[0],"trial_type":"survey-likert","trial_index":22,"time_elapsed":1973038,"internal_node_id":"0.0-5.0-17.0"},{"rt":554353.7000000477,"responses":"{\"pregunta12\":\"c) la creación de elementos químicos artificiales ha resultado de la manipulación del uranio.\"}","question_order":"[0]","trial_type":"survey-multi-choice","trial_index":23,"time_elapsed":2527395,"internal_node_id":"0.0-5.0-18.0"},{"rt":3872.7999999523163,"response":{"pregunta12 likert":1},"question_order":[0],"trial_type":"survey-likert","trial_index":24,"time_elapsed":2531271,"internal_node_id":"0.0-5.0-19.0"},{"rt":215736.60000002384,"responses":"{\"pregunta1\":\"a) Aportan informaciones con las que se reconstruye el personaje dentro de un relato.\"}","question_order":"[0]","trial_type":"survey-multi-choice","trial_index":25,"time_elapsed":2747010,"internal_node_id":"0.0-5.0-20.0"},{"rt":3288.9000000953674,"response":{"pregunta1 likert":2},"question_order":[0],"trial_type":"survey-likert","trial_index":26,"time_elapsed":2750303,"internal_node_id":"0.0-5.0-21.0"},{"rt":134468.10000002384,"responses":"{\"pregunta3\":\"c) La escritura plasma los mejores momentos de los viajes.\"}","question_order":"[0]","trial_type":"survey-multi-choice","trial_index":27,"time_elapsed":2884774,"internal_node_id":"0.0-5.0-22.0"},{"rt":3650.7000000476837,"response":{"pregunta3 likert":2},"question_order":[0],"trial_type":"survey-likert","trial_index":28,"time_elapsed":2888428,"internal_node_id":"0.0-5.0-23.0"},{"rt":73033.89999997616,"responses":"{\"pregunta2\":\"a) A la relación entre sociedad y constitución social.\"}","question_order":"[0]","trial_type":"survey-multi-choice","trial_index":29,"time_elapsed":2961465,"internal_node_id":"0.0-5.0-24.0"},{"rt":3437.899999976158,"response":{"pregunta2 likert":3},"question_order":[0],"trial_type":"survey-likert","trial_index":30,"time_elapsed":2964906,"internal_node_id":"0.0-5.0-25.0"},{"rt":133349.70000004768,"responses":"{\"pregunta15\":\"e) El receptor es habitualmente pasivo frente a la publicidad.\"}","question_order":"[0]","trial_type":"survey-multi-choice","trial_index":31,"time_elapsed":3098259,"internal_node_id":"0.0-5.0-26.0"},{"rt":5145,"response":{"pregunta15 likert":1},"question_order":[0],"trial_type":"survey-likert","trial_index":32,"time_elapsed":3103406,"internal_node_id":"0.0-5.0-27.0"},{"rt":140623.10000002384,"responses":"{\"pregunta11\":\"b) la muerte de Wu Ti fue una bendición.\"}","question_order":"[0]","trial_type":"survey-multi-choice","trial_index":33,"time_elapsed":3244031,"internal_node_id":"0.0-5.0-28.0"},{"rt":34356,"response":{"pregunta11 likert":0},"question_order":[0],"trial_type":"survey-likert","trial_index":34,"time_elapsed":3278389,"internal_node_id":"0.0-5.0-29.0"},{"rt":206056.29999995232,"responses":"{\"pregunta9\":\"e) Atraer a los turistas.\"}","question_order":"[0]","trial_type":"survey-multi-choice","trial_index":35,"time_elapsed":3484448,"internal_node_id":"0.0-5.0-30.0"},{"rt":5331.100000023842,"response":{"pregunta9 likert":2},"question_order":[0],"trial_type":"survey-likert","trial_index":36,"time_elapsed":3489783,"internal_node_id":"0.0-5.0-31.0"},{"rt":394893.40000009537,"responses":"{\"pregunta20\":\"a) para el mexicano, la muerte es cotidiana.\"}","question_order":"[0]","trial_type":"survey-multi-choice","trial_index":37,"time_elapsed":3884679,"internal_node_id":"0.0-5.0-32.0"},{"rt":4522.5,"response":{"pregunta20 likert":2},"question_order":[0],"trial_type":"survey-likert","trial_index":38,"time_elapsed":3889204,"internal_node_id":"0.0-5.0-33.0"},{"rt":181341.90000009537,"responses":"{\"pregunta8\":\"d) Deleitar a sus receptores por medio de la belleza y el confort.\"}","question_order":"[0]","trial_type":"survey-multi-choice","trial_index":39,"time_elapsed":4070550,"internal_node_id":"0.0-5.0-34.0"},{"rt":4733.399999976158,"response":{"pregunta8 likert":2},"question_order":[0],"trial_type":"survey-likert","trial_index":40,"time_elapsed":4075286,"internal_node_id":"0.0-5.0-35.0"},{"rt":196130.60000002384,"responses":"{\"pregunta16\":\"c) llevan un control grupal de su embarazo.\"}","question_order":"[0]","trial_type":"survey-multi-choice","trial_index":41,"time_elapsed":4271418,"internal_node_id":"0.0-5.0-36.0"},{"rt":5639.399999976158,"response":{"pregunta16 likert":2},"question_order":[0],"trial_type":"survey-likert","trial_index":42,"time_elapsed":4277061,"internal_node_id":"0.0-5.0-37.0"},{"rt":115223.29999995232,"responses":"{\"pregunta17\":\"a) El futuro de la economía chilena es incierto.\"}","question_order":"[0]","trial_type":"survey-multi-choice","trial_index":43,"time_elapsed":4392287,"internal_node_id":"0.0-5.0-38.0"},{"rt":5093.300000071526,"response":{"pregunta17 likert":2},"question_order":[0],"trial_type":"survey-likert","trial_index":44,"time_elapsed":4397383,"internal_node_id":"0.0-5.0-39.0"}]