[{"rt":25321.79999999702,"stimulus":"<h1 style=\"color:red; margin-top: 3%;\">¡Bienvenido(a)!</h1><p style=\"text-align:left; justify-content:space-between; margin-right: 5%; margin-left: 5%; margin-top: 5%\"> Antes de empezar el estudio, necesitamos que nos confirmes que estás de acuerdo con participar. Recuerda que tu participación es 100% voluntaria y que lo único que te pedimos es responder lo mejor que puedas. Recuerda también que el estudio incluye:</p><ol style=\"text-align:left; justify-content:space-between; margin-right: 5%; margin-left: 5%;\"><li> un ejercicio de resolución de preguntas de selección múltiple (30’),</li><li>un cuestionario breve (5’),</li><li>un juego muy breve (3’),</li></ol><p style=\"text-align:left; justify-content:space-between; margin-right: 5%; margin-left: 5%;\">Si quieres participar, haz clic en “Acepto” luego de leer lo siguiente:<br></p><p style=\"text-align:left; justify-content:space-between; margin-right: 5%; margin-left: 5%;\">Acepto participar en el estudio “Estrategias de lectura y resolución de preguntas de selección múltiple”, en los términos aquí señalados:<br></p><p style=\"text-align:left; justify-content:space-between; margin-right: 5%; margin-left: 5%;\"><a href=\"http://ciae.uchile.cl/download.php?file=noticias/Asentimiento.pdf\" target=\"_blank\">Link a la hoja de información del Consentimiento.</a></p><p style=\"text-align:left; justify-content:space-between; margin-right: 5%; margin-left: 5%;\">Declaro que he leído (o se me ha leído) y (he) comprendido, las condiciones de mi participación en este estudio. He tenido la oportunidad de hacer preguntas y éstas han sido respondidas. No tengo dudas al respecto.</p>","response":0,"condicion_MCQ":18,"condicion_JUEGO":98,"condicion_INTER":2,"numero_participante":98,"numero_version":1,"dimx":1536,"dimy":864,"color_profundidad":24,"pixel_profundidad":24,"Browser":"Google Chrome","dia":25,"mes":5,"hora":3,"minuto":54,"segundo":22,"trial_type":"html-button-response","trial_index":0,"time_elapsed":25325,"internal_node_id":"0.0-0.0"},{"success":true,"trial_type":"fullscreen","trial_index":1,"time_elapsed":37978,"internal_node_id":"0.0-1.0"},{"rt":76212.09999999404,"responses":"{\"Nombres\":\"Francisco Javier\",\"Apellidos\":\"Méndez Astudillo\",\"Edad\":\"19\",\"Sexo\":\"Hombre\",\"Curso\":\"Sección 201\",\"Colegio\":\"Universidad Andrés Bello \",\"Contacto\":\"franciscomendez1337@gmail.com\"}","trial_type":"survey-text","trial_index":2,"time_elapsed":114200,"internal_node_id":"0.0-2.0"},{"success":true,"timeout":false,"failed_images":[],"failed_audio":[],"failed_video":[],"trial_type":"preload","trial_index":3,"time_elapsed":115326,"internal_node_id":"0.0-3.0"},{"rt":16684.10000000894,"stimulus":"<h1 style:\"margin-top: 5%;\">Ejercicios de Comprensión de Lectura de la Universidad de Chile</h1><p style=\"font-size: 120%;\">En esta actividad, debes responder 20 preguntas de selección múltiple. Cada pregunta presenta 5 respuestas alternativas, pero sólo una de ellas es correcta. Por lo tanto, debes escoger una sola alternativa para cada pregunta. Además, debes reportar qué tan seguro(a) estás de la respuesta que das, con un:</p><ol style=\"font-size: 120%;text-align:left;margin-left: 40%;\"><li>No estoy seguro(a) para nada</li><li>No estoy muy seguro(a)</li><li>Estoy bastante seguro(a)</li><li>Estoy totalmente seguro(a)</li></ol><p style=\"font-size: 120%;\">Por favor lee bien los enunciados antes de responder. ¡Éxito!</p>","response":0,"trial_type":"html-button-response","trial_index":4,"time_elapsed":132012,"internal_node_id":"0.0-4.0"},{"rt":58824.20000000298,"responses":"{\"pregunta6\":\"a) preparar los recuerdos del mañana.\"}","question_order":"[0]","trial_type":"survey-multi-choice","trial_index":5,"time_elapsed":190837,"internal_node_id":"0.0-5.0-0.0"},{"rt":2494,"response":{"pregunta6 likert":3},"question_order":[0],"trial_type":"survey-likert","trial_index":6,"time_elapsed":193335,"internal_node_id":"0.0-5.0-1.0"},{"rt":39160.70000000298,"responses":"{\"pregunta17\":\"d) Nuestra economía vivirá un proceso de ajuste a la nueva realidad.\"}","question_order":"[0]","trial_type":"survey-multi-choice","trial_index":7,"time_elapsed":232499,"internal_node_id":"0.0-5.0-2.0"},{"rt":1988.800000011921,"response":{"pregunta17 likert":2},"question_order":[0],"trial_type":"survey-likert","trial_index":8,"time_elapsed":234491,"internal_node_id":"0.0-5.0-3.0"},{"rt":70620.5,"responses":"{\"pregunta15\":\"c) El receptor es habitualmente pasivo frente a la publicidad.\"}","question_order":"[0]","trial_type":"survey-multi-choice","trial_index":9,"time_elapsed":305114,"internal_node_id":"0.0-5.0-4.0"},{"rt":1780.8999999910593,"response":{"pregunta15 likert":1},"question_order":[0],"trial_type":"survey-likert","trial_index":10,"time_elapsed":306898,"internal_node_id":"0.0-5.0-5.0"},{"rt":76402.40000000596,"responses":"{\"pregunta14\":\"a) A la negligencia de la empresa que los traía a Chile.\"}","question_order":"[0]","trial_type":"survey-multi-choice","trial_index":11,"time_elapsed":383304,"internal_node_id":"0.0-5.0-6.0"},{"rt":1656.8999999910593,"response":{"pregunta14 likert":3},"question_order":[0],"trial_type":"survey-likert","trial_index":12,"time_elapsed":384964,"internal_node_id":"0.0-5.0-7.0"},{"rt":80688.5,"responses":"{\"pregunta19\":\"d) el jardinero estará muerto al día siguiente.\"}","question_order":"[0]","trial_type":"survey-multi-choice","trial_index":13,"time_elapsed":465655,"internal_node_id":"0.0-5.0-8.0"},{"rt":1684.7999999970198,"response":{"pregunta19 likert":3},"question_order":[0],"trial_type":"survey-likert","trial_index":14,"time_elapsed":467343,"internal_node_id":"0.0-5.0-9.0"},{"rt":32002.59999999404,"responses":"{\"pregunta13\":\"b) Por el riesgo que corren diariamente, los bomberos deberían tener mejores condiciones de seguridad.\"}","question_order":"[0]","trial_type":"survey-multi-choice","trial_index":15,"time_elapsed":499349,"internal_node_id":"0.0-5.0-10.0"},{"rt":1614.9000000059605,"response":{"pregunta13 likert":3},"question_order":[0],"trial_type":"survey-likert","trial_index":16,"time_elapsed":500967,"internal_node_id":"0.0-5.0-11.0"},{"rt":85502.20000000298,"responses":"{\"pregunta12\":\"e) la creación de elementos químicos es altamente contaminante.\"}","question_order":"[0]","trial_type":"survey-multi-choice","trial_index":17,"time_elapsed":586472,"internal_node_id":"0.0-5.0-12.0"},{"rt":1883.0999999940395,"response":{"pregunta12 likert":0},"question_order":[0],"trial_type":"survey-likert","trial_index":18,"time_elapsed":588358,"internal_node_id":"0.0-5.0-13.0"},{"rt":54592.70000000298,"responses":"{\"pregunta18\":\"d) Se necesita un marco legal para delimitar lo público y lo privado en materia informativa.\"}","question_order":"[0]","trial_type":"survey-multi-choice","trial_index":19,"time_elapsed":642954,"internal_node_id":"0.0-5.0-14.0"},{"rt":2065,"response":{"pregunta18 likert":2},"question_order":[0],"trial_type":"survey-likert","trial_index":20,"time_elapsed":645022,"internal_node_id":"0.0-5.0-15.0"},{"rt":34474.59999999404,"responses":"{\"pregunta20\":\"e) para el mexicano, la muerte es cotidiana.\"}","question_order":"[0]","trial_type":"survey-multi-choice","trial_index":21,"time_elapsed":679499,"internal_node_id":"0.0-5.0-16.0"},{"rt":1380.9000000059605,"response":{"pregunta20 likert":2},"question_order":[0],"trial_type":"survey-likert","trial_index":22,"time_elapsed":680884,"internal_node_id":"0.0-5.0-17.0"},{"rt":52798.29999999702,"responses":"{\"pregunta5\":\"c) El concepto de normalidad es diferente para un psiquiatra que para nosotros.\"}","question_order":"[0]","trial_type":"survey-multi-choice","trial_index":23,"time_elapsed":733685,"internal_node_id":"0.0-5.0-18.0"},{"rt":1189.2000000029802,"response":{"pregunta5 likert":1},"question_order":[0],"trial_type":"survey-likert","trial_index":24,"time_elapsed":734877,"internal_node_id":"0.0-5.0-19.0"},{"rt":38130.5,"responses":"{\"pregunta4\":\"c) Exponer sobre los conceptos de decoración dominantes en nuestro país.\"}","question_order":"[0]","trial_type":"survey-multi-choice","trial_index":25,"time_elapsed":773011,"internal_node_id":"0.0-5.0-20.0"},{"rt":1680.9000000059605,"response":{"pregunta4 likert":1},"question_order":[0],"trial_type":"survey-likert","trial_index":26,"time_elapsed":774695,"internal_node_id":"0.0-5.0-21.0"},{"rt":73746.30000001192,"responses":"{\"pregunta11\":\"e) la muerte de Wu Ti fue una bendición.\"}","question_order":"[0]","trial_type":"survey-multi-choice","trial_index":27,"time_elapsed":848444,"internal_node_id":"0.0-5.0-22.0"},{"rt":2307.1000000089407,"response":{"pregunta11 likert":1},"question_order":[0],"trial_type":"survey-likert","trial_index":28,"time_elapsed":850754,"internal_node_id":"0.0-5.0-23.0"},{"rt":67028.79999999702,"responses":"{\"pregunta8\":\"a) Deleitar a sus receptores por medio de la belleza y el confort.\"}","question_order":"[0]","trial_type":"survey-multi-choice","trial_index":29,"time_elapsed":917786,"internal_node_id":"0.0-5.0-24.0"},{"rt":2324.9000000059605,"response":{"pregunta8 likert":2},"question_order":[0],"trial_type":"survey-likert","trial_index":30,"time_elapsed":920114,"internal_node_id":"0.0-5.0-25.0"},{"rt":43246.90000000596,"responses":"{\"pregunta1\":\"b) Muestran las opiniones expuestas por los personajes en un relato.\"}","question_order":"[0]","trial_type":"survey-multi-choice","trial_index":31,"time_elapsed":963364,"internal_node_id":"0.0-5.0-26.0"},{"rt":3012.7000000029802,"response":{"pregunta1 likert":2},"question_order":[0],"trial_type":"survey-likert","trial_index":32,"time_elapsed":966379,"internal_node_id":"0.0-5.0-27.0"},{"rt":38380.90000000596,"responses":"{\"pregunta7\":\"a) ritualistas y obsesivos.\"}","question_order":"[0]","trial_type":"survey-multi-choice","trial_index":33,"time_elapsed":1004763,"internal_node_id":"0.0-5.0-28.0"},{"rt":2158.7999999970198,"response":{"pregunta7 likert":1},"question_order":[0],"trial_type":"survey-likert","trial_index":34,"time_elapsed":1006925,"internal_node_id":"0.0-5.0-29.0"},{"rt":44174.70000000298,"responses":"{\"pregunta10\":\"c) A la conveniencia de no postergar el descanso personal.\"}","question_order":"[0]","trial_type":"survey-multi-choice","trial_index":35,"time_elapsed":1051103,"internal_node_id":"0.0-5.0-30.0"},{"rt":1894.7999999970198,"response":{"pregunta10 likert":2},"question_order":[0],"trial_type":"survey-likert","trial_index":36,"time_elapsed":1053001,"internal_node_id":"0.0-5.0-31.0"},{"rt":3165.0999999940395,"responses":"{\"pregunta3\":\"b) La escritura olvida los momentos insignificantes de los viajes.\"}","question_order":"[0]","trial_type":"survey-multi-choice","trial_index":37,"time_elapsed":1056169,"internal_node_id":"0.0-5.0-32.0"},{"rt":2190.6000000089407,"response":{"pregunta3 likert":1},"question_order":[0],"trial_type":"survey-likert","trial_index":38,"time_elapsed":1058363,"internal_node_id":"0.0-5.0-33.0"},{"rt":13093,"responses":"{\"pregunta2\":\"b) A la relación entre civilización y sociedad.\"}","question_order":"[0]","trial_type":"survey-multi-choice","trial_index":39,"time_elapsed":1071459,"internal_node_id":"0.0-5.0-34.0"},{"rt":1635,"response":{"pregunta2 likert":2},"question_order":[0],"trial_type":"survey-likert","trial_index":40,"time_elapsed":1073097,"internal_node_id":"0.0-5.0-35.0"},{"rt":2233.2000000029802,"responses":"{\"pregunta16\":\"b) tienen mayores niveles de relaxín.\"}","question_order":"[0]","trial_type":"survey-multi-choice","trial_index":41,"time_elapsed":1075333,"internal_node_id":"0.0-5.0-36.0"},{"rt":1501,"response":{"pregunta16 likert":1},"question_order":[0],"trial_type":"survey-likert","trial_index":42,"time_elapsed":1076837,"internal_node_id":"0.0-5.0-37.0"},{"rt":10869,"responses":"{\"pregunta9\":\"a) Revivir un periodo histórico.\"}","question_order":"[0]","trial_type":"survey-multi-choice","trial_index":43,"time_elapsed":1087709,"internal_node_id":"0.0-5.0-38.0"},{"rt":1048.9000000059605,"response":{"pregunta9 likert":2},"question_order":[0],"trial_type":"survey-likert","trial_index":44,"time_elapsed":1088761,"internal_node_id":"0.0-5.0-39.0"},{"rt":2473.1000000089407,"stimulus":"<p style=\"font-size: 120%\">Gracias por completar esta etapa del estudio. Ahora te invitamos a responder el cuestionario.<br><br></p>","response":0,"trial_type":"html-button-response","trial_index":45,"time_elapsed":1091239,"internal_node_id":"0.0-6.0"},{"rt":7182.800000011921,"stimulus":"<h1 style=\"margin-top: 5%\">Cuestionario para la Evaluación de Metas Académicas</h1><p style=\"font-size: 120%; margin-left: 3%; margin-top: 5%\">Este es un cuestionario que permite conocer cuáles son los principales motivos por los que los estudiantes se esfuerzan en su trabajo académico. A continuación, se te presentarán una serie de afirmaciones acerca de los motivos que puedes tener para estudiar.<br>Te pedimos que contestes a dichas afirmaciones reflexionando sobre el contenido de cada una de ellas, que, aunque te parezcan semejantes, en realidad, no lo son.<br>NO HAY RESPUESTAS CORRECTAS o INCORRECTAS, sólo queremos que respondas con la mayor precisión y sinceridad posible a las preguntas que se plantean.","response":0,"trial_type":"html-button-response","trial_index":46,"time_elapsed":1098422,"internal_node_id":"0.0-7.0"},{"rt":79962.10000000894,"response":{"Metas cuestionario pregunta1":3,"Metas cuestionario pregunta2":4,"Metas cuestionario pregunta3":4,"Metas cuestionario pregunta4":3,"Metas cuestionario pregunta5":3,"Metas cuestionario pregunta6":4,"Metas cuestionario pregunta7":4,"Metas cuestionario pregunta8":4,"Metas cuestionario pregunta9":4,"Metas cuestionario pregunta10":1,"Metas cuestionario pregunta11":1,"Metas cuestionario pregunta12":1,"Metas cuestionario pregunta13":4,"Metas cuestionario pregunta14":3,"Metas cuestionario pregunta15":4,"Metas cuestionario pregunta16":4,"Metas cuestionario pregunta17":4,"Metas cuestionario pregunta18":4,"Metas cuestionario pregunta19":4,"Metas cuestionario pregunta20":4},"question_order":[0,1,2,3,4,5,6,7,8,9,10,11,12,13,14,15,16,17,18,19],"trial_type":"survey-likert","trial_index":47,"time_elapsed":1178388,"internal_node_id":"0.0-8.0"},{"rt":2708.5,"stimulus":"<p style=\"font-size: 120%\">Gracias por responder el cuestionario. Ahora te invitamos a seguir con el juego, que es muy breve.<br><br></p>","response":0,"trial_type":"html-button-response","trial_index":48,"time_elapsed":1181102,"internal_node_id":"0.0-9.0"},{"rt":8802.699999988079,"stimulus":"<h1>Juego</h1><p style=\"font-size: 120%;\">A continuación se te presentarán 16 pequeñas historias.<br>Por favor lee el texto presentado en cada una de ellas y luego haz click en el objeto de tu elección.<br>Si estás listo(a),<span style=\"color:red;\"> haz click en \"comenzar\"</span>.</p>","response":0,"trial_type":"html-button-response","trial_index":49,"time_elapsed":1189906,"internal_node_id":"0.0-10.0"},{"rt":14740.20000000298,"grid":[[1,1,1,1,1]],"target":[0,0],"response":[0,3],"correct":false,"juego":7,"trial_type":"serial-reaction-time-mouse","trial_index":50,"time_elapsed":1204647,"internal_node_id":"0.0-11.0-0.0"},{"rt":7218.600000008941,"grid":[[1,1,1,1,1]],"target":[0,0],"response":[0,3],"correct":false,"juego":8,"trial_type":"serial-reaction-time-mouse","trial_index":51,"time_elapsed":1211866,"internal_node_id":"0.0-11.0-1.0"},{"rt":7601.5,"grid":[[1,1,1,1,1]],"target":[0,0],"response":[0,2],"correct":false,"juego":11,"trial_type":"serial-reaction-time-mouse","trial_index":52,"time_elapsed":1219469,"internal_node_id":"0.0-11.0-2.0"},{"rt":19340.59999999404,"grid":[[1,1,1,1,1]],"target":[0,0],"response":[0,4],"correct":false,"juego":12,"trial_type":"serial-reaction-time-mouse","trial_index":53,"time_elapsed":1238811,"internal_node_id":"0.0-11.0-3.0"},{"rt":11790,"grid":[[1,1,1],[1,1,1],[1,1,1],[1,1,1],[1,1,1],[1,1,1],[1,1,1],[1,1,1],[1,1,1],[1,1,1],[1,1,1]],"target":[0,0],"response":[5,2],"correct":false,"juego":10,"trial_type":"serial-reaction-time-mouse","trial_index":54,"time_elapsed":1250602,"internal_node_id":"0.0-11.0-4.0"},{"rt":28264.09999999404,"grid":[[1,1,1],[1,1,1],[1,1,1],[1,1,1],[1,1,1],[1,1,1],[1,1,1],[1,1,1],[1,1,1],[1,1,1],[1,1,1]],"target":[0,0],"response":[7,1],"correct":false,"juego":13,"trial_type":"serial-reaction-time-mouse","trial_index":55,"time_elapsed":1278868,"internal_node_id":"0.0-11.0-5.0"},{"rt":11121.09999999404,"grid":[[1,1,1],[1,1,1],[1,1,1],[1,1,1],[1,1,1],[1,1,1],[1,1,1],[1,1,1],[1,1,1],[1,1,1],[1,1,1]],"target":[0,0],"response":[3,1],"correct":false,"juego":5,"trial_type":"serial-reaction-time-mouse","trial_index":56,"time_elapsed":1289990,"internal_node_id":"0.0-11.0-6.0"},{"rt":4226.79999999702,"grid":[[1,1,1,1,1]],"target":[0,0],"response":[0,4],"correct":false,"juego":1,"trial_type":"serial-reaction-time-mouse","trial_index":57,"time_elapsed":1294218,"internal_node_id":"0.0-11.0-7.0"},{"rt":4075.5999999940395,"grid":[[1,1,1,1,1]],"target":[0,0],"response":[0,4],"correct":false,"juego":3,"trial_type":"serial-reaction-time-mouse","trial_index":58,"time_elapsed":1298294,"internal_node_id":"0.0-11.0-8.0"},{"rt":4561.29999999702,"grid":[[1,1,1,1,1]],"target":[0,0],"response":[0,4],"correct":false,"juego":2,"trial_type":"serial-reaction-time-mouse","trial_index":59,"time_elapsed":1302856,"internal_node_id":"0.0-11.0-9.0"},{"rt":9747.90000000596,"grid":[[1,1,1,1],[1,1,1,1],[1,1,1,1],[1,1,1,1],[1,1,1,1],[1,1,1,1],[1,1,1,1],[1,1,1,1],[1,1,1,1],[1,1,1,1],[1,1,1,1]],"target":[0,0],"response":[7,2],"correct":false,"juego":14,"trial_type":"serial-reaction-time-mouse","trial_index":60,"time_elapsed":1312606,"internal_node_id":"0.0-11.0-10.0"},{"rt":14838.10000000894,"grid":[[1,1,1,1],[1,1,1,1],[1,1,1,1],[1,1,1,1],[1,1,1,1],[1,1,1,1],[1,1,1,1],[1,1,1,1],[1,1,1,1],[1,1,1,1],[1,1,1,1]],"target":[0,0],"response":[5,2],"correct":false,"juego":15,"trial_type":"serial-reaction-time-mouse","trial_index":61,"time_elapsed":1327446,"internal_node_id":"0.0-11.0-11.0"},{"rt":2772.6000000089407,"grid":[[1],[1],[1],[1],[1]],"target":[0,0],"response":[1,0],"correct":false,"juego":4,"trial_type":"serial-reaction-time-mouse","trial_index":62,"time_elapsed":1330220,"internal_node_id":"0.0-11.0-12.0"},{"rt":1406.5,"grid":[[1,1,1],[1,1,1],[1,1,1],[1,1,1],[1,1,1],[1,1,1],[1,1,1],[1,1,1],[1,1,1],[1,1,1],[1,1,1]],"target":[0,0],"response":[3,1],"correct":false,"juego":6,"trial_type":"serial-reaction-time-mouse","trial_index":63,"time_elapsed":1331628,"internal_node_id":"0.0-11.0-13.0"},{"rt":2950.7999999970198,"grid":[[1,1,1,1,1]],"target":[0,0],"response":[0,4],"correct":false,"juego":9,"trial_type":"serial-reaction-time-mouse","trial_index":64,"time_elapsed":1334579,"internal_node_id":"0.0-11.0-14.0"},{"rt":15795.20000000298,"stimulus":"<h1>Último juego</h1><p style=\"font-size: 130%;\">Tienes <span style=\"color:red\">35</span> segundos para recordar los pares de palabras que aparecerán a continuación. <br></p>","response":0,"trial_type":"html-button-response","trial_index":65,"time_elapsed":1350377,"internal_node_id":"0.0-12.0"},{"animation_sequence":[{"stimulus":"imagen_juego_interferencia.jpg","time":506.79999999701977},{"stimulus":"imagen_juego_interferencia.jpg","time":1010.1999999880791},{"stimulus":"imagen_juego_interferencia.jpg","time":1501.5},{"stimulus":"imagen_juego_interferencia.jpg","time":2005.199999988079},{"stimulus":"imagen_juego_interferencia.jpg","time":2510.7999999970198},{"stimulus":"imagen_juego_interferencia.jpg","time":3003.5999999940395},{"stimulus":"imagen_juego_interferencia.jpg","time":3501.2999999970198},{"stimulus":"imagen_juego_interferencia.jpg","time":4012.8999999910593},{"stimulus":"imagen_juego_interferencia.jpg","time":4510.899999991059},{"stimulus":"imagen_juego_interferencia.jpg","time":5004.899999991059},{"stimulus":"imagen_juego_interferencia.jpg","time":5508.5},{"stimulus":"imagen_juego_interferencia.jpg","time":6014.5},{"stimulus":"imagen_juego_interferencia.jpg","time":6504.199999988079},{"stimulus":"imagen_juego_interferencia.jpg","time":7016.0999999940395},{"stimulus":"imagen_juego_interferencia.jpg","time":7501.699999988079},{"stimulus":"imagen_juego_interferencia.jpg","time":8004.399999991059},{"stimulus":"imagen_juego_interferencia.jpg","time":8505.39999999106},{"stimulus":"imagen_juego_interferencia.jpg","time":9001.199999988079},{"stimulus":"imagen_juego_interferencia.jpg","time":9501},{"stimulus":"imagen_juego_interferencia.jpg","time":10000.699999988079},{"stimulus":"imagen_juego_interferencia.jpg","time":10501},{"stimulus":"imagen_juego_interferencia.jpg","time":11015},{"stimulus":"imagen_juego_interferencia.jpg","time":11511.89999999106},{"stimulus":"imagen_juego_interferencia.jpg","time":12001.199999988079},{"stimulus":"imagen_juego_interferencia.jpg","time":12501.09999999404},{"stimulus":"imagen_juego_interferencia.jpg","time":13001.199999988079},{"stimulus":"imagen_juego_interferencia.jpg","time":13501.09999999404},{"stimulus":"imagen_juego_interferencia.jpg","time":14012.79999999702},{"stimulus":"imagen_juego_interferencia.jpg","time":14513.199999988079},{"stimulus":"imagen_juego_interferencia.jpg","time":15007.39999999106},{"stimulus":"imagen_juego_interferencia.jpg","time":15511.89999999106},{"stimulus":"imagen_juego_interferencia.jpg","time":16012.699999988079},{"stimulus":"imagen_juego_interferencia.jpg","time":16509.89999999106},{"stimulus":"imagen_juego_interferencia.jpg","time":17010.59999999404},{"stimulus":"imagen_juego_interferencia.jpg","time":17511.5},{"stimulus":"imagen_juego_interferencia.jpg","time":18011},{"stimulus":"imagen_juego_interferencia.jpg","time":18500.59999999404},{"stimulus":"imagen_juego_interferencia.jpg","time":19015.09999999404},{"stimulus":"imagen_juego_interferencia.jpg","time":19500.89999999106},{"stimulus":"imagen_juego_interferencia.jpg","time":20012.5},{"stimulus":"imagen_juego_interferencia.jpg","time":20509.59999999404},{"stimulus":"imagen_juego_interferencia.jpg","time":21001.69999998808},{"stimulus":"imagen_juego_interferencia.jpg","time":21513.79999999702},{"stimulus":"imagen_juego_interferencia.jpg","time":22016.29999999702},{"stimulus":"imagen_juego_interferencia.jpg","time":22501.39999999106},{"stimulus":"imagen_juego_interferencia.jpg","time":23016.09999999404},{"stimulus":"imagen_juego_interferencia.jpg","time":23502.19999998808},{"stimulus":"imagen_juego_interferencia.jpg","time":24004.69999998808},{"stimulus":"imagen_juego_interferencia.jpg","time":24510.89999999106},{"stimulus":"imagen_juego_interferencia.jpg","time":25001.89999999106},{"stimulus":"imagen_juego_interferencia.jpg","time":25503.29999999702},{"stimulus":"imagen_juego_interferencia.jpg","time":26010.19999998808},{"stimulus":"imagen_juego_interferencia.jpg","time":26507.19999998808},{"stimulus":"imagen_juego_interferencia.jpg","time":27005.89999999106},{"stimulus":"imagen_juego_interferencia.jpg","time":27500.69999998808},{"stimulus":"imagen_juego_interferencia.jpg","time":28010.89999999106},{"stimulus":"imagen_juego_interferencia.jpg","time":28509.39999999106},{"stimulus":"imagen_juego_interferencia.jpg","time":29008.39999999106},{"stimulus":"imagen_juego_interferencia.jpg","time":29504.69999998808},{"stimulus":"imagen_juego_interferencia.jpg","time":30007.39999999106},{"stimulus":"imagen_juego_interferencia.jpg","time":30516.19999998808},{"stimulus":"imagen_juego_interferencia.jpg","time":31014.89999999106},{"stimulus":"imagen_juego_interferencia.jpg","time":31512.19999998808},{"stimulus":"imagen_juego_interferencia.jpg","time":32012.79999999702},{"stimulus":"imagen_juego_interferencia.jpg","time":32509.69999998808},{"stimulus":"imagen_juego_interferencia.jpg","time":33014.89999999106},{"stimulus":"imagen_juego_interferencia.jpg","time":33514.5},{"stimulus":"imagen_juego_interferencia.jpg","time":34016.5},{"stimulus":"imagen_juego_interferencia.jpg","time":34507},{"stimulus":"imagen_juego_interferencia.jpg","time":35011.5}],"response":[],"trial_type":"animation","trial_index":66,"time_elapsed":1385878,"internal_node_id":"0.0-13.0"},{"rt":9858.90000000596,"responses":"{\"pregunta interferencia1\":\"naranja\"}","question_order":"[0]","trial_type":"survey-multi-choice-cuest","trial_index":67,"time_elapsed":1395738,"internal_node_id":"0.0-14.0-0.0"},{"rt":6020.800000011921,"responses":"{\"pregunta interferencia2\":\"saltamontes\"}","question_order":"[0]","trial_type":"survey-multi-choice-cuest","trial_index":68,"time_elapsed":1401762,"internal_node_id":"0.0-14.0-1.0"},{"rt":21514.70000000298,"responses":"{\"pregunta interferencia3\":\"aluminio\"}","question_order":"[0]","trial_type":"survey-multi-choice-cuest","trial_index":69,"time_elapsed":1423280,"internal_node_id":"0.0-14.0-2.0"},{"rt":41740.70000000298,"responses":"{\"pregunta interferencia4\":\"contador\"}","question_order":"[0]","trial_type":"survey-multi-choice-cuest","trial_index":70,"time_elapsed":1465024,"internal_node_id":"0.0-14.0-3.0"},{"success":true,"trial_type":"fullscreen","trial_index":71,"time_elapsed":1466033,"internal_node_id":"0.0-15.0"}]