[{"rt":29958.80000001192,"stimulus":"<h1 style=\"color:red; margin-top: 3%;\">¡Bienvenido(a)!</h1><p style=\"text-align:left; justify-content:space-between; margin-right: 5%; margin-left: 5%; margin-top: 5%\"> Antes de empezar el estudio, necesitamos que nos confirmes que estás de acuerdo con participar. Recuerda que tu participación es 100% voluntaria y que lo único que te pedimos es responder lo mejor que puedas. Recuerda también que el estudio incluye:</p><ol style=\"text-align:left; justify-content:space-between; margin-right: 5%; margin-left: 5%;\"><li> un ejercicio de resolución de preguntas de selección múltiple (30’),</li><li>un cuestionario breve (5’),</li><li>un juego muy breve (3’),</li></ol><p style=\"text-align:left; justify-content:space-between; margin-right: 5%; margin-left: 5%;\">Si quieres participar, haz clic en “Acepto” luego de leer lo siguiente:<br></p><p style=\"text-align:left; justify-content:space-between; margin-right: 5%; margin-left: 5%;\">Acepto participar en el estudio “Estrategias de lectura y resolución de preguntas de selección múltiple”, en los términos aquí señalados:<br></p><p style=\"text-align:left; justify-content:space-between; margin-right: 5%; margin-left: 5%;\"><a href=\"http://ciae.uchile.cl/download.php?file=noticias/Asentimiento.pdf\" target=\"_blank\">Link a la hoja de información del Consentimiento.</a></p><p style=\"text-align:left; justify-content:space-between; margin-right: 5%; margin-left: 5%;\">Declaro que he leído (o se me ha leído) y (he) comprendido, las condiciones de mi participación en este estudio. He tenido la oportunidad de hacer preguntas y éstas han sido respondidas. No tengo dudas al respecto.</p>","response":0,"condicion_MCQ":3,"condicion_JUEGO":103,"condicion_INTER":7,"numero_participante":103,"numero_version":1,"dimx":1366,"dimy":768,"color_profundidad":24,"pixel_profundidad":24,"Browser":"Google Chrome","dia":26,"mes":5,"hora":15,"minuto":6,"segundo":39,"trial_type":"html-button-response","trial_index":0,"time_elapsed":29964,"internal_node_id":"0.0-0.0"},{"success":true,"trial_type":"fullscreen","trial_index":1,"time_elapsed":34072,"internal_node_id":"0.0-1.0"},{"rt":81690.70000004768,"responses":"{\"Nombres\":\"Jonattan Antonio\",\"Apellidos\":\"Guzman Sepulveda\",\"Edad\":\"19\",\"Sexo\":\"hombre\",\"Curso\":\"sección 1 \",\"Colegio\":\"universidad\",\"Contacto\":\"Jonattanguzman2016@gmail.com\"}","trial_type":"survey-text","trial_index":2,"time_elapsed":115776,"internal_node_id":"0.0-2.0"},{"success":true,"timeout":false,"failed_images":[],"failed_audio":[],"failed_video":[],"trial_type":"preload","trial_index":3,"time_elapsed":117134,"internal_node_id":"0.0-3.0"},{"rt":15925.699999988079,"stimulus":"<h1 style:\"margin-top: 5%;\">Ejercicios de Comprensión de Lectura de la Universidad de Chile</h1><p style=\"font-size: 120%;\">En esta actividad, debes responder 20 preguntas de selección múltiple. Cada pregunta presenta 5 respuestas alternativas, pero sólo una de ellas es correcta. Por lo tanto, debes escoger una sola alternativa para cada pregunta. Además, debes reportar qué tan seguro(a) estás de la respuesta que das, con un:</p><ol style=\"font-size: 120%;text-align:left;margin-left: 40%;\"><li>No estoy seguro(a) para nada</li><li>No estoy muy seguro(a)</li><li>Estoy bastante seguro(a)</li><li>Estoy totalmente seguro(a)</li></ol><p style=\"font-size: 120%;\">Por favor lee bien los enunciados antes de responder. ¡Éxito!</p>","response":0,"trial_type":"html-button-response","trial_index":4,"time_elapsed":133064,"internal_node_id":"0.0-4.0"},{"rt":381594.10000002384,"responses":"{\"pregunta15\":\"e) El receptor es habitualmente pasivo frente a la publicidad.\"}","question_order":"[0]","trial_type":"survey-multi-choice","trial_index":5,"time_elapsed":514656,"internal_node_id":"0.0-5.0-0.0"},{"rt":4819.5,"response":{"pregunta15 likert":1},"question_order":[0],"trial_type":"survey-likert","trial_index":6,"time_elapsed":519480,"internal_node_id":"0.0-5.0-1.0"},{"rt":104313.59999996424,"responses":"{\"pregunta16\":\"e) sufren dolores de espalda.\"}","question_order":"[0]","trial_type":"survey-multi-choice","trial_index":7,"time_elapsed":623801,"internal_node_id":"0.0-5.0-2.0"},{"rt":2719.5,"response":{"pregunta16 likert":1},"question_order":[0],"trial_type":"survey-likert","trial_index":8,"time_elapsed":626524,"internal_node_id":"0.0-5.0-3.0"},{"rt":90339.39999997616,"responses":"{\"pregunta14\":\"e) A la inexistencia de un recinto adecuado para el recital.\"}","question_order":"[0]","trial_type":"survey-multi-choice","trial_index":9,"time_elapsed":716869,"internal_node_id":"0.0-5.0-4.0"},{"rt":2548.600000023842,"response":{"pregunta14 likert":2},"question_order":[0],"trial_type":"survey-likert","trial_index":10,"time_elapsed":719421,"internal_node_id":"0.0-5.0-5.0"},{"rt":74228.09999996424,"responses":"{\"pregunta10\":\"c) Al premio merecido después de tantos esfuerzos.\"}","question_order":"[0]","trial_type":"survey-multi-choice","trial_index":11,"time_elapsed":793648,"internal_node_id":"0.0-5.0-6.0"},{"rt":2780.800000011921,"response":{"pregunta10 likert":1},"question_order":[0],"trial_type":"survey-likert","trial_index":12,"time_elapsed":796434,"internal_node_id":"0.0-5.0-7.0"},{"rt":58673.60000002384,"responses":"{\"pregunta19\":\"a) el jardinero estará muerto al día siguiente.\"}","question_order":"[0]","trial_type":"survey-multi-choice","trial_index":13,"time_elapsed":855115,"internal_node_id":"0.0-5.0-8.0"},{"rt":2306,"response":{"pregunta19 likert":2},"question_order":[0],"trial_type":"survey-likert","trial_index":14,"time_elapsed":857424,"internal_node_id":"0.0-5.0-9.0"},{"rt":98391.39999997616,"responses":"{\"pregunta4\":\"c) Presentar positivamente las diversas tendencias del diseño de interiores a través de un comentario.\"}","question_order":"[0]","trial_type":"survey-multi-choice","trial_index":15,"time_elapsed":955815,"internal_node_id":"0.0-5.0-10.0"},{"rt":3461,"response":{"pregunta4 likert":0},"question_order":[0],"trial_type":"survey-likert","trial_index":16,"time_elapsed":959281,"internal_node_id":"0.0-5.0-11.0"},{"rt":92712.69999998808,"responses":"{\"pregunta1\":\"a) Aportan informaciones con las que se reconstruye el personaje dentro de un relato.\"}","question_order":"[0]","trial_type":"survey-multi-choice","trial_index":17,"time_elapsed":1052000,"internal_node_id":"0.0-5.0-12.0"},{"rt":4119.899999976158,"response":{"pregunta1 likert":1},"question_order":[0],"trial_type":"survey-likert","trial_index":18,"time_elapsed":1056123,"internal_node_id":"0.0-5.0-13.0"},{"rt":38766.39999997616,"responses":"{\"pregunta2\":\"d) A la relación entre hechos capitales y parámetros del pensamiento.\"}","question_order":"[0]","trial_type":"survey-multi-choice","trial_index":19,"time_elapsed":1094888,"internal_node_id":"0.0-5.0-14.0"},{"rt":2576.099999964237,"response":{"pregunta2 likert":1},"question_order":[0],"trial_type":"survey-likert","trial_index":20,"time_elapsed":1097468,"internal_node_id":"0.0-5.0-15.0"},{"rt":83554.69999998808,"responses":"{\"pregunta20\":\"a) para el mexicano, la muerte es cotidiana.\"}","question_order":"[0]","trial_type":"survey-multi-choice","trial_index":21,"time_elapsed":1181030,"internal_node_id":"0.0-5.0-16.0"},{"rt":3148.899999976158,"response":{"pregunta20 likert":1},"question_order":[0],"trial_type":"survey-likert","trial_index":22,"time_elapsed":1184182,"internal_node_id":"0.0-5.0-17.0"},{"rt":157620,"responses":"{\"pregunta7\":\"c) ritualistas y obsesivos.\"}","question_order":"[0]","trial_type":"survey-multi-choice","trial_index":23,"time_elapsed":1341802,"internal_node_id":"0.0-5.0-18.0"},{"rt":2246,"response":{"pregunta7 likert":1},"question_order":[0],"trial_type":"survey-likert","trial_index":24,"time_elapsed":1344052,"internal_node_id":"0.0-5.0-19.0"},{"rt":41485.30000001192,"responses":"{\"pregunta18\":\"e) Se necesita un marco legal para delimitar lo público y lo privado en materia informativa.\"}","question_order":"[0]","trial_type":"survey-multi-choice","trial_index":25,"time_elapsed":1385540,"internal_node_id":"0.0-5.0-20.0"},{"rt":3083.800000011921,"response":{"pregunta18 likert":2},"question_order":[0],"trial_type":"survey-likert","trial_index":26,"time_elapsed":1388627,"internal_node_id":"0.0-5.0-21.0"},{"rt":91118.20000004768,"responses":"{\"pregunta5\":\"b) El ser humano se comporta de acuerdo con las circunstancias.\"}","question_order":"[0]","trial_type":"survey-multi-choice","trial_index":27,"time_elapsed":1479748,"internal_node_id":"0.0-5.0-22.0"},{"rt":2404.100000023842,"response":{"pregunta5 likert":1},"question_order":[0],"trial_type":"survey-likert","trial_index":28,"time_elapsed":1482156,"internal_node_id":"0.0-5.0-23.0"},{"rt":81171.89999997616,"responses":"{\"pregunta6\":\"b) preparar los recuerdos del mañana.\"}","question_order":"[0]","trial_type":"survey-multi-choice","trial_index":29,"time_elapsed":1563331,"internal_node_id":"0.0-5.0-24.0"},{"rt":8180.199999988079,"response":{"pregunta6 likert":1},"question_order":[0],"trial_type":"survey-likert","trial_index":30,"time_elapsed":1571514,"internal_node_id":"0.0-5.0-25.0"},{"rt":121132.10000002384,"responses":"{\"pregunta12\":\"a) todos los elementos químicos tienen más de noventa y dos protones en su núcleo.\"}","question_order":"[0]","trial_type":"survey-multi-choice","trial_index":31,"time_elapsed":1692650,"internal_node_id":"0.0-5.0-26.0"},{"rt":1963.8999999761581,"response":{"pregunta12 likert":2},"question_order":[0],"trial_type":"survey-likert","trial_index":32,"time_elapsed":1694616,"internal_node_id":"0.0-5.0-27.0"},{"rt":131136.19999998808,"responses":"{\"pregunta3\":\"b) Los momentos triviales de los viajes, en la escritura se vuelven significativos.\"}","question_order":"[0]","trial_type":"survey-multi-choice","trial_index":33,"time_elapsed":1825751,"internal_node_id":"0.0-5.0-28.0"},{"rt":3161.600000023842,"response":{"pregunta3 likert":0},"question_order":[0],"trial_type":"survey-likert","trial_index":34,"time_elapsed":1828917,"internal_node_id":"0.0-5.0-29.0"},{"rt":100366.10000002384,"responses":"{\"pregunta11\":\"d) el mejor emperador es el que está muerto.\"}","question_order":"[0]","trial_type":"survey-multi-choice","trial_index":35,"time_elapsed":1929289,"internal_node_id":"0.0-5.0-30.0"},{"rt":3686.399999976158,"response":{"pregunta11 likert":1},"question_order":[0],"trial_type":"survey-likert","trial_index":36,"time_elapsed":1932978,"internal_node_id":"0.0-5.0-31.0"},{"rt":43237.90000003576,"responses":"{\"pregunta17\":\"e) Nuestra economía vivirá un proceso de ajuste a la nueva realidad.\"}","question_order":"[0]","trial_type":"survey-multi-choice","trial_index":37,"time_elapsed":1976220,"internal_node_id":"0.0-5.0-32.0"},{"rt":2570.100000023842,"response":{"pregunta17 likert":1},"question_order":[0],"trial_type":"survey-likert","trial_index":38,"time_elapsed":1978793,"internal_node_id":"0.0-5.0-33.0"},{"rt":47523.19999998808,"responses":"{\"pregunta9\":\"d) Atraer a los turistas.\"}","question_order":"[0]","trial_type":"survey-multi-choice","trial_index":39,"time_elapsed":2026316,"internal_node_id":"0.0-5.0-34.0"},{"rt":4198.5,"response":{"pregunta9 likert":1},"question_order":[0],"trial_type":"survey-likert","trial_index":40,"time_elapsed":2030517,"internal_node_id":"0.0-5.0-35.0"},{"rt":53321.10000002384,"responses":"{\"pregunta8\":\"b) Deleitar a sus receptores por medio de la belleza y el confort.\"}","question_order":"[0]","trial_type":"survey-multi-choice","trial_index":41,"time_elapsed":2083844,"internal_node_id":"0.0-5.0-36.0"},{"rt":2154.800000011921,"response":{"pregunta8 likert":2},"question_order":[0],"trial_type":"survey-likert","trial_index":42,"time_elapsed":2086002,"internal_node_id":"0.0-5.0-37.0"},{"rt":52646.89999997616,"responses":"{\"pregunta13\":\"a) Los seguros médicos deberían considerar el ingreso de Bomberos, pues son los que más los necesitan.\"}","question_order":"[0]","trial_type":"survey-multi-choice","trial_index":43,"time_elapsed":2138653,"internal_node_id":"0.0-5.0-38.0"},{"rt":2561.600000023842,"response":{"pregunta13 likert":2},"question_order":[0],"trial_type":"survey-likert","trial_index":44,"time_elapsed":2141218,"internal_node_id":"0.0-5.0-39.0"},{"rt":3824,"stimulus":"<p style=\"font-size: 120%\">Gracias por completar esta etapa del estudio. Ahora te invitamos a responder el cuestionario.<br><br></p>","response":0,"trial_type":"html-button-response","trial_index":45,"time_elapsed":2145047,"internal_node_id":"0.0-6.0"},{"rt":22575.600000023842,"stimulus":"<h1 style=\"margin-top: 5%\">Cuestionario para la Evaluación de Metas Académicas</h1><p style=\"font-size: 120%; margin-left: 3%; margin-top: 5%\">Este es un cuestionario que permite conocer cuáles son los principales motivos por los que los estudiantes se esfuerzan en su trabajo académico. A continuación, se te presentarán una serie de afirmaciones acerca de los motivos que puedes tener para estudiar.<br>Te pedimos que contestes a dichas afirmaciones reflexionando sobre el contenido de cada una de ellas, que, aunque te parezcan semejantes, en realidad, no lo son.<br>NO HAY RESPUESTAS CORRECTAS o INCORRECTAS, sólo queremos que respondas con la mayor precisión y sinceridad posible a las preguntas que se plantean.","response":0,"trial_type":"html-button-response","trial_index":46,"time_elapsed":2167628,"internal_node_id":"0.0-7.0"},{"rt":138492.80000001192,"response":{"Metas cuestionario pregunta1":3,"Metas cuestionario pregunta2":3,"Metas cuestionario pregunta3":4,"Metas cuestionario pregunta4":3,"Metas cuestionario pregunta5":4,"Metas cuestionario pregunta6":3,"Metas cuestionario pregunta7":2,"Metas cuestionario pregunta8":3,"Metas cuestionario pregunta9":2,"Metas cuestionario pregunta10":0,"Metas cuestionario pregunta11":0,"Metas cuestionario pregunta12":3,"Metas cuestionario pregunta13":1,"Metas cuestionario pregunta14":2,"Metas cuestionario pregunta15":3,"Metas cuestionario pregunta16":4,"Metas cuestionario pregunta17":4,"Metas cuestionario pregunta18":4,"Metas cuestionario pregunta19":4,"Metas cuestionario pregunta20":4},"question_order":[0,1,2,3,4,5,6,7,8,9,10,11,12,13,14,15,16,17,18,19],"trial_type":"survey-likert","trial_index":47,"time_elapsed":2306131,"internal_node_id":"0.0-8.0"}]