[{"rt":7570,"stimulus":"<h1 style=\"color:red; margin-top: 3%;\">¡Bienvenido(a)!</h1><p style=\"text-align:left; justify-content:space-between; margin-right: 5%; margin-left: 5%; margin-top: 5%\"> Antes de empezar el estudio, necesitamos que nos confirmes que estás de acuerdo con participar. Recuerda que tu participación es 100% voluntaria y que lo único que te pedimos es responder lo mejor que puedas. Recuerda también que el estudio incluye:</p><ol style=\"text-align:left; justify-content:space-between; margin-right: 5%; margin-left: 5%;\"><li> un ejercicio de resolución de preguntas de selección múltiple (30’),</li><li>un cuestionario breve (5’),</li><li>un juego muy breve (3’),</li></ol><p style=\"text-align:left; justify-content:space-between; margin-right: 5%; margin-left: 5%;\">Si quieres participar, haz clic en “Acepto” luego de leer lo siguiente:<br></p><p style=\"text-align:left; justify-content:space-between; margin-right: 5%; margin-left: 5%;\">Acepto participar en el estudio “Estrategias de lectura y resolución de preguntas de selección múltiple”, en los términos aquí señalados:<br></p><p style=\"text-align:left; justify-content:space-between; margin-right: 5%; margin-left: 5%;\"><a href=\"http://ciae.uchile.cl/download.php?file=noticias/Asentimiento.pdf\" target=\"_blank\">Link a la hoja de información del Consentimiento.</a></p><p style=\"text-align:left; justify-content:space-between; margin-right: 5%; margin-left: 5%;\">Declaro que he leído (o se me ha leído) y (he) comprendido, las condiciones de mi participación en este estudio. He tenido la oportunidad de hacer preguntas y éstas han sido respondidas. No tengo dudas al respecto.</p>","response":0,"condicion_MCQ":15,"condicion_JUEGO":95,"condicion_INTER":23,"numero_participante":95,"numero_version":1,"dimx":414,"dimy":896,"color_profundidad":32,"pixel_profundidad":32,"Browser":"Apple Safari","dia":24,"mes":5,"hora":15,"minuto":5,"segundo":1,"trial_type":"html-button-response","trial_index":0,"time_elapsed":7576,"internal_node_id":"0.0-0.0"},{"success":true,"trial_type":"fullscreen","trial_index":1,"time_elapsed":10522,"internal_node_id":"0.0-1.0"},{"rt":83386,"responses":"{\"Nombres\":\"Moira alejandra\",\"Apellidos\":\"Martinez maldonado\",\"Edad\":\"24\",\"Sexo\":\"Mujer\",\"Curso\":\"Sección 1\",\"Colegio\":\"Universidad \",\"Contacto\":\"alejandramoira10@gmail.com\"}","trial_type":"survey-text","trial_index":2,"time_elapsed":93941,"internal_node_id":"0.0-2.0"},{"success":true,"timeout":false,"failed_images":[],"failed_audio":[],"failed_video":[],"trial_type":"preload","trial_index":3,"time_elapsed":100232,"internal_node_id":"0.0-3.0"},{"rt":29179,"stimulus":"<h1 style:\"margin-top: 5%;\">Ejercicios de Comprensión de Lectura de la Universidad de Chile</h1><p style=\"font-size: 120%;\">En esta actividad, debes responder 20 preguntas de selección múltiple. Cada pregunta presenta 5 respuestas alternativas, pero sólo una de ellas es correcta. Por lo tanto, debes escoger una sola alternativa para cada pregunta. Además, debes reportar qué tan seguro(a) estás de la respuesta que das, con un:</p><ol style=\"font-size: 120%;text-align:left;margin-left: 40%;\"><li>No estoy seguro(a) para nada</li><li>No estoy muy seguro(a)</li><li>Estoy bastante seguro(a)</li><li>Estoy totalmente seguro(a)</li></ol><p style=\"font-size: 120%;\">Por favor lee bien los enunciados antes de responder. ¡Éxito!</p>","response":0,"trial_type":"html-button-response","trial_index":4,"time_elapsed":129415,"internal_node_id":"0.0-4.0"},{"rt":39423,"responses":"{\"pregunta17\":\"d) El TLC causará una completa transformación de la economía chilena.\"}","question_order":"[0]","trial_type":"survey-multi-choice","trial_index":5,"time_elapsed":168850,"internal_node_id":"0.0-5.0-0.0"},{"rt":7845,"response":{"pregunta17 likert":1},"question_order":[0],"trial_type":"survey-likert","trial_index":6,"time_elapsed":176700,"internal_node_id":"0.0-5.0-1.0"},{"rt":151604,"responses":"{\"pregunta1\":\"d) Aportan informaciones con las que se reconstruye el personaje dentro de un relato.\"}","question_order":"[0]","trial_type":"survey-multi-choice","trial_index":7,"time_elapsed":328312,"internal_node_id":"0.0-5.0-2.0"},{"rt":4811,"response":{"pregunta1 likert":2},"question_order":[0],"trial_type":"survey-likert","trial_index":8,"time_elapsed":333127,"internal_node_id":"0.0-5.0-3.0"},{"rt":46197,"responses":"{\"pregunta10\":\"a) Al premio merecido después de tantos esfuerzos.\"}","question_order":"[0]","trial_type":"survey-multi-choice","trial_index":9,"time_elapsed":379330,"internal_node_id":"0.0-5.0-4.0"},{"rt":5792.000000000058,"response":{"pregunta10 likert":2},"question_order":[0],"trial_type":"survey-likert","trial_index":10,"time_elapsed":385126,"internal_node_id":"0.0-5.0-5.0"},{"rt":78935,"responses":"{\"pregunta12\":\"c) la creación de elementos químicos artificiales ha resultado de la manipulación del uranio.\"}","question_order":"[0]","trial_type":"survey-multi-choice","trial_index":11,"time_elapsed":464068,"internal_node_id":"0.0-5.0-6.0"},{"rt":3043.000000000058,"response":{"pregunta12 likert":1},"question_order":[0],"trial_type":"survey-likert","trial_index":12,"time_elapsed":467116,"internal_node_id":"0.0-5.0-7.0"},{"rt":49650.99999999994,"responses":"{\"pregunta6\":\"d) un recuerdo nostálgico.\"}","question_order":"[0]","trial_type":"survey-multi-choice","trial_index":13,"time_elapsed":516773,"internal_node_id":"0.0-5.0-8.0"},{"rt":3703.000000000058,"response":{"pregunta6 likert":2},"question_order":[0],"trial_type":"survey-likert","trial_index":14,"time_elapsed":520480,"internal_node_id":"0.0-5.0-9.0"},{"rt":3340889,"responses":"{\"pregunta5\":\"d) Lo que es normal en un asilo es anormal en un campo de concentración.\"}","question_order":"[0]","trial_type":"survey-multi-choice","trial_index":15,"time_elapsed":12505665,"internal_node_id":"0.0-5.0-10.0"},{"rt":1828,"response":{"pregunta5 likert":1},"question_order":[0],"trial_type":"survey-likert","trial_index":16,"time_elapsed":12507501,"internal_node_id":"0.0-5.0-11.0"},{"rt":56181,"responses":"{\"pregunta16\":\"a) tienen mayores niveles de relaxín.\"}","question_order":"[0]","trial_type":"survey-multi-choice","trial_index":17,"time_elapsed":12563687,"internal_node_id":"0.0-5.0-12.0"},{"rt":5068.999999999534,"response":{"pregunta16 likert":1},"question_order":[0],"trial_type":"survey-likert","trial_index":18,"time_elapsed":12568761,"internal_node_id":"0.0-5.0-13.0"},{"rt":32949,"responses":"{\"pregunta19\":\"b) la Muerte acostumbraba a aparecer en Ispahán.\"}","question_order":"[0]","trial_type":"survey-multi-choice","trial_index":19,"time_elapsed":12601714,"internal_node_id":"0.0-5.0-14.0"},{"rt":2254,"response":{"pregunta19 likert":2},"question_order":[0],"trial_type":"survey-likert","trial_index":20,"time_elapsed":12603974,"internal_node_id":"0.0-5.0-15.0"},{"rt":26455.999999999534,"responses":"{\"pregunta14\":\"b) A la influencia de grupos que rechazaban su música.\"}","question_order":"[0]","trial_type":"survey-multi-choice","trial_index":21,"time_elapsed":12630434,"internal_node_id":"0.0-5.0-16.0"},{"rt":13905.000000000466,"response":{"pregunta14 likert":2},"question_order":[0],"trial_type":"survey-likert","trial_index":22,"time_elapsed":12644345,"internal_node_id":"0.0-5.0-17.0"},{"rt":17319,"responses":"{\"pregunta18\":\"e) El derecho a informar y el derecho a la privacidad son inconciliables.\"}","question_order":"[0]","trial_type":"survey-multi-choice","trial_index":23,"time_elapsed":12661669,"internal_node_id":"0.0-5.0-18.0"},{"rt":2626,"response":{"pregunta18 likert":1},"question_order":[0],"trial_type":"survey-likert","trial_index":24,"time_elapsed":12664301,"internal_node_id":"0.0-5.0-19.0"},{"rt":34088.999999999534,"responses":"{\"pregunta2\":\"a) A la relación entre sociología y sociedad.\"}","question_order":"[0]","trial_type":"survey-multi-choice","trial_index":25,"time_elapsed":12698395,"internal_node_id":"0.0-5.0-20.0"},{"rt":2765.9999999995343,"response":{"pregunta2 likert":1},"question_order":[0],"trial_type":"survey-likert","trial_index":26,"time_elapsed":12701165,"internal_node_id":"0.0-5.0-21.0"},{"rt":22607.999999999534,"responses":"{\"pregunta15\":\"c) El receptor es habitualmente pasivo frente a la publicidad.\"}","question_order":"[0]","trial_type":"survey-multi-choice","trial_index":27,"time_elapsed":12723778,"internal_node_id":"0.0-5.0-22.0"},{"rt":2562,"response":{"pregunta15 likert":2},"question_order":[0],"trial_type":"survey-likert","trial_index":28,"time_elapsed":12726345,"internal_node_id":"0.0-5.0-23.0"},{"rt":26023,"responses":"{\"pregunta3\":\"c) La escritura olvida los momentos insignificantes de los viajes.\"}","question_order":"[0]","trial_type":"survey-multi-choice","trial_index":29,"time_elapsed":12752371,"internal_node_id":"0.0-5.0-24.0"},{"rt":2212.9999999995343,"response":{"pregunta3 likert":1},"question_order":[0],"trial_type":"survey-likert","trial_index":30,"time_elapsed":12754589,"internal_node_id":"0.0-5.0-25.0"},{"rt":29156,"responses":"{\"pregunta20\":\"b) la muerte es distinta en las grandes ciudades.\"}","question_order":"[0]","trial_type":"survey-multi-choice","trial_index":31,"time_elapsed":12783749,"internal_node_id":"0.0-5.0-26.0"},{"rt":2138,"response":{"pregunta20 likert":1},"question_order":[0],"trial_type":"survey-likert","trial_index":32,"time_elapsed":12785891,"internal_node_id":"0.0-5.0-27.0"},{"rt":26056.999999999534,"responses":"{\"pregunta13\":\"c) Se debe crear un seguro médico especial para esta institución, pues es de alto riesgo.\"}","question_order":"[0]","trial_type":"survey-multi-choice","trial_index":33,"time_elapsed":12811952,"internal_node_id":"0.0-5.0-28.0"},{"rt":4068.9999999990687,"response":{"pregunta13 likert":2},"question_order":[0],"trial_type":"survey-likert","trial_index":34,"time_elapsed":12816026,"internal_node_id":"0.0-5.0-29.0"},{"rt":24572,"responses":"{\"pregunta7\":\"b) religiosos y precavidos.\"}","question_order":"[0]","trial_type":"survey-multi-choice","trial_index":35,"time_elapsed":12840603,"internal_node_id":"0.0-5.0-30.0"},{"rt":3437,"response":{"pregunta7 likert":1},"question_order":[0],"trial_type":"survey-likert","trial_index":36,"time_elapsed":12844044,"internal_node_id":"0.0-5.0-31.0"},{"rt":23568,"responses":"{\"pregunta4\":\"d) Orientar la opción estética de un grupo de personas en lo que se refiere a la decoración de interiores.\"}","question_order":"[0]","trial_type":"survey-multi-choice","trial_index":37,"time_elapsed":12867616,"internal_node_id":"0.0-5.0-32.0"},{"rt":2500,"response":{"pregunta4 likert":1},"question_order":[0],"trial_type":"survey-likert","trial_index":38,"time_elapsed":12870121,"internal_node_id":"0.0-5.0-33.0"},{"rt":19570,"responses":"{\"pregunta11\":\"b) el mejor emperador es el que está muerto.\"}","question_order":"[0]","trial_type":"survey-multi-choice","trial_index":39,"time_elapsed":12889695,"internal_node_id":"0.0-5.0-34.0"},{"rt":2208,"response":{"pregunta11 likert":1},"question_order":[0],"trial_type":"survey-likert","trial_index":40,"time_elapsed":12891909,"internal_node_id":"0.0-5.0-35.0"},{"rt":44702,"responses":"{\"pregunta8\":\"a) Provocar el deseo de la adquisición vertiginosa.\"}","question_order":"[0]","trial_type":"survey-multi-choice","trial_index":41,"time_elapsed":12936615,"internal_node_id":"0.0-5.0-36.0"},{"rt":2359,"response":{"pregunta8 likert":2},"question_order":[0],"trial_type":"survey-likert","trial_index":42,"time_elapsed":12938979,"internal_node_id":"0.0-5.0-37.0"},{"rt":36034,"responses":"{\"pregunta9\":\"d) Atraer a los turistas.\"}","question_order":"[0]","trial_type":"survey-multi-choice","trial_index":43,"time_elapsed":12975017,"internal_node_id":"0.0-5.0-38.0"},{"rt":5360,"response":{"pregunta9 likert":1},"question_order":[0],"trial_type":"survey-likert","trial_index":44,"time_elapsed":12980381,"internal_node_id":"0.0-5.0-39.0"},{"rt":1514,"stimulus":"<p style=\"font-size: 120%\">Gracias por completar esta etapa del estudio. Ahora te invitamos a responder el cuestionario.<br><br></p>","response":0,"trial_type":"html-button-response","trial_index":45,"time_elapsed":12981922,"internal_node_id":"0.0-6.0"},{"rt":9872.000000000931,"stimulus":"<h1 style=\"margin-top: 5%\">Cuestionario para la Evaluación de Metas Académicas</h1><p style=\"font-size: 120%; margin-left: 3%; margin-top: 5%\">Este es un cuestionario que permite conocer cuáles son los principales motivos por los que los estudiantes se esfuerzan en su trabajo académico. A continuación, se te presentarán una serie de afirmaciones acerca de los motivos que puedes tener para estudiar.<br>Te pedimos que contestes a dichas afirmaciones reflexionando sobre el contenido de cada una de ellas, que, aunque te parezcan semejantes, en realidad, no lo son.<br>NO HAY RESPUESTAS CORRECTAS o INCORRECTAS, sólo queremos que respondas con la mayor precisión y sinceridad posible a las preguntas que se plantean.","response":0,"trial_type":"html-button-response","trial_index":46,"time_elapsed":12991970,"internal_node_id":"0.0-7.0"},{"rt":123153,"response":{"Metas cuestionario pregunta1":3,"Metas cuestionario pregunta2":3,"Metas cuestionario pregunta3":3,"Metas cuestionario pregunta4":2,"Metas cuestionario pregunta5":3,"Metas cuestionario pregunta6":3,"Metas cuestionario pregunta7":3,"Metas cuestionario pregunta8":3,"Metas cuestionario pregunta9":0,"Metas cuestionario pregunta10":0,"Metas cuestionario pregunta11":0,"Metas cuestionario pregunta12":0,"Metas cuestionario pregunta13":0,"Metas cuestionario pregunta14":0,"Metas cuestionario pregunta15":3,"Metas cuestionario pregunta16":3,"Metas cuestionario pregunta17":3,"Metas cuestionario pregunta18":3,"Metas cuestionario pregunta19":3,"Metas cuestionario pregunta20":4},"question_order":[0,1,2,3,4,5,6,7,8,9,10,11,12,13,14,15,16,17,18,19],"trial_type":"survey-likert","trial_index":47,"time_elapsed":13115138,"internal_node_id":"0.0-8.0"},{"rt":1846.0000000009313,"stimulus":"<p style=\"font-size: 120%\">Gracias por responder el cuestionario. Ahora te invitamos a seguir con el juego, que es muy breve.<br><br></p>","response":0,"trial_type":"html-button-response","trial_index":48,"time_elapsed":13116987,"internal_node_id":"0.0-9.0"},{"rt":6749,"stimulus":"<h1>Juego</h1><p style=\"font-size: 120%;\">A continuación se te presentarán 16 pequeñas historias.<br>Por favor lee el texto presentado en cada una de ellas y luego haz click en el objeto de tu elección.<br>Si estás listo(a),<span style=\"color:red;\"> haz click en \"comenzar\"</span>.</p>","response":0,"trial_type":"html-button-response","trial_index":49,"time_elapsed":13123744,"internal_node_id":"0.0-10.0"},{"rt":16431,"grid":[[1,1,1],[1,1,1],[1,1,1],[1,1,1],[1,1,1],[1,1,1],[1,1,1],[1,1,1],[1,1,1],[1,1,1],[1,1,1]],"target":[0,0],"response":[5,1],"correct":false,"juego":13,"trial_type":"serial-reaction-time-mouse","trial_index":50,"time_elapsed":13140195,"internal_node_id":"0.0-11.0-0.0"},{"rt":64970.99999999907,"grid":[[1,1,1,1,1]],"target":[0,0],"response":[0,0],"correct":true,"juego":12,"trial_type":"serial-reaction-time-mouse","trial_index":51,"time_elapsed":13205174,"internal_node_id":"0.0-11.0-1.0"},{"rt":16803.00000000093,"grid":[[1,1,1,1,1]],"target":[0,0],"response":[0,3],"correct":false,"juego":7,"trial_type":"serial-reaction-time-mouse","trial_index":52,"time_elapsed":13221987,"internal_node_id":"0.0-11.0-2.0"},{"rt":28246,"grid":[[1,1,1],[1,1,1],[1,1,1],[1,1,1],[1,1,1],[1,1,1],[1,1,1],[1,1,1],[1,1,1],[1,1,1],[1,1,1]],"target":[0,0],"response":[1,1],"correct":false,"juego":5,"trial_type":"serial-reaction-time-mouse","trial_index":53,"time_elapsed":13250244,"internal_node_id":"0.0-11.0-3.0"},{"rt":8498,"grid":[[1,1,1],[1,1,1],[1,1,1],[1,1,1],[1,1,1],[1,1,1],[1,1,1],[1,1,1],[1,1,1],[1,1,1],[1,1,1]],"target":[0,0],"response":[9,1],"correct":false,"juego":6,"trial_type":"serial-reaction-time-mouse","trial_index":54,"time_elapsed":13258752,"internal_node_id":"0.0-11.0-4.0"},{"rt":13770.000000000931,"grid":[[1,1,1,1,1]],"target":[0,0],"response":[0,3],"correct":false,"juego":11,"trial_type":"serial-reaction-time-mouse","trial_index":55,"time_elapsed":13272526,"internal_node_id":"0.0-11.0-5.0"},{"rt":9894,"grid":[[1,1,1,1,1]],"target":[0,0],"response":[0,1],"correct":false,"juego":9,"trial_type":"serial-reaction-time-mouse","trial_index":56,"time_elapsed":13282425,"internal_node_id":"0.0-11.0-6.0"},{"rt":6936.999999999069,"grid":[[1,1,1,1,1]],"target":[0,0],"response":[0,4],"correct":false,"juego":1,"trial_type":"serial-reaction-time-mouse","trial_index":57,"time_elapsed":13289365,"internal_node_id":"0.0-11.0-7.0"},{"rt":8650,"grid":[[1,1,1],[1,1,1],[1,1,1],[1,1,1],[1,1,1],[1,1,1],[1,1,1],[1,1,1],[1,1,1],[1,1,1],[1,1,1]],"target":[0,0],"response":[9,2],"correct":false,"juego":10,"trial_type":"serial-reaction-time-mouse","trial_index":58,"time_elapsed":13298024,"internal_node_id":"0.0-11.0-8.0"},{"rt":22371,"grid":[[1,1,1,1],[1,1,1,1],[1,1,1,1],[1,1,1,1],[1,1,1,1],[1,1,1,1],[1,1,1,1],[1,1,1,1],[1,1,1,1],[1,1,1,1],[1,1,1,1]],"target":[0,0],"response":[7,2],"correct":false,"juego":15,"trial_type":"serial-reaction-time-mouse","trial_index":59,"time_elapsed":13320406,"internal_node_id":"0.0-11.0-9.0"},{"rt":11551.999999999069,"grid":[[1,1,1,1,1]],"target":[0,0],"response":[0,0],"correct":true,"juego":2,"trial_type":"serial-reaction-time-mouse","trial_index":60,"time_elapsed":13331962,"internal_node_id":"0.0-11.0-10.0"},{"rt":10833,"grid":[[1,1,1,1],[1,1,1,1],[1,1,1,1],[1,1,1,1],[1,1,1,1],[1,1,1,1],[1,1,1,1],[1,1,1,1],[1,1,1,1],[1,1,1,1],[1,1,1,1]],"target":[0,0],"response":[1,2],"correct":false,"juego":14,"trial_type":"serial-reaction-time-mouse","trial_index":61,"time_elapsed":13342806,"internal_node_id":"0.0-11.0-11.0"},{"rt":3869.0000000009313,"grid":[[1,1,1,1,1]],"target":[0,0],"response":[0,2],"correct":false,"juego":8,"trial_type":"serial-reaction-time-mouse","trial_index":62,"time_elapsed":13346679,"internal_node_id":"0.0-11.0-12.0"},{"rt":3245,"grid":[[1],[1],[1],[1],[1]],"target":[0,0],"response":[3,0],"correct":false,"juego":4,"trial_type":"serial-reaction-time-mouse","trial_index":63,"time_elapsed":13349930,"internal_node_id":"0.0-11.0-13.0"},{"rt":6061,"grid":[[1,1,1,1,1]],"target":[0,0],"response":[0,2],"correct":false,"juego":3,"trial_type":"serial-reaction-time-mouse","trial_index":64,"time_elapsed":13355996,"internal_node_id":"0.0-11.0-14.0"},{"rt":5170,"stimulus":"<h1>Último juego</h1><p style=\"font-size: 130%;\">Tienes <span style=\"color:red\">35</span> segundos para recordar los pares de palabras que aparecerán a continuación. <br></p>","response":0,"trial_type":"html-button-response","trial_index":65,"time_elapsed":13361182,"internal_node_id":"0.0-12.0"},{"animation_sequence":[{"stimulus":"imagen_juego_interferencia.jpg","time":543},{"stimulus":"imagen_juego_interferencia.jpg","time":1008},{"stimulus":"imagen_juego_interferencia.jpg","time":1510},{"stimulus":"imagen_juego_interferencia.jpg","time":2011},{"stimulus":"imagen_juego_interferencia.jpg","time":2512},{"stimulus":"imagen_juego_interferencia.jpg","time":3012},{"stimulus":"imagen_juego_interferencia.jpg","time":3513},{"stimulus":"imagen_juego_interferencia.jpg","time":4014},{"stimulus":"imagen_juego_interferencia.jpg","time":4516},{"stimulus":"imagen_juego_interferencia.jpg","time":5016},{"stimulus":"imagen_juego_interferencia.jpg","time":5517},{"stimulus":"imagen_juego_interferencia.jpg","time":6018},{"stimulus":"imagen_juego_interferencia.jpg","time":6519},{"stimulus":"imagen_juego_interferencia.jpg","time":7020},{"stimulus":"imagen_juego_interferencia.jpg","time":7521},{"stimulus":"imagen_juego_interferencia.jpg","time":8022},{"stimulus":"imagen_juego_interferencia.jpg","time":8524.000000000931},{"stimulus":"imagen_juego_interferencia.jpg","time":9025},{"stimulus":"imagen_juego_interferencia.jpg","time":9526},{"stimulus":"imagen_juego_interferencia.jpg","time":10027},{"stimulus":"imagen_juego_interferencia.jpg","time":10528},{"stimulus":"imagen_juego_interferencia.jpg","time":11029},{"stimulus":"imagen_juego_interferencia.jpg","time":11530},{"stimulus":"imagen_juego_interferencia.jpg","time":12031},{"stimulus":"imagen_juego_interferencia.jpg","time":12532},{"stimulus":"imagen_juego_interferencia.jpg","time":13033.000000000931},{"stimulus":"imagen_juego_interferencia.jpg","time":13534},{"stimulus":"imagen_juego_interferencia.jpg","time":14035},{"stimulus":"imagen_juego_interferencia.jpg","time":14536},{"stimulus":"imagen_juego_interferencia.jpg","time":15038},{"stimulus":"imagen_juego_interferencia.jpg","time":15539},{"stimulus":"imagen_juego_interferencia.jpg","time":16040},{"stimulus":"imagen_juego_interferencia.jpg","time":16541},{"stimulus":"imagen_juego_interferencia.jpg","time":17043},{"stimulus":"imagen_juego_interferencia.jpg","time":17542.00000000093},{"stimulus":"imagen_juego_interferencia.jpg","time":18043},{"stimulus":"imagen_juego_interferencia.jpg","time":18544},{"stimulus":"imagen_juego_interferencia.jpg","time":19045},{"stimulus":"imagen_juego_interferencia.jpg","time":19546},{"stimulus":"imagen_juego_interferencia.jpg","time":20048},{"stimulus":"imagen_juego_interferencia.jpg","time":20549},{"stimulus":"imagen_juego_interferencia.jpg","time":21049},{"stimulus":"imagen_juego_interferencia.jpg","time":21550},{"stimulus":"imagen_juego_interferencia.jpg","time":22052},{"stimulus":"imagen_juego_interferencia.jpg","time":22552},{"stimulus":"imagen_juego_interferencia.jpg","time":23054},{"stimulus":"imagen_juego_interferencia.jpg","time":23555},{"stimulus":"imagen_juego_interferencia.jpg","time":24056},{"stimulus":"imagen_juego_interferencia.jpg","time":24557},{"stimulus":"imagen_juego_interferencia.jpg","time":25059},{"stimulus":"imagen_juego_interferencia.jpg","time":25559},{"stimulus":"imagen_juego_interferencia.jpg","time":26060.00000000093},{"stimulus":"imagen_juego_interferencia.jpg","time":26560.00000000093},{"stimulus":"imagen_juego_interferencia.jpg","time":27061},{"stimulus":"imagen_juego_interferencia.jpg","time":27563},{"stimulus":"imagen_juego_interferencia.jpg","time":28064},{"stimulus":"imagen_juego_interferencia.jpg","time":28565},{"stimulus":"imagen_juego_interferencia.jpg","time":29066},{"stimulus":"imagen_juego_interferencia.jpg","time":29566},{"stimulus":"imagen_juego_interferencia.jpg","time":30066},{"stimulus":"imagen_juego_interferencia.jpg","time":30567},{"stimulus":"imagen_juego_interferencia.jpg","time":31067},{"stimulus":"imagen_juego_interferencia.jpg","time":31568},{"stimulus":"imagen_juego_interferencia.jpg","time":32069},{"stimulus":"imagen_juego_interferencia.jpg","time":32570},{"stimulus":"imagen_juego_interferencia.jpg","time":33072},{"stimulus":"imagen_juego_interferencia.jpg","time":33573.00000000093},{"stimulus":"imagen_juego_interferencia.jpg","time":34074},{"stimulus":"imagen_juego_interferencia.jpg","time":34575},{"stimulus":"imagen_juego_interferencia.jpg","time":35076}],"response":[],"trial_type":"animation","trial_index":66,"time_elapsed":13396765,"internal_node_id":"0.0-13.0"},{"rt":18116.99999999907,"responses":"{\"pregunta interferencia4\":\"contador\"}","question_order":"[0]","trial_type":"survey-multi-choice-cuest","trial_index":67,"time_elapsed":13414893,"internal_node_id":"0.0-14.0-0.0"},{"rt":7277,"responses":"{\"pregunta interferencia2\":\"cucaracha\"}","question_order":"[0]","trial_type":"survey-multi-choice-cuest","trial_index":68,"time_elapsed":13422173,"internal_node_id":"0.0-14.0-1.0"},{"rt":7412,"responses":"{\"pregunta interferencia1\":\"naranja\"}","question_order":"[0]","trial_type":"survey-multi-choice-cuest","trial_index":69,"time_elapsed":13429590,"internal_node_id":"0.0-14.0-2.0"},{"rt":5383.000000000931,"responses":"{\"pregunta interferencia3\":\"aluminio\"}","question_order":"[0]","trial_type":"survey-multi-choice-cuest","trial_index":70,"time_elapsed":13434978,"internal_node_id":"0.0-14.0-3.0"},{"success":true,"trial_type":"fullscreen","trial_index":71,"time_elapsed":13435985,"internal_node_id":"0.0-15.0"}]