[{"rt":7594.699999988079,"stimulus":"<h1 style=\"color:red; margin-top: 3%;\">¡Bienvenido(a)!</h1><p style=\"text-align:left; justify-content:space-between; margin-right: 5%; margin-left: 5%; margin-top: 5%\"> Antes de empezar el estudio, necesitamos que nos confirmes que estás de acuerdo con participar. Recuerda que tu participación es 100% voluntaria y que lo único que te pedimos es responder lo mejor que puedas. Recuerda también que el estudio incluye:</p><ol style=\"text-align:left; justify-content:space-between; margin-right: 5%; margin-left: 5%;\"><li> un ejercicio de resolución de preguntas de selección múltiple (30’),</li><li>un cuestionario breve (5’),</li><li>un juego muy breve (3’),</li></ol><p style=\"text-align:left; justify-content:space-between; margin-right: 5%; margin-left: 5%;\">Si quieres participar, haz clic en “Acepto” luego de leer lo siguiente:<br></p><p style=\"text-align:left; justify-content:space-between; margin-right: 5%; margin-left: 5%;\">Acepto participar en el estudio “Estrategias de lectura y resolución de preguntas de selección múltiple”, en los términos aquí señalados:<br></p><p style=\"text-align:left; justify-content:space-between; margin-right: 5%; margin-left: 5%;\"><a href=\"http://ciae.uchile.cl/download.php?file=noticias/Asentimiento.pdf\" target=\"_blank\">Link a la hoja de información del Consentimiento.</a></p><p style=\"text-align:left; justify-content:space-between; margin-right: 5%; margin-left: 5%;\">Declaro que he leído (o se me ha leído) y (he) comprendido, las condiciones de mi participación en este estudio. He tenido la oportunidad de hacer preguntas y éstas han sido respondidas. No tengo dudas al respecto.</p>","response":0,"condicion_MCQ":10,"condicion_JUEGO":30,"condicion_INTER":6,"numero_participante":30,"numero_version":2,"dimx":360,"dimy":760,"color_profundidad":24,"pixel_profundidad":24,"Browser":"Google Chrome","dia":18,"mes":5,"hora":15,"minuto":21,"segundo":47,"trial_type":"html-button-response","trial_index":0,"time_elapsed":7609,"internal_node_id":"0.0-0.0"},{"success":true,"trial_type":"fullscreen","trial_index":1,"time_elapsed":11145,"internal_node_id":"0.0-1.0"},{"rt":90679.70000000298,"responses":"{\"Nombres\":\"Camila Paz \",\"Apellidos\":\"Gallardo Torres\",\"Edad\":\"19\",\"Sexo\":\"Mujer\",\"Curso\":\"Sección 200\",\"Colegio\":\"Universidad Andrés Bello\",\"Contacto\":\"camilagallardo587@gmail.com \"}","trial_type":"survey-text","trial_index":2,"time_elapsed":101884,"internal_node_id":"0.0-2.0"},{"success":true,"timeout":false,"failed_images":[],"failed_audio":[],"failed_video":[],"trial_type":"preload","trial_index":3,"time_elapsed":104462,"internal_node_id":"0.0-3.0"},{"rt":35808.70000000298,"stimulus":"<h1 style:\"margin-top: 5%;\">Ejercicios de Comprensión de Lectura de la Universidad de Chile</h1><p style=\"font-size: 120%;\">En esta actividad, debes responder 20 preguntas de selección múltiple. Cada pregunta presenta 5 respuestas alternativas, pero sólo una de ellas es correcta. Por lo tanto, debes escoger una sola alternativa para cada pregunta. Además, debes reportar qué tan seguro(a) estás de la respuesta que das, con un:</p><ol style=\"font-size: 120%;text-align:left;margin-left: 40%;\"><li>No estoy seguro(a) para nada</li><li>No estoy muy seguro(a)</li><li>Estoy bastante seguro(a)</li><li>Estoy totalmente seguro(a)</li></ol><p style=\"font-size: 120%;\">Por favor lee bien los enunciados antes de responder. ¡Éxito!</p>","response":0,"trial_type":"html-button-response","trial_index":4,"time_elapsed":140286,"internal_node_id":"0.0-4.0"},{"rt":139800.79999999702,"responses":"{\"pregunta15\":\"e) La publicidad es dañina para sus receptores.\"}","question_order":"[0]","trial_type":"survey-multi-choice","trial_index":5,"time_elapsed":280097,"internal_node_id":"0.0-5.0-0.0"},{"rt":4079.5,"response":{"pregunta15 likert":2},"question_order":[0],"trial_type":"survey-likert","trial_index":6,"time_elapsed":284186,"internal_node_id":"0.0-5.0-1.0"},{"rt":83129.90000000596,"responses":"{\"pregunta2\":\"c) A la relación entre pensamiento y estructura social.\"}","question_order":"[0]","trial_type":"survey-multi-choice","trial_index":7,"time_elapsed":367324,"internal_node_id":"0.0-5.0-2.0"},{"rt":3075.2000000029802,"response":{"pregunta2 likert":1},"question_order":[0],"trial_type":"survey-likert","trial_index":8,"time_elapsed":370407,"internal_node_id":"0.0-5.0-3.0"},{"rt":214003.09999999404,"responses":"{\"pregunta16\":\"a) llevan un control grupal de su embarazo.\"}","question_order":"[0]","trial_type":"survey-multi-choice","trial_index":9,"time_elapsed":596979,"internal_node_id":"0.0-5.0-4.0"},{"rt":4363.600000008941,"response":{"pregunta16 likert":2},"question_order":[0],"trial_type":"survey-likert","trial_index":10,"time_elapsed":601355,"internal_node_id":"0.0-5.0-5.0"},{"rt":153879.89999999106,"responses":"{\"pregunta14\":\"b) A la negligencia de la empresa que los traía a Chile.\"}","question_order":"[0]","trial_type":"survey-multi-choice","trial_index":11,"time_elapsed":755247,"internal_node_id":"0.0-5.0-6.0"},{"rt":4001.5999999940395,"response":{"pregunta14 likert":1},"question_order":[0],"trial_type":"survey-likert","trial_index":12,"time_elapsed":759261,"internal_node_id":"0.0-5.0-7.0"},{"rt":140989.79999999702,"responses":"{\"pregunta17\":\"a) El futuro de la economía chilena es incierto.\"}","question_order":"[0]","trial_type":"survey-multi-choice","trial_index":13,"time_elapsed":900261,"internal_node_id":"0.0-5.0-8.0"},{"rt":2138.0999999940395,"response":{"pregunta17 likert":2},"question_order":[0],"trial_type":"survey-likert","trial_index":14,"time_elapsed":902408,"internal_node_id":"0.0-5.0-9.0"},{"rt":173258.59999999404,"responses":"{\"pregunta4\":\"d) Promover la asistencia a un evento específico de decoración a través de una atractiva descripción.\"}","question_order":"[0]","trial_type":"survey-multi-choice","trial_index":15,"time_elapsed":1075677,"internal_node_id":"0.0-5.0-10.0"},{"rt":2942.8999999910593,"response":{"pregunta4 likert":2},"question_order":[0],"trial_type":"survey-likert","trial_index":16,"time_elapsed":1078632,"internal_node_id":"0.0-5.0-11.0"},{"rt":250239.29999999702,"responses":"{\"pregunta5\":\"d) El ser humano se comporta de acuerdo con las circunstancias.\"}","question_order":"[0]","trial_type":"survey-multi-choice","trial_index":17,"time_elapsed":1338481,"internal_node_id":"0.0-5.0-12.0"},{"rt":2835,"response":{"pregunta5 likert":2},"question_order":[0],"trial_type":"survey-likert","trial_index":18,"time_elapsed":1341327,"internal_node_id":"0.0-5.0-13.0"},{"rt":181021.20000000298,"responses":"{\"pregunta3\":\"c) Los momentos triviales de los viajes, en la escritura se vuelven significativos.\"}","question_order":"[0]","trial_type":"survey-multi-choice","trial_index":19,"time_elapsed":1522357,"internal_node_id":"0.0-5.0-14.0"},{"rt":2315.4000000059605,"response":{"pregunta3 likert":2},"question_order":[0],"trial_type":"survey-likert","trial_index":20,"time_elapsed":1524682,"internal_node_id":"0.0-5.0-15.0"},{"rt":401032.90000000596,"responses":"{\"pregunta19\":\"b) el jardinero estará muerto al día siguiente.\"}","question_order":"[0]","trial_type":"survey-multi-choice","trial_index":21,"time_elapsed":1925738,"internal_node_id":"0.0-5.0-16.0"},{"rt":3238.3999999910593,"response":{"pregunta19 likert":2},"question_order":[0],"trial_type":"survey-likert","trial_index":22,"time_elapsed":1928986,"internal_node_id":"0.0-5.0-17.0"},{"rt":157852.5,"responses":"{\"pregunta20\":\"c) para el mexicano, la muerte es cotidiana.\"}","question_order":"[0]","trial_type":"survey-multi-choice","trial_index":23,"time_elapsed":2086849,"internal_node_id":"0.0-5.0-18.0"},{"rt":2163.3999999910593,"response":{"pregunta20 likert":2},"question_order":[0],"trial_type":"survey-likert","trial_index":24,"time_elapsed":2089020,"internal_node_id":"0.0-5.0-19.0"},{"rt":100193.19999998808,"responses":"{\"pregunta10\":\"c) A la inutilidad de tanto esfuerzo si el objetivo es el reposo.\"}","question_order":"[0]","trial_type":"survey-multi-choice","trial_index":25,"time_elapsed":2189224,"internal_node_id":"0.0-5.0-20.0"},{"rt":1895.2999999970198,"response":{"pregunta10 likert":2},"question_order":[0],"trial_type":"survey-likert","trial_index":26,"time_elapsed":2191130,"internal_node_id":"0.0-5.0-21.0"},{"rt":217577.89999999106,"responses":"{\"pregunta13\":\"a) Bomberos debería tener acceso a un seguro médico, al que pueda recurrir en caso de accidente.\"}","question_order":"[0]","trial_type":"survey-multi-choice","trial_index":27,"time_elapsed":2408720,"internal_node_id":"0.0-5.0-22.0"},{"rt":2018.2999999970198,"response":{"pregunta13 likert":2},"question_order":[0],"trial_type":"survey-likert","trial_index":28,"time_elapsed":2410747,"internal_node_id":"0.0-5.0-23.0"},{"rt":139320.10000000894,"responses":"{\"pregunta9\":\"e) Homenajear a quienes murieron.\"}","question_order":"[0]","trial_type":"survey-multi-choice","trial_index":29,"time_elapsed":2550077,"internal_node_id":"0.0-5.0-24.0"},{"rt":2850.7999999970198,"response":{"pregunta9 likert":3},"question_order":[0],"trial_type":"survey-likert","trial_index":30,"time_elapsed":2552937,"internal_node_id":"0.0-5.0-25.0"},{"rt":278817.700000003,"responses":"{\"pregunta12\":\"c) todos los elementos químicos tienen más de noventa y dos protones en su núcleo.\"}","question_order":"[0]","trial_type":"survey-multi-choice","trial_index":31,"time_elapsed":3055327,"internal_node_id":"0.0-5.0-26.0"},{"rt":2168.2999999970198,"response":{"pregunta12 likert":2},"question_order":[0],"trial_type":"survey-likert","trial_index":32,"time_elapsed":3057510,"internal_node_id":"0.0-5.0-27.0"},{"rt":202488.29999999702,"responses":"{\"pregunta1\":\"c) Aportan informaciones con las que se reconstruye el personaje dentro de un relato.\"}","question_order":"[0]","trial_type":"survey-multi-choice","trial_index":33,"time_elapsed":3564131,"internal_node_id":"0.0-5.0-28.0"},{"rt":3189.8999999910593,"response":{"pregunta1 likert":1},"question_order":[0],"trial_type":"survey-likert","trial_index":34,"time_elapsed":3567330,"internal_node_id":"0.0-5.0-29.0"},{"rt":262161.5,"responses":"{\"pregunta11\":\"e) el mejor emperador es el que está muerto.\"}","question_order":"[0]","trial_type":"survey-multi-choice","trial_index":35,"time_elapsed":3927304,"internal_node_id":"0.0-5.0-30.0"},{"rt":2145.0999999940395,"response":{"pregunta11 likert":2},"question_order":[0],"trial_type":"survey-likert","trial_index":36,"time_elapsed":3929461,"internal_node_id":"0.0-5.0-31.0"},{"rt":237410.5,"responses":"{\"pregunta8\":\"e) Provocar el deseo de la adquisición vertiginosa.\"}","question_order":"[0]","trial_type":"survey-multi-choice","trial_index":37,"time_elapsed":4331165,"internal_node_id":"0.0-5.0-32.0"},{"rt":2228.9000000059605,"response":{"pregunta8 likert":2},"question_order":[0],"trial_type":"survey-likert","trial_index":38,"time_elapsed":4333406,"internal_node_id":"0.0-5.0-33.0"},{"rt":78518.69999998808,"responses":"{\"pregunta18\":\"b) Se necesita un marco legal para delimitar lo público y lo privado en materia informativa.\"}","question_order":"[0]","trial_type":"survey-multi-choice","trial_index":39,"time_elapsed":4411935,"internal_node_id":"0.0-5.0-34.0"},{"rt":1801.2999999970198,"response":{"pregunta18 likert":2},"question_order":[0],"trial_type":"survey-likert","trial_index":40,"time_elapsed":4413745,"internal_node_id":"0.0-5.0-35.0"},{"rt":313158.5,"responses":"{\"pregunta6\":\"d) preparar los recuerdos del mañana.\"}","question_order":"[0]","trial_type":"survey-multi-choice","trial_index":41,"time_elapsed":4726912,"internal_node_id":"0.0-5.0-36.0"},{"rt":1456,"response":{"pregunta6 likert":2},"question_order":[0],"trial_type":"survey-likert","trial_index":42,"time_elapsed":4728380,"internal_node_id":"0.0-5.0-37.0"},{"rt":116664.09999999404,"responses":"{\"pregunta7\":\"d) ritualistas y obsesivos.\"}","question_order":"[0]","trial_type":"survey-multi-choice","trial_index":43,"time_elapsed":4846814,"internal_node_id":"0.0-5.0-38.0"},{"rt":1751.2999999970198,"response":{"pregunta7 likert":2},"question_order":[0],"trial_type":"survey-likert","trial_index":44,"time_elapsed":4848575,"internal_node_id":"0.0-5.0-39.0"}]