[{"rt":22258,"stimulus":"<h1 style=\"color:red; margin-top: 3%;\">¡Bienvenido(a)!</h1><p style=\"text-align:left; justify-content:space-between; margin-right: 5%; margin-left: 5%; margin-top: 5%\"> Antes de empezar el estudio, necesitamos que nos confirmes que estás de acuerdo con participar. Recuerda que tu participación es 100% voluntaria y que lo único que te pedimos es responder lo mejor que puedas. Recuerda también que el estudio incluye:</p><ol style=\"text-align:left; justify-content:space-between; margin-right: 5%; margin-left: 5%;\"><li> un ejercicio de resolución de preguntas de selección múltiple (30’),</li><li>un cuestionario breve (5’),</li><li>un juego muy breve (3’),</li></ol><p style=\"text-align:left; justify-content:space-between; margin-right: 5%; margin-left: 5%;\">Si quieres participar, haz clic en “Acepto” luego de leer lo siguiente:<br></p><p style=\"text-align:left; justify-content:space-between; margin-right: 5%; margin-left: 5%;\">Acepto participar en el estudio “Estrategias de lectura y resolución de preguntas de selección múltiple”, en los términos aquí señalados:<br></p><p style=\"text-align:left; justify-content:space-between; margin-right: 5%; margin-left: 5%;\"><a href=\"http://ciae.uchile.cl/download.php?file=noticias/Asentimiento.pdf\" target=\"_blank\">Link a la hoja de información del Consentimiento.</a></p><p style=\"text-align:left; justify-content:space-between; margin-right: 5%; margin-left: 5%;\">Declaro que he leído (o se me ha leído) y (he) comprendido, las condiciones de mi participación en este estudio. He tenido la oportunidad de hacer preguntas y éstas han sido respondidas. No tengo dudas al respecto.</p>","response":0,"condicion_MCQ":8,"condicion_JUEGO":8,"condicion_INTER":8,"numero_participante":8,"numero_version":1,"dimx":414,"dimy":896,"color_profundidad":32,"pixel_profundidad":32,"Browser":"No identificado","dia":17,"mes":5,"hora":17,"minuto":18,"segundo":1,"trial_type":"html-button-response","trial_index":0,"time_elapsed":22262,"internal_node_id":"0.0-0.0"},{"success":true,"trial_type":"fullscreen","trial_index":1,"time_elapsed":30714,"internal_node_id":"0.0-1.0"},{"rt":53693,"responses":"{\"Nombres\":\"Roxana Alejandra\",\"Apellidos\":\"Albornoz zarate\",\"Edad\":\"34\",\"Sexo\":\"Mujer \",\"Curso\":\"Vespertino \",\"Colegio\":\"Universidad Andrés bello\",\"Contacto\":\"roxana.albornoz@hotmail.com \"}","trial_type":"survey-text","trial_index":2,"time_elapsed":84433,"internal_node_id":"0.0-2.0"},{"success":true,"timeout":false,"failed_images":[],"failed_audio":[],"failed_video":[],"trial_type":"preload","trial_index":3,"time_elapsed":86093,"internal_node_id":"0.0-3.0"},{"rt":18119,"stimulus":"<h1 style:\"margin-top: 5%;\">Ejercicios de Comprensión de Lectura de la Universidad de Chile</h1><p style=\"font-size: 120%;\">En esta actividad, debes responder 20 preguntas de selección múltiple. Cada pregunta presenta 5 respuestas alternativas, pero sólo una de ellas es correcta. Por lo tanto, debes escoger una sola alternativa para cada pregunta. Además, debes reportar qué tan seguro(a) estás de la respuesta que das, con un:</p><ol style=\"font-size: 120%;text-align:left;margin-left: 40%;\"><li>No estoy seguro(a) para nada</li><li>No estoy muy seguro(a)</li><li>Estoy bastante seguro(a)</li><li>Estoy totalmente seguro(a)</li></ol><p style=\"font-size: 120%;\">Por favor lee bien los enunciados antes de responder. ¡Éxito!</p>","response":0,"trial_type":"html-button-response","trial_index":4,"time_elapsed":104215,"internal_node_id":"0.0-4.0"},{"rt":82929,"responses":"{\"pregunta4\":\"d) Presentar positivamente las diversas tendencias del diseño de interiores a través de un comentario.\"}","question_order":"[0]","trial_type":"survey-multi-choice","trial_index":5,"time_elapsed":187148,"internal_node_id":"0.0-5.0-0.0"},{"rt":4860,"response":{"pregunta4 likert":1},"question_order":[0],"trial_type":"survey-likert","trial_index":6,"time_elapsed":192013,"internal_node_id":"0.0-5.0-1.0"},{"rt":97341,"responses":"{\"pregunta15\":\"d) La publicidad ejerce una influencia positiva sobre la sociedad.\"}","question_order":"[0]","trial_type":"survey-multi-choice","trial_index":7,"time_elapsed":289357,"internal_node_id":"0.0-5.0-2.0"},{"rt":1904,"response":{"pregunta15 likert":1},"question_order":[0],"trial_type":"survey-likert","trial_index":8,"time_elapsed":291263,"internal_node_id":"0.0-5.0-3.0"},{"rt":86456.99999999994,"responses":"{\"pregunta17\":\"e) El TLC causará una completa transformación de la economía chilena.\"}","question_order":"[0]","trial_type":"survey-multi-choice","trial_index":9,"time_elapsed":377723,"internal_node_id":"0.0-5.0-4.0"},{"rt":2942,"response":{"pregunta17 likert":2},"question_order":[0],"trial_type":"survey-likert","trial_index":10,"time_elapsed":380668,"internal_node_id":"0.0-5.0-5.0"},{"rt":94512.00000000006,"responses":"{\"pregunta18\":\"b) Se necesita un marco legal para delimitar lo público y lo privado en materia informativa.\"}","question_order":"[0]","trial_type":"survey-multi-choice","trial_index":11,"time_elapsed":475182,"internal_node_id":"0.0-5.0-6.0"},{"rt":2555,"response":{"pregunta18 likert":1},"question_order":[0],"trial_type":"survey-likert","trial_index":12,"time_elapsed":477741,"internal_node_id":"0.0-5.0-7.0"},{"rt":148107,"responses":"{\"pregunta1\":\"e) Muestran las opiniones expuestas por los personajes en un relato.\"}","question_order":"[0]","trial_type":"survey-multi-choice","trial_index":13,"time_elapsed":692846,"internal_node_id":"0.0-5.0-8.0"},{"rt":1479,"response":{"pregunta1 likert":1},"question_order":[0],"trial_type":"survey-likert","trial_index":14,"time_elapsed":694336,"internal_node_id":"0.0-5.0-9.0"},{"rt":64091,"responses":"{\"pregunta2\":\"e) A la relación entre hechos capitales y parámetros del pensamiento.\"}","question_order":"[0]","trial_type":"survey-multi-choice","trial_index":15,"time_elapsed":758408,"internal_node_id":"0.0-5.0-10.0"},{"rt":1669,"response":{"pregunta2 likert":1},"question_order":[0],"trial_type":"survey-likert","trial_index":16,"time_elapsed":760081,"internal_node_id":"0.0-5.0-11.0"},{"rt":44059,"responses":"{\"pregunta12\":\"b) a partir de la manipulación del núcleo se han creado elementos químicos naturales.\"}","question_order":"[0]","trial_type":"survey-multi-choice","trial_index":17,"time_elapsed":804137,"internal_node_id":"0.0-5.0-12.0"},{"rt":1589,"response":{"pregunta12 likert":1},"question_order":[0],"trial_type":"survey-likert","trial_index":18,"time_elapsed":805730,"internal_node_id":"0.0-5.0-13.0"},{"rt":58749,"responses":"{\"pregunta6\":\"a) un recuerdo nostálgico.\"}","question_order":"[0]","trial_type":"survey-multi-choice","trial_index":19,"time_elapsed":864482,"internal_node_id":"0.0-5.0-14.0"},{"rt":2047.0000000001164,"response":{"pregunta6 likert":1},"question_order":[0],"trial_type":"survey-likert","trial_index":20,"time_elapsed":866532,"internal_node_id":"0.0-5.0-15.0"},{"rt":151064,"responses":"{\"pregunta8\":\"d) Provocar el deseo de la adquisición vertiginosa.\"}","question_order":"[0]","trial_type":"survey-multi-choice","trial_index":21,"time_elapsed":1017596,"internal_node_id":"0.0-5.0-16.0"},{"rt":1728,"response":{"pregunta8 likert":1},"question_order":[0],"trial_type":"survey-likert","trial_index":22,"time_elapsed":1019327,"internal_node_id":"0.0-5.0-17.0"},{"rt":58710,"responses":"{\"pregunta20\":\"b) para el mexicano, la muerte es cotidiana.\"}","question_order":"[0]","trial_type":"survey-multi-choice","trial_index":23,"time_elapsed":1078041,"internal_node_id":"0.0-5.0-18.0"},{"rt":5130,"response":{"pregunta20 likert":2},"question_order":[0],"trial_type":"survey-likert","trial_index":24,"time_elapsed":1083171,"internal_node_id":"0.0-5.0-19.0"},{"rt":126427,"responses":"{\"pregunta11\":\"e) el mejor emperador es el que está muerto.\"}","question_order":"[0]","trial_type":"survey-multi-choice","trial_index":25,"time_elapsed":1209604,"internal_node_id":"0.0-5.0-20.0"},{"rt":2378,"response":{"pregunta11 likert":2},"question_order":[0],"trial_type":"survey-likert","trial_index":26,"time_elapsed":1211985,"internal_node_id":"0.0-5.0-21.0"},{"rt":209240,"responses":"{\"pregunta14\":\"b) A la inexistencia de un recinto adecuado para el recital.\"}","question_order":"[0]","trial_type":"survey-multi-choice","trial_index":27,"time_elapsed":1421226,"internal_node_id":"0.0-5.0-22.0"},{"rt":3097,"response":{"pregunta14 likert":2},"question_order":[0],"trial_type":"survey-likert","trial_index":28,"time_elapsed":1424326,"internal_node_id":"0.0-5.0-23.0"},{"rt":127145.99999999977,"responses":"{\"pregunta19\":\"a) la Muerte acostumbraba a aparecer en Ispahán.\"}","question_order":"[0]","trial_type":"survey-multi-choice","trial_index":29,"time_elapsed":1551476,"internal_node_id":"0.0-5.0-24.0"},{"rt":1456,"response":{"pregunta19 likert":0},"question_order":[0],"trial_type":"survey-likert","trial_index":30,"time_elapsed":1552937,"internal_node_id":"0.0-5.0-25.0"},{"rt":35993.00000000023,"responses":"{\"pregunta10\":\"c) A la conveniencia de no postergar el descanso personal.\"}","question_order":"[0]","trial_type":"survey-multi-choice","trial_index":31,"time_elapsed":1588937,"internal_node_id":"0.0-5.0-26.0"},{"rt":2805.000000000233,"response":{"pregunta10 likert":0},"question_order":[0],"trial_type":"survey-likert","trial_index":32,"time_elapsed":1591752,"internal_node_id":"0.0-5.0-27.0"},{"rt":450055,"responses":"{\"pregunta3\":\"b) La escritura plasma los mejores momentos de los viajes.\"}","question_order":"[0]","trial_type":"survey-multi-choice","trial_index":33,"time_elapsed":3273727,"internal_node_id":"0.0-5.0-28.0"},{"rt":1729.0000000002328,"response":{"pregunta3 likert":1},"question_order":[0],"trial_type":"survey-likert","trial_index":34,"time_elapsed":3275473,"internal_node_id":"0.0-5.0-29.0"},{"rt":29000,"responses":"{\"pregunta5\":\"c) El ser humano se comporta de acuerdo con las circunstancias.\"}","question_order":"[0]","trial_type":"survey-multi-choice","trial_index":35,"time_elapsed":3304477,"internal_node_id":"0.0-5.0-30.0"},{"rt":1401,"response":{"pregunta5 likert":1},"question_order":[0],"trial_type":"survey-likert","trial_index":36,"time_elapsed":3305883,"internal_node_id":"0.0-5.0-31.0"},{"rt":27753,"responses":"{\"pregunta13\":\"d) Por el riesgo que corren diariamente, los bomberos deberían tener mejores condiciones de seguridad.\"}","question_order":"[0]","trial_type":"survey-multi-choice","trial_index":37,"time_elapsed":3333640,"internal_node_id":"0.0-5.0-32.0"},{"rt":1611.9999999997672,"response":{"pregunta13 likert":1},"question_order":[0],"trial_type":"survey-likert","trial_index":38,"time_elapsed":3335257,"internal_node_id":"0.0-5.0-33.0"},{"rt":75773,"responses":"{\"pregunta16\":\"a) sufren dolores de espalda.\"}","question_order":"[0]","trial_type":"survey-multi-choice","trial_index":39,"time_elapsed":3411034,"internal_node_id":"0.0-5.0-34.0"},{"rt":2136,"response":{"pregunta16 likert":2},"question_order":[0],"trial_type":"survey-likert","trial_index":40,"time_elapsed":3413175,"internal_node_id":"0.0-5.0-35.0"},{"rt":52484,"responses":"{\"pregunta9\":\"d) Homenajear a quienes murieron.\"}","question_order":"[0]","trial_type":"survey-multi-choice","trial_index":41,"time_elapsed":3465663,"internal_node_id":"0.0-5.0-36.0"},{"rt":1587,"response":{"pregunta9 likert":0},"question_order":[0],"trial_type":"survey-likert","trial_index":42,"time_elapsed":3467255,"internal_node_id":"0.0-5.0-37.0"},{"rt":37660,"responses":"{\"pregunta7\":\"d) ritualistas y obsesivos.\"}","question_order":"[0]","trial_type":"survey-multi-choice","trial_index":43,"time_elapsed":3504918,"internal_node_id":"0.0-5.0-38.0"},{"rt":1962,"response":{"pregunta7 likert":2},"question_order":[0],"trial_type":"survey-likert","trial_index":44,"time_elapsed":3506884,"internal_node_id":"0.0-5.0-39.0"},{"rt":1703,"stimulus":"<p style=\"font-size: 120%\">Gracias por completar esta etapa del estudio. Ahora te invitamos a responder el cuestionario.<br><br></p>","response":0,"trial_type":"html-button-response","trial_index":45,"time_elapsed":3508629,"internal_node_id":"0.0-6.0"},{"rt":26684,"stimulus":"<h1 style=\"margin-top: 5%\">Cuestionario para la Evaluación de Metas Académicas</h1><p style=\"font-size: 120%; margin-left: 3%; margin-top: 5%\">Este es un cuestionario que permite conocer cuáles son los principales motivos por los que los estudiantes se esfuerzan en su trabajo académico. A continuación, se te presentarán una serie de afirmaciones acerca de los motivos que puedes tener para estudiar.<br>Te pedimos que contestes a dichas afirmaciones reflexionando sobre el contenido de cada una de ellas, que, aunque te parezcan semejantes, en realidad, no lo son.<br>NO HAY RESPUESTAS CORRECTAS o INCORRECTAS, sólo queremos que respondas con la mayor precisión y sinceridad posible a las preguntas que se plantean.","response":0,"trial_type":"html-button-response","trial_index":46,"time_elapsed":3535316,"internal_node_id":"0.0-7.0"},{"rt":148640,"response":{"Metas cuestionario pregunta1":2,"Metas cuestionario pregunta2":2,"Metas cuestionario pregunta3":3,"Metas cuestionario pregunta4":3,"Metas cuestionario pregunta5":2,"Metas cuestionario pregunta6":2,"Metas cuestionario pregunta7":2,"Metas cuestionario pregunta8":2,"Metas cuestionario pregunta9":1,"Metas cuestionario pregunta10":1,"Metas cuestionario pregunta11":1,"Metas cuestionario pregunta12":1,"Metas cuestionario pregunta13":0,"Metas cuestionario pregunta14":0,"Metas cuestionario pregunta15":3,"Metas cuestionario pregunta16":2,"Metas cuestionario pregunta17":2,"Metas cuestionario pregunta18":3,"Metas cuestionario pregunta19":4,"Metas cuestionario pregunta20":4},"question_order":[0,1,2,3,4,5,6,7,8,9,10,11,12,13,14,15,16,17,18,19],"trial_type":"survey-likert","trial_index":47,"time_elapsed":3683974,"internal_node_id":"0.0-8.0"},{"rt":2543,"stimulus":"<p style=\"font-size: 120%\">Gracias por responder el cuestionario. Ahora te invitamos a seguir con el juego, que es muy breve.<br><br></p>","response":0,"trial_type":"html-button-response","trial_index":48,"time_elapsed":3686521,"internal_node_id":"0.0-9.0"},{"rt":7589,"stimulus":"<h1>Juego</h1><p style=\"font-size: 120%;\">A continuación se te presentarán 16 pequeñas historias.<br>Por favor lee el texto presentado en cada una de ellas y luego haz click en el objeto de tu elección.<br>Si estás listo(a),<span style=\"color:red;\"> haz click en \"comenzar\"</span>.</p>","response":0,"trial_type":"html-button-response","trial_index":49,"time_elapsed":3694112,"internal_node_id":"0.0-10.0"},{"rt":12677,"grid":[[1,1,1,1,1]],"target":[0,0],"response":[0,2],"correct":false,"juego":1,"trial_type":"serial-reaction-time-mouse","trial_index":50,"time_elapsed":3706797,"internal_node_id":"0.0-11.0-0.0"},{"rt":3984,"grid":[[1],[1],[1],[1],[1]],"target":[0,0],"response":[3,0],"correct":false,"juego":4,"trial_type":"serial-reaction-time-mouse","trial_index":51,"time_elapsed":3710785,"internal_node_id":"0.0-11.0-1.0"},{"rt":7178.000000000466,"grid":[[1,1,1,1,1]],"target":[0,0],"response":[0,2],"correct":false,"juego":2,"trial_type":"serial-reaction-time-mouse","trial_index":52,"time_elapsed":3717967,"internal_node_id":"0.0-11.0-2.0"},{"rt":16989.999999999534,"grid":[[1,1,1],[1,1,1],[1,1,1],[1,1,1],[1,1,1],[1,1,1],[1,1,1],[1,1,1],[1,1,1],[1,1,1],[1,1,1]],"target":[0,0],"response":[7,1],"correct":false,"juego":13,"trial_type":"serial-reaction-time-mouse","trial_index":53,"time_elapsed":3734967,"internal_node_id":"0.0-11.0-3.0"},{"rt":13343,"grid":[[1,1,1,1,1]],"target":[0,0],"response":[0,2],"correct":false,"juego":3,"trial_type":"serial-reaction-time-mouse","trial_index":54,"time_elapsed":3748315,"internal_node_id":"0.0-11.0-4.0"},{"rt":12941,"grid":[[1,1,1,1,1]],"target":[0,0],"response":[0,2],"correct":false,"juego":9,"trial_type":"serial-reaction-time-mouse","trial_index":55,"time_elapsed":3761260,"internal_node_id":"0.0-11.0-5.0"},{"rt":19585,"grid":[[1,1,1],[1,1,1],[1,1,1],[1,1,1],[1,1,1],[1,1,1],[1,1,1],[1,1,1],[1,1,1],[1,1,1],[1,1,1]],"target":[0,0],"response":[1,2],"correct":false,"juego":10,"trial_type":"serial-reaction-time-mouse","trial_index":56,"time_elapsed":3780847,"internal_node_id":"0.0-11.0-6.0"},{"rt":22030.000000000466,"grid":[[1,1,1,1,1]],"target":[0,0],"response":[0,0],"correct":true,"juego":11,"trial_type":"serial-reaction-time-mouse","trial_index":57,"time_elapsed":3802880,"internal_node_id":"0.0-11.0-7.0"},{"rt":12252,"grid":[[1,1,1,1,1]],"target":[0,0],"response":[0,1],"correct":false,"juego":8,"trial_type":"serial-reaction-time-mouse","trial_index":58,"time_elapsed":3815135,"internal_node_id":"0.0-11.0-8.0"},{"rt":15694.999999999534,"grid":[[1,1,1,1,1]],"target":[0,0],"response":[0,4],"correct":false,"juego":12,"trial_type":"serial-reaction-time-mouse","trial_index":59,"time_elapsed":3830834,"internal_node_id":"0.0-11.0-9.0"},{"rt":13244,"grid":[[1,1,1],[1,1,1],[1,1,1],[1,1,1],[1,1,1],[1,1,1],[1,1,1],[1,1,1],[1,1,1],[1,1,1],[1,1,1]],"target":[0,0],"response":[3,1],"correct":false,"juego":5,"trial_type":"serial-reaction-time-mouse","trial_index":60,"time_elapsed":3844088,"internal_node_id":"0.0-11.0-10.0"},{"rt":10395,"grid":[[1,1,1,1],[1,1,1,1],[1,1,1,1],[1,1,1,1],[1,1,1,1],[1,1,1,1],[1,1,1,1],[1,1,1,1],[1,1,1,1],[1,1,1,1],[1,1,1,1]],"target":[0,0],"response":[3,2],"correct":false,"juego":14,"trial_type":"serial-reaction-time-mouse","trial_index":61,"time_elapsed":3854492,"internal_node_id":"0.0-11.0-11.0"},{"rt":6358,"grid":[[1,1,1],[1,1,1],[1,1,1],[1,1,1],[1,1,1],[1,1,1],[1,1,1],[1,1,1],[1,1,1],[1,1,1],[1,1,1]],"target":[0,0],"response":[1,1],"correct":false,"juego":6,"trial_type":"serial-reaction-time-mouse","trial_index":62,"time_elapsed":3860858,"internal_node_id":"0.0-11.0-12.0"},{"rt":7071,"grid":[[1,1,1,1,1]],"target":[0,0],"response":[0,2],"correct":false,"juego":7,"trial_type":"serial-reaction-time-mouse","trial_index":63,"time_elapsed":3867932,"internal_node_id":"0.0-11.0-13.0"},{"rt":16841,"grid":[[1,1,1,1],[1,1,1,1],[1,1,1,1],[1,1,1,1],[1,1,1,1],[1,1,1,1],[1,1,1,1],[1,1,1,1],[1,1,1,1],[1,1,1,1],[1,1,1,1]],"target":[0,0],"response":[5,2],"correct":false,"juego":15,"trial_type":"serial-reaction-time-mouse","trial_index":64,"time_elapsed":3884781,"internal_node_id":"0.0-11.0-14.0"},{"rt":6746.000000000466,"stimulus":"<h1>Último juego</h1><p style=\"font-size: 130%;\">Tienes <span style=\"color:red\">35</span> segundos para recordar los pares de palabras que aparecerán a continuación. <br></p>","response":0,"trial_type":"html-button-response","trial_index":65,"time_elapsed":3891535,"internal_node_id":"0.0-12.0"},{"animation_sequence":[{"stimulus":"imagen_juego_interferencia.jpg","time":536},{"stimulus":"imagen_juego_interferencia.jpg","time":1008},{"stimulus":"imagen_juego_interferencia.jpg","time":1509},{"stimulus":"imagen_juego_interferencia.jpg","time":2013},{"stimulus":"imagen_juego_interferencia.jpg","time":2510},{"stimulus":"imagen_juego_interferencia.jpg","time":3011},{"stimulus":"imagen_juego_interferencia.jpg","time":3512},{"stimulus":"imagen_juego_interferencia.jpg","time":4013},{"stimulus":"imagen_juego_interferencia.jpg","time":4514.000000000466},{"stimulus":"imagen_juego_interferencia.jpg","time":5015},{"stimulus":"imagen_juego_interferencia.jpg","time":5516},{"stimulus":"imagen_juego_interferencia.jpg","time":6017},{"stimulus":"imagen_juego_interferencia.jpg","time":6518},{"stimulus":"imagen_juego_interferencia.jpg","time":7019},{"stimulus":"imagen_juego_interferencia.jpg","time":7520},{"stimulus":"imagen_juego_interferencia.jpg","time":8022},{"stimulus":"imagen_juego_interferencia.jpg","time":8523},{"stimulus":"imagen_juego_interferencia.jpg","time":9024},{"stimulus":"imagen_juego_interferencia.jpg","time":9525.000000000466},{"stimulus":"imagen_juego_interferencia.jpg","time":10026},{"stimulus":"imagen_juego_interferencia.jpg","time":10527},{"stimulus":"imagen_juego_interferencia.jpg","time":11029},{"stimulus":"imagen_juego_interferencia.jpg","time":11530},{"stimulus":"imagen_juego_interferencia.jpg","time":12031},{"stimulus":"imagen_juego_interferencia.jpg","time":12532},{"stimulus":"imagen_juego_interferencia.jpg","time":13033},{"stimulus":"imagen_juego_interferencia.jpg","time":13533},{"stimulus":"imagen_juego_interferencia.jpg","time":14034.000000000466},{"stimulus":"imagen_juego_interferencia.jpg","time":14535},{"stimulus":"imagen_juego_interferencia.jpg","time":15037},{"stimulus":"imagen_juego_interferencia.jpg","time":15538},{"stimulus":"imagen_juego_interferencia.jpg","time":16039},{"stimulus":"imagen_juego_interferencia.jpg","time":16540},{"stimulus":"imagen_juego_interferencia.jpg","time":17042},{"stimulus":"imagen_juego_interferencia.jpg","time":17542},{"stimulus":"imagen_juego_interferencia.jpg","time":18043.000000000466},{"stimulus":"imagen_juego_interferencia.jpg","time":18544},{"stimulus":"imagen_juego_interferencia.jpg","time":19045},{"stimulus":"imagen_juego_interferencia.jpg","time":19546},{"stimulus":"imagen_juego_interferencia.jpg","time":20047},{"stimulus":"imagen_juego_interferencia.jpg","time":20548},{"stimulus":"imagen_juego_interferencia.jpg","time":21049},{"stimulus":"imagen_juego_interferencia.jpg","time":21550},{"stimulus":"imagen_juego_interferencia.jpg","time":22051},{"stimulus":"imagen_juego_interferencia.jpg","time":22552},{"stimulus":"imagen_juego_interferencia.jpg","time":23053},{"stimulus":"imagen_juego_interferencia.jpg","time":23554.000000000466},{"stimulus":"imagen_juego_interferencia.jpg","time":24055},{"stimulus":"imagen_juego_interferencia.jpg","time":24557},{"stimulus":"imagen_juego_interferencia.jpg","time":25058},{"stimulus":"imagen_juego_interferencia.jpg","time":25559},{"stimulus":"imagen_juego_interferencia.jpg","time":26060},{"stimulus":"imagen_juego_interferencia.jpg","time":26561},{"stimulus":"imagen_juego_interferencia.jpg","time":27062},{"stimulus":"imagen_juego_interferencia.jpg","time":27563.000000000466},{"stimulus":"imagen_juego_interferencia.jpg","time":28063.000000000466},{"stimulus":"imagen_juego_interferencia.jpg","time":28564},{"stimulus":"imagen_juego_interferencia.jpg","time":29065},{"stimulus":"imagen_juego_interferencia.jpg","time":29566},{"stimulus":"imagen_juego_interferencia.jpg","time":30066},{"stimulus":"imagen_juego_interferencia.jpg","time":30567},{"stimulus":"imagen_juego_interferencia.jpg","time":31068},{"stimulus":"imagen_juego_interferencia.jpg","time":31569},{"stimulus":"imagen_juego_interferencia.jpg","time":32071},{"stimulus":"imagen_juego_interferencia.jpg","time":32572.000000000466},{"stimulus":"imagen_juego_interferencia.jpg","time":33073},{"stimulus":"imagen_juego_interferencia.jpg","time":33574},{"stimulus":"imagen_juego_interferencia.jpg","time":34075},{"stimulus":"imagen_juego_interferencia.jpg","time":34575},{"stimulus":"imagen_juego_interferencia.jpg","time":35076}],"response":[],"trial_type":"animation","trial_index":66,"time_elapsed":3927114,"internal_node_id":"0.0-13.0"},{"rt":14903,"responses":"{\"pregunta interferencia4\":\"contador\"}","question_order":"[0]","trial_type":"survey-multi-choice-cuest","trial_index":67,"time_elapsed":3942021,"internal_node_id":"0.0-14.0-0.0"},{"rt":9303,"responses":"{\"pregunta interferencia2\":\"saltamontes\"}","question_order":"[0]","trial_type":"survey-multi-choice-cuest","trial_index":68,"time_elapsed":3951328,"internal_node_id":"0.0-14.0-1.0"},{"rt":9679.999999999534,"responses":"{\"pregunta interferencia1\":\"naranja\"}","question_order":"[0]","trial_type":"survey-multi-choice-cuest","trial_index":69,"time_elapsed":3961011,"internal_node_id":"0.0-14.0-2.0"},{"rt":8622.999999999534,"responses":"{\"pregunta interferencia3\":\"aluminio\"}","question_order":"[0]","trial_type":"survey-multi-choice-cuest","trial_index":70,"time_elapsed":3969636,"internal_node_id":"0.0-14.0-3.0"},{"success":true,"trial_type":"fullscreen","trial_index":71,"time_elapsed":3970640,"internal_node_id":"0.0-15.0"},{"rt":8962,"responses":"{\"Telefono\":\"\"}","trial_type":"survey-text","trial_index":72,"time_elapsed":3979611,"internal_node_id":"0.0-16.0"}]