[{"rt":10798.400000000373,"stimulus":"<h1 style=\"color:red; margin-top: 3%;\">¡Bienvenido(a)!</h1><p style=\"text-align:left; justify-content:space-between; margin-right: 5%; margin-left: 5%; margin-top: 5%\"> Antes de empezar el estudio, necesitamos que nos confirmes que estás de acuerdo con participar. Recuerda que tu participación es 100% voluntaria y que lo único que te pedimos es responder lo mejor que puedas. Recuerda también que el estudio incluye:</p><ol style=\"text-align:left; justify-content:space-between; margin-right: 5%; margin-left: 5%;\"><li> un ejercicio de resolución de preguntas de selección múltiple (30’),</li><li>un cuestionario breve (5’),</li><li>un juego muy breve (3’),</li></ol><p style=\"text-align:left; justify-content:space-between; margin-right: 5%; margin-left: 5%;\">Si quieres participar, haz clic en “Acepto” luego de leer lo siguiente:<br></p><p style=\"text-align:left; justify-content:space-between; margin-right: 5%; margin-left: 5%;\">Acepto participar en el estudio “Estrategias de lectura y resolución de preguntas de selección múltiple”, en los términos aquí señalados:<br></p><p style=\"text-align:left; justify-content:space-between; margin-right: 5%; margin-left: 5%;\"><a href=\"http://ciae.uchile.cl/download.php?file=noticias/Asentimiento.pdf\" target=\"_blank\">Link a la hoja de información del Consentimiento.</a></p><p style=\"text-align:left; justify-content:space-between; margin-right: 5%; margin-left: 5%;\">Declaro que he leído (o se me ha leído) y (he) comprendido, las condiciones de mi participación en este estudio. He tenido la oportunidad de hacer preguntas y éstas han sido respondidas. No tengo dudas al respecto.</p>","response":0,"condicion_MCQ":6,"condicion_JUEGO":26,"condicion_INTER":2,"numero_participante":26,"numero_version":1,"dimx":1280,"dimy":800,"color_profundidad":24,"pixel_profundidad":24,"Browser":"Google Chrome","dia":18,"mes":5,"hora":14,"minuto":18,"segundo":46,"trial_type":"html-button-response","trial_index":0,"time_elapsed":10804,"internal_node_id":"0.0-0.0"},{"success":true,"trial_type":"fullscreen","trial_index":1,"time_elapsed":18857,"internal_node_id":"0.0-1.0"},{"rt":118091.90000000037,"responses":"{\"Nombres\":\"Tomás Alberto\",\"Apellidos\":\"Domínguez Valdés\",\"Edad\":\"18\",\"Sexo\":\"Hombre\",\"Curso\":\"Sección 201\",\"Colegio\":\"Universidad\",\"Contacto\":\"tomasdominguezvaldes@gmail.com\"}","trial_type":"survey-text","trial_index":2,"time_elapsed":136955,"internal_node_id":"0.0-2.0"},{"success":true,"timeout":false,"failed_images":[],"failed_audio":[],"failed_video":[],"trial_type":"preload","trial_index":3,"time_elapsed":137882,"internal_node_id":"0.0-3.0"},{"rt":8506.299999998882,"stimulus":"<h1 style:\"margin-top: 5%;\">Ejercicios de Comprensión de Lectura de la Universidad de Chile</h1><p style=\"font-size: 120%;\">En esta actividad, debes responder 20 preguntas de selección múltiple. Cada pregunta presenta 5 respuestas alternativas, pero sólo una de ellas es correcta. Por lo tanto, debes escoger una sola alternativa para cada pregunta. Además, debes reportar qué tan seguro(a) estás de la respuesta que das, con un:</p><ol style=\"font-size: 120%;text-align:left;margin-left: 40%;\"><li>No estoy seguro(a) para nada</li><li>No estoy muy seguro(a)</li><li>Estoy bastante seguro(a)</li><li>Estoy totalmente seguro(a)</li></ol><p style=\"font-size: 120%;\">Por favor lee bien los enunciados antes de responder. ¡Éxito!</p>","response":0,"trial_type":"html-button-response","trial_index":4,"time_elapsed":146390,"internal_node_id":"0.0-4.0"},{"rt":40070.79999999888,"responses":"{\"pregunta7\":\"c) ritualistas y obsesivos.\"}","question_order":"[0]","trial_type":"survey-multi-choice","trial_index":5,"time_elapsed":186463,"internal_node_id":"0.0-5.0-0.0"},{"rt":3906.60000000149,"response":{"pregunta7 likert":2},"question_order":[0],"trial_type":"survey-likert","trial_index":6,"time_elapsed":190372,"internal_node_id":"0.0-5.0-1.0"},{"rt":39420.20000000112,"responses":"{\"pregunta17\":\"a) Nuestra economía vivirá un proceso de ajuste a la nueva realidad.\"}","question_order":"[0]","trial_type":"survey-multi-choice","trial_index":7,"time_elapsed":229794,"internal_node_id":"0.0-5.0-2.0"},{"rt":1777.5,"response":{"pregunta17 likert":2},"question_order":[0],"trial_type":"survey-likert","trial_index":8,"time_elapsed":231574,"internal_node_id":"0.0-5.0-3.0"},{"rt":46620.40000000037,"responses":"{\"pregunta2\":\"d) A la relación entre sociedad y constitución social.\"}","question_order":"[0]","trial_type":"survey-multi-choice","trial_index":9,"time_elapsed":278195,"internal_node_id":"0.0-5.0-4.0"},{"rt":1981.800000000745,"response":{"pregunta2 likert":3},"question_order":[0],"trial_type":"survey-likert","trial_index":10,"time_elapsed":280179,"internal_node_id":"0.0-5.0-5.0"},{"rt":52550.800000000745,"responses":"{\"pregunta8\":\"d) Provocar el deseo de la adquisición vertiginosa.\"}","question_order":"[0]","trial_type":"survey-multi-choice","trial_index":11,"time_elapsed":332731,"internal_node_id":"0.0-5.0-6.0"},{"rt":3091.699999999255,"response":{"pregunta8 likert":3},"question_order":[0],"trial_type":"survey-likert","trial_index":12,"time_elapsed":335825,"internal_node_id":"0.0-5.0-7.0"},{"rt":43289.79999999702,"responses":"{\"pregunta14\":\"e) A la influencia de grupos que rechazaban su música.\"}","question_order":"[0]","trial_type":"survey-multi-choice","trial_index":13,"time_elapsed":379117,"internal_node_id":"0.0-5.0-8.0"},{"rt":2656.199999999255,"response":{"pregunta14 likert":2},"question_order":[0],"trial_type":"survey-likert","trial_index":14,"time_elapsed":381776,"internal_node_id":"0.0-5.0-9.0"},{"rt":19338.699999999255,"responses":"{\"pregunta13\":\"e) Bomberos debería tener acceso a un seguro médico, al que pueda recurrir en caso de accidente.\"}","question_order":"[0]","trial_type":"survey-multi-choice","trial_index":15,"time_elapsed":401117,"internal_node_id":"0.0-5.0-10.0"},{"rt":1743,"response":{"pregunta13 likert":3},"question_order":[0],"trial_type":"survey-likert","trial_index":16,"time_elapsed":402863,"internal_node_id":"0.0-5.0-11.0"},{"rt":40910.199999999255,"responses":"{\"pregunta10\":\"d) Al premio merecido después de tantos esfuerzos.\"}","question_order":"[0]","trial_type":"survey-multi-choice","trial_index":17,"time_elapsed":443774,"internal_node_id":"0.0-5.0-12.0"},{"rt":2774.300000000745,"response":{"pregunta10 likert":3},"question_order":[0],"trial_type":"survey-likert","trial_index":18,"time_elapsed":446550,"internal_node_id":"0.0-5.0-13.0"},{"rt":14603.099999997765,"responses":"{\"pregunta9\":\"d) Homenajear a quienes murieron.\"}","question_order":"[0]","trial_type":"survey-multi-choice","trial_index":19,"time_elapsed":461155,"internal_node_id":"0.0-5.0-14.0"},{"rt":1682.5999999977648,"response":{"pregunta9 likert":3},"question_order":[0],"trial_type":"survey-likert","trial_index":20,"time_elapsed":462841,"internal_node_id":"0.0-5.0-15.0"},{"rt":52497.099999997765,"responses":"{\"pregunta5\":\"c) El ser humano se comporta de acuerdo con las circunstancias.\"}","question_order":"[0]","trial_type":"survey-multi-choice","trial_index":21,"time_elapsed":515339,"internal_node_id":"0.0-5.0-16.0"},{"rt":2512.099999997765,"response":{"pregunta5 likert":2},"question_order":[0],"trial_type":"survey-likert","trial_index":22,"time_elapsed":517853,"internal_node_id":"0.0-5.0-17.0"},{"rt":97171.80000000075,"responses":"{\"pregunta16\":\"c) tienen mayores niveles de relaxín.\"}","question_order":"[0]","trial_type":"survey-multi-choice","trial_index":23,"time_elapsed":615025,"internal_node_id":"0.0-5.0-18.0"},{"rt":2279.900000002235,"response":{"pregunta16 likert":1},"question_order":[0],"trial_type":"survey-likert","trial_index":24,"time_elapsed":617308,"internal_node_id":"0.0-5.0-19.0"},{"rt":106376.19999999925,"responses":"{\"pregunta12\":\"a) la creación de elementos químicos artificiales ha resultado de la manipulación del uranio.\"}","question_order":"[0]","trial_type":"survey-multi-choice","trial_index":25,"time_elapsed":723684,"internal_node_id":"0.0-5.0-20.0"},{"rt":1545.5,"response":{"pregunta12 likert":2},"question_order":[0],"trial_type":"survey-likert","trial_index":26,"time_elapsed":725232,"internal_node_id":"0.0-5.0-21.0"},{"rt":46514,"responses":"{\"pregunta19\":\"a) el jardinero estará muerto al día siguiente.\"}","question_order":"[0]","trial_type":"survey-multi-choice","trial_index":27,"time_elapsed":771747,"internal_node_id":"0.0-5.0-22.0"},{"rt":2541.60000000149,"response":{"pregunta19 likert":2},"question_order":[0],"trial_type":"survey-likert","trial_index":28,"time_elapsed":774291,"internal_node_id":"0.0-5.0-23.0"},{"rt":60226.89999999851,"responses":"{\"pregunta20\":\"a) la muerte es distinta en las grandes ciudades.\"}","question_order":"[0]","trial_type":"survey-multi-choice","trial_index":29,"time_elapsed":834519,"internal_node_id":"0.0-5.0-24.0"},{"rt":1577,"response":{"pregunta20 likert":2},"question_order":[0],"trial_type":"survey-likert","trial_index":30,"time_elapsed":836099,"internal_node_id":"0.0-5.0-25.0"},{"rt":41134.70000000298,"responses":"{\"pregunta15\":\"e) El receptor es habitualmente pasivo frente a la publicidad.\"}","question_order":"[0]","trial_type":"survey-multi-choice","trial_index":31,"time_elapsed":877235,"internal_node_id":"0.0-5.0-26.0"},{"rt":1804,"response":{"pregunta15 likert":2},"question_order":[0],"trial_type":"survey-likert","trial_index":32,"time_elapsed":879041,"internal_node_id":"0.0-5.0-27.0"},{"rt":104880,"responses":"{\"pregunta4\":\"c) Promover la asistencia a un evento específico de decoración a través de una atractiva descripción.\"}","question_order":"[0]","trial_type":"survey-multi-choice","trial_index":33,"time_elapsed":983920,"internal_node_id":"0.0-5.0-28.0"},{"rt":1358.800000000745,"response":{"pregunta4 likert":2},"question_order":[0],"trial_type":"survey-likert","trial_index":34,"time_elapsed":985281,"internal_node_id":"0.0-5.0-29.0"},{"rt":127356.5,"responses":"{\"pregunta6\":\"a) un conjunto de imágenes de recuerdos gratos.\"}","question_order":"[0]","trial_type":"survey-multi-choice","trial_index":35,"time_elapsed":1112636,"internal_node_id":"0.0-5.0-30.0"},{"rt":2009.1000000014901,"response":{"pregunta6 likert":2},"question_order":[0],"trial_type":"survey-likert","trial_index":36,"time_elapsed":1114648,"internal_node_id":"0.0-5.0-31.0"},{"rt":64759.699999999255,"responses":"{\"pregunta18\":\"a) Se necesita un marco legal para delimitar lo público y lo privado en materia informativa.\"}","question_order":"[0]","trial_type":"survey-multi-choice","trial_index":37,"time_elapsed":1179409,"internal_node_id":"0.0-5.0-32.0"},{"rt":1752.9000000022352,"response":{"pregunta18 likert":2},"question_order":[0],"trial_type":"survey-likert","trial_index":38,"time_elapsed":1181164,"internal_node_id":"0.0-5.0-33.0"},{"rt":126528.09999999776,"responses":"{\"pregunta3\":\"e) La escritura plasma los mejores momentos de los viajes.\"}","question_order":"[0]","trial_type":"survey-multi-choice","trial_index":39,"time_elapsed":1307692,"internal_node_id":"0.0-5.0-34.0"},{"rt":1664.5,"response":{"pregunta3 likert":3},"question_order":[0],"trial_type":"survey-likert","trial_index":40,"time_elapsed":1309359,"internal_node_id":"0.0-5.0-35.0"},{"rt":39757.900000002235,"responses":"{\"pregunta1\":\"b) Aportan informaciones con las que se reconstruye el personaje dentro de un relato.\"}","question_order":"[0]","trial_type":"survey-multi-choice","trial_index":41,"time_elapsed":1349118,"internal_node_id":"0.0-5.0-36.0"},{"rt":1450.0999999977648,"response":{"pregunta1 likert":3},"question_order":[0],"trial_type":"survey-likert","trial_index":42,"time_elapsed":1350570,"internal_node_id":"0.0-5.0-37.0"},{"rt":37478.60000000149,"responses":"{\"pregunta11\":\"d) el mejor emperador es el que está muerto.\"}","question_order":"[0]","trial_type":"survey-multi-choice","trial_index":43,"time_elapsed":1388051,"internal_node_id":"0.0-5.0-38.0"},{"rt":1827,"response":{"pregunta11 likert":2},"question_order":[0],"trial_type":"survey-likert","trial_index":44,"time_elapsed":1389881,"internal_node_id":"0.0-5.0-39.0"}]