[{"rt":13060.399999976158,"stimulus":"<h1 style=\"color:red; margin-top: 3%;\">¡Bienvenido(a)!</h1><p style=\"text-align:left; justify-content:space-between; margin-right: 5%; margin-left: 5%; margin-top: 5%\"> Antes de empezar el estudio, necesitamos que nos confirmes que estás de acuerdo con participar. Recuerda que tu participación es 100% voluntaria y que lo único que te pedimos es responder lo mejor que puedas. Recuerda también que el estudio incluye:</p><ol style=\"text-align:left; justify-content:space-between; margin-right: 5%; margin-left: 5%;\"><li> un ejercicio de resolución de preguntas de selección múltiple (30’),</li><li>un cuestionario breve (5’),</li><li>un juego muy breve (3’),</li></ol><p style=\"text-align:left; justify-content:space-between; margin-right: 5%; margin-left: 5%;\">Si quieres participar, haz clic en “Acepto” luego de leer lo siguiente:<br></p><p style=\"text-align:left; justify-content:space-between; margin-right: 5%; margin-left: 5%;\">Acepto participar en el estudio “Estrategias de lectura y resolución de preguntas de selección múltiple”, en los términos aquí señalados:<br></p><p style=\"text-align:left; justify-content:space-between; margin-right: 5%; margin-left: 5%;\"><a href=\"http://ciae.uchile.cl/download.php?file=noticias/Asentimiento.pdf\" target=\"_blank\">Link a la hoja de información del Consentimiento.</a></p><p style=\"text-align:left; justify-content:space-between; margin-right: 5%; margin-left: 5%;\">Declaro que he leído (o se me ha leído) y (he) comprendido, las condiciones de mi participación en este estudio. He tenido la oportunidad de hacer preguntas y éstas han sido respondidas. No tengo dudas al respecto.</p>","response":0,"condicion_MCQ":7,"condicion_JUEGO":67,"condicion_INTER":19,"numero_participante":67,"numero_version":1,"dimx":1366,"dimy":768,"color_profundidad":24,"pixel_profundidad":24,"Browser":"Google Chrome","dia":22,"mes":5,"hora":16,"minuto":3,"segundo":6,"trial_type":"html-button-response","trial_index":0,"time_elapsed":13064,"internal_node_id":"0.0-0.0"},{"success":true,"trial_type":"fullscreen","trial_index":1,"time_elapsed":17263,"internal_node_id":"0.0-1.0"},{"rt":471229.5,"responses":"{\"Nombres\":\"Daniela\",\"Apellidos\":\"Poza Concha\",\"Edad\":\"23\",\"Sexo\":\"Mujer\",\"Curso\":\"seccion 101\",\"Colegio\":\"universidad andres bello \",\"Contacto\":\"d.pozaconcha@uandresbello.edu\"}","trial_type":"survey-text","trial_index":2,"time_elapsed":488502,"internal_node_id":"0.0-2.0"},{"success":true,"timeout":false,"failed_images":[],"failed_audio":[],"failed_video":[],"trial_type":"preload","trial_index":3,"time_elapsed":490660,"internal_node_id":"0.0-3.0"},{"rt":6651.800000011921,"stimulus":"<h1 style:\"margin-top: 5%;\">Ejercicios de Comprensión de Lectura de la Universidad de Chile</h1><p style=\"font-size: 120%;\">En esta actividad, debes responder 20 preguntas de selección múltiple. Cada pregunta presenta 5 respuestas alternativas, pero sólo una de ellas es correcta. Por lo tanto, debes escoger una sola alternativa para cada pregunta. Además, debes reportar qué tan seguro(a) estás de la respuesta que das, con un:</p><ol style=\"font-size: 120%;text-align:left;margin-left: 40%;\"><li>No estoy seguro(a) para nada</li><li>No estoy muy seguro(a)</li><li>Estoy bastante seguro(a)</li><li>Estoy totalmente seguro(a)</li></ol><p style=\"font-size: 120%;\">Por favor lee bien los enunciados antes de responder. ¡Éxito!</p>","response":0,"trial_type":"html-button-response","trial_index":4,"time_elapsed":497313,"internal_node_id":"0.0-4.0"},{"rt":79438.80000001192,"responses":"{\"pregunta1\":\"c) Entregan una característica detallada del personaje, a través de la voz narrativa.\"}","question_order":"[0]","trial_type":"survey-multi-choice","trial_index":5,"time_elapsed":576754,"internal_node_id":"0.0-5.0-0.0"},{"rt":5514.099999964237,"response":{"pregunta1 likert":2},"question_order":[0],"trial_type":"survey-likert","trial_index":6,"time_elapsed":582270,"internal_node_id":"0.0-5.0-1.0"},{"rt":177175.60000002384,"responses":"{\"pregunta9\":\"c) Atraer a los turistas.\"}","question_order":"[0]","trial_type":"survey-multi-choice","trial_index":7,"time_elapsed":759448,"internal_node_id":"0.0-5.0-2.0"},{"rt":2350.5,"response":{"pregunta9 likert":2},"question_order":[0],"trial_type":"survey-likert","trial_index":8,"time_elapsed":761801,"internal_node_id":"0.0-5.0-3.0"},{"rt":109017.30000001192,"responses":"{\"pregunta19\":\"a) la Muerte vaticina el futuro mediante gestos.\"}","question_order":"[0]","trial_type":"survey-multi-choice","trial_index":9,"time_elapsed":870820,"internal_node_id":"0.0-5.0-4.0"},{"rt":2231.5,"response":{"pregunta19 likert":2},"question_order":[0],"trial_type":"survey-likert","trial_index":10,"time_elapsed":873054,"internal_node_id":"0.0-5.0-5.0"},{"rt":191054.40000003576,"responses":"{\"pregunta4\":\"b) Presentar positivamente las diversas tendencias del diseño de interiores a través de un comentario.\"}","question_order":"[0]","trial_type":"survey-multi-choice","trial_index":11,"time_elapsed":1064111,"internal_node_id":"0.0-5.0-6.0"},{"rt":4214.600000023842,"response":{"pregunta4 likert":2},"question_order":[0],"trial_type":"survey-likert","trial_index":12,"time_elapsed":1068328,"internal_node_id":"0.0-5.0-7.0"},{"rt":93047.19999998808,"responses":"{\"pregunta13\":\"e) Bomberos debería tener acceso a un seguro médico, al que pueda recurrir en caso de accidente.\"}","question_order":"[0]","trial_type":"survey-multi-choice","trial_index":13,"time_elapsed":1161378,"internal_node_id":"0.0-5.0-8.0"},{"rt":79675.89999997616,"response":{"pregunta13 likert":2},"question_order":[0],"trial_type":"survey-likert","trial_index":14,"time_elapsed":1241056,"internal_node_id":"0.0-5.0-9.0"},{"rt":143268.10000002384,"responses":"{\"pregunta16\":\"c) llevan un control grupal de su embarazo.\"}","question_order":"[0]","trial_type":"survey-multi-choice","trial_index":15,"time_elapsed":1384326,"internal_node_id":"0.0-5.0-10.0"},{"rt":3186.5,"response":{"pregunta16 likert":2},"question_order":[0],"trial_type":"survey-likert","trial_index":16,"time_elapsed":1387515,"internal_node_id":"0.0-5.0-11.0"},{"rt":106888.19999998808,"responses":"{\"pregunta6\":\"d) la persistencia de la melancolía y la desesperanza.\"}","question_order":"[0]","trial_type":"survey-multi-choice","trial_index":17,"time_elapsed":1494405,"internal_node_id":"0.0-5.0-12.0"},{"rt":3837.300000011921,"response":{"pregunta6 likert":1},"question_order":[0],"trial_type":"survey-likert","trial_index":18,"time_elapsed":1498244,"internal_node_id":"0.0-5.0-13.0"},{"rt":83125.30000001192,"responses":"{\"pregunta2\":\"b) A la relación entre pensamiento y estructura social.\"}","question_order":"[0]","trial_type":"survey-multi-choice","trial_index":19,"time_elapsed":1581370,"internal_node_id":"0.0-5.0-14.0"},{"rt":3725,"response":{"pregunta2 likert":2},"question_order":[0],"trial_type":"survey-likert","trial_index":20,"time_elapsed":1585097,"internal_node_id":"0.0-5.0-15.0"},{"rt":113394.30000001192,"responses":"{\"pregunta17\":\"d) El TLC causará una completa transformación de la economía chilena.\"}","question_order":"[0]","trial_type":"survey-multi-choice","trial_index":21,"time_elapsed":1698494,"internal_node_id":"0.0-5.0-16.0"},{"rt":2543.900000035763,"response":{"pregunta17 likert":2},"question_order":[0],"trial_type":"survey-likert","trial_index":22,"time_elapsed":1701039,"internal_node_id":"0.0-5.0-17.0"},{"rt":100947.80000001192,"responses":"{\"pregunta14\":\"a) A la negligencia de la empresa que los traía a Chile.\"}","question_order":"[0]","trial_type":"survey-multi-choice","trial_index":23,"time_elapsed":1801989,"internal_node_id":"0.0-5.0-18.0"},{"rt":2884.199999988079,"response":{"pregunta14 likert":2},"question_order":[0],"trial_type":"survey-likert","trial_index":24,"time_elapsed":1804875,"internal_node_id":"0.0-5.0-19.0"},{"rt":179238.19999998808,"responses":"{\"pregunta18\":\"a) Se necesita un marco legal para delimitar lo público y lo privado en materia informativa.\"}","question_order":"[0]","trial_type":"survey-multi-choice","trial_index":25,"time_elapsed":1984114,"internal_node_id":"0.0-5.0-20.0"},{"rt":3857,"response":{"pregunta18 likert":2},"question_order":[0],"trial_type":"survey-likert","trial_index":26,"time_elapsed":1987973,"internal_node_id":"0.0-5.0-21.0"},{"rt":150951.10000002384,"responses":"{\"pregunta3\":\"c) Los momentos triviales de los viajes, en la escritura se vuelven significativos.\"}","question_order":"[0]","trial_type":"survey-multi-choice","trial_index":27,"time_elapsed":2138927,"internal_node_id":"0.0-5.0-22.0"},{"rt":4942.099999964237,"response":{"pregunta3 likert":2},"question_order":[0],"trial_type":"survey-likert","trial_index":28,"time_elapsed":2143871,"internal_node_id":"0.0-5.0-23.0"},{"rt":109419.70000004768,"responses":"{\"pregunta11\":\"b) la prosperidad del imperio se debió al Primer Ministro.\"}","question_order":"[0]","trial_type":"survey-multi-choice","trial_index":29,"time_elapsed":2253293,"internal_node_id":"0.0-5.0-24.0"},{"rt":3126.099999964237,"response":{"pregunta11 likert":2},"question_order":[0],"trial_type":"survey-likert","trial_index":30,"time_elapsed":2256421,"internal_node_id":"0.0-5.0-25.0"},{"rt":58741.30000001192,"responses":"{\"pregunta7\":\"d) ritualistas y obsesivos.\"}","question_order":"[0]","trial_type":"survey-multi-choice","trial_index":31,"time_elapsed":2315164,"internal_node_id":"0.0-5.0-26.0"},{"rt":2466.100000023842,"response":{"pregunta7 likert":2},"question_order":[0],"trial_type":"survey-likert","trial_index":32,"time_elapsed":2317632,"internal_node_id":"0.0-5.0-27.0"},{"rt":289637.60000002384,"responses":"{\"pregunta12\":\"b) la creación de elementos químicos artificiales ha resultado de la manipulación del uranio.\"}","question_order":"[0]","trial_type":"survey-multi-choice","trial_index":33,"time_elapsed":2607272,"internal_node_id":"0.0-5.0-28.0"},{"rt":2589,"response":{"pregunta12 likert":2},"question_order":[0],"trial_type":"survey-likert","trial_index":34,"time_elapsed":2609863,"internal_node_id":"0.0-5.0-29.0"},{"rt":473043.39999997616,"responses":"{\"pregunta8\":\"d) Provocar el deseo de la adquisición vertiginosa.\"}","question_order":"[0]","trial_type":"survey-multi-choice","trial_index":35,"time_elapsed":3082908,"internal_node_id":"0.0-5.0-30.0"},{"rt":3053.900000035763,"response":{"pregunta8 likert":2},"question_order":[0],"trial_type":"survey-likert","trial_index":36,"time_elapsed":3085963,"internal_node_id":"0.0-5.0-31.0"},{"rt":66116.80000001192,"responses":"{\"pregunta10\":\"e) A la inutilidad de tanto esfuerzo si el objetivo es el reposo.\"}","question_order":"[0]","trial_type":"survey-multi-choice","trial_index":37,"time_elapsed":3152082,"internal_node_id":"0.0-5.0-32.0"},{"rt":2229.399999976158,"response":{"pregunta10 likert":2},"question_order":[0],"trial_type":"survey-likert","trial_index":38,"time_elapsed":3154313,"internal_node_id":"0.0-5.0-33.0"},{"rt":69532.60000002384,"responses":"{\"pregunta20\":\"b) para el mexicano, la muerte es cotidiana.\"}","question_order":"[0]","trial_type":"survey-multi-choice","trial_index":39,"time_elapsed":3223847,"internal_node_id":"0.0-5.0-34.0"},{"rt":3876.099999964237,"response":{"pregunta20 likert":2},"question_order":[0],"trial_type":"survey-likert","trial_index":40,"time_elapsed":3227725,"internal_node_id":"0.0-5.0-35.0"},{"rt":118782.09999996424,"responses":"{\"pregunta5\":\"a) La conducta de un hombre en un asilo es idéntica a la de un hombre en un campo de concentración.\"}","question_order":"[0]","trial_type":"survey-multi-choice","trial_index":41,"time_elapsed":3346509,"internal_node_id":"0.0-5.0-36.0"},{"rt":5241.599999964237,"response":{"pregunta5 likert":2},"question_order":[0],"trial_type":"survey-likert","trial_index":42,"time_elapsed":3351752,"internal_node_id":"0.0-5.0-37.0"},{"rt":187827.10000002384,"responses":"{\"pregunta15\":\"d) La publicidad ejerce una influencia positiva sobre la sociedad.\"}","question_order":"[0]","trial_type":"survey-multi-choice","trial_index":43,"time_elapsed":3539581,"internal_node_id":"0.0-5.0-38.0"},{"rt":3855.099999964237,"response":{"pregunta15 likert":2},"question_order":[0],"trial_type":"survey-likert","trial_index":44,"time_elapsed":3543438,"internal_node_id":"0.0-5.0-39.0"},{"rt":3839.899999976158,"stimulus":"<p style=\"font-size: 120%\">Gracias por completar esta etapa del estudio. Ahora te invitamos a responder el cuestionario.<br><br></p>","response":0,"trial_type":"html-button-response","trial_index":45,"time_elapsed":3547282,"internal_node_id":"0.0-6.0"},{"rt":3767,"stimulus":"<h1 style=\"margin-top: 5%\">Cuestionario para la Evaluación de Metas Académicas</h1><p style=\"font-size: 120%; margin-left: 3%; margin-top: 5%\">Este es un cuestionario que permite conocer cuáles son los principales motivos por los que los estudiantes se esfuerzan en su trabajo académico. A continuación, se te presentarán una serie de afirmaciones acerca de los motivos que puedes tener para estudiar.<br>Te pedimos que contestes a dichas afirmaciones reflexionando sobre el contenido de cada una de ellas, que, aunque te parezcan semejantes, en realidad, no lo son.<br>NO HAY RESPUESTAS CORRECTAS o INCORRECTAS, sólo queremos que respondas con la mayor precisión y sinceridad posible a las preguntas que se plantean.","response":0,"trial_type":"html-button-response","trial_index":46,"time_elapsed":3551051,"internal_node_id":"0.0-7.0"},{"rt":121269.10000002384,"response":{"Metas cuestionario pregunta1":4,"Metas cuestionario pregunta2":4,"Metas cuestionario pregunta3":4,"Metas cuestionario pregunta4":4,"Metas cuestionario pregunta5":4,"Metas cuestionario pregunta6":4,"Metas cuestionario pregunta7":4,"Metas cuestionario pregunta8":4,"Metas cuestionario pregunta9":3,"Metas cuestionario pregunta10":2,"Metas cuestionario pregunta11":2,"Metas cuestionario pregunta12":3,"Metas cuestionario pregunta13":2,"Metas cuestionario pregunta14":2,"Metas cuestionario pregunta15":4,"Metas cuestionario pregunta16":4,"Metas cuestionario pregunta17":4,"Metas cuestionario pregunta18":4,"Metas cuestionario pregunta19":4,"Metas cuestionario pregunta20":4},"question_order":[0,1,2,3,4,5,6,7,8,9,10,11,12,13,14,15,16,17,18,19],"trial_type":"survey-likert","trial_index":47,"time_elapsed":3672326,"internal_node_id":"0.0-8.0"},{"rt":1725.199999988079,"stimulus":"<p style=\"font-size: 120%\">Gracias por responder el cuestionario. Ahora te invitamos a seguir con el juego, que es muy breve.<br><br></p>","response":0,"trial_type":"html-button-response","trial_index":48,"time_elapsed":3674055,"internal_node_id":"0.0-9.0"},{"rt":185440.69999998808,"stimulus":"<h1>Juego</h1><p style=\"font-size: 120%;\">A continuación se te presentarán 16 pequeñas historias.<br>Por favor lee el texto presentado en cada una de ellas y luego haz click en el objeto de tu elección.<br>Si estás listo(a),<span style=\"color:red;\"> haz click en \"comenzar\"</span>.</p>","response":0,"trial_type":"html-button-response","trial_index":49,"time_elapsed":3859497,"internal_node_id":"0.0-10.0"},{"rt":30095.5,"grid":[[1,1,1,1,1]],"target":[0,0],"response":[0,4],"correct":false,"juego":2,"trial_type":"serial-reaction-time-mouse","trial_index":50,"time_elapsed":3889596,"internal_node_id":"0.0-11.0-0.0"},{"rt":16632.099999964237,"grid":[[1,1,1,1,1]],"target":[0,0],"response":[0,3],"correct":false,"juego":11,"trial_type":"serial-reaction-time-mouse","trial_index":51,"time_elapsed":3906231,"internal_node_id":"0.0-11.0-1.0"},{"rt":4729.099999964237,"grid":[[1,1,1,1,1]],"target":[0,0],"response":[0,1],"correct":false,"juego":1,"trial_type":"serial-reaction-time-mouse","trial_index":52,"time_elapsed":3910964,"internal_node_id":"0.0-11.0-2.0"},{"rt":6120.5,"grid":[[1,1,1,1,1]],"target":[0,0],"response":[0,2],"correct":false,"juego":8,"trial_type":"serial-reaction-time-mouse","trial_index":53,"time_elapsed":3917087,"internal_node_id":"0.0-11.0-3.0"},{"rt":23244.599999964237,"grid":[[1,1,1,1,1]],"target":[0,0],"response":[0,0],"correct":true,"juego":7,"trial_type":"serial-reaction-time-mouse","trial_index":54,"time_elapsed":3940335,"internal_node_id":"0.0-11.0-4.0"},{"rt":5532.900000035763,"grid":[[1,1,1,1,1]],"target":[0,0],"response":[0,1],"correct":false,"juego":9,"trial_type":"serial-reaction-time-mouse","trial_index":55,"time_elapsed":3945871,"internal_node_id":"0.0-11.0-5.0"},{"rt":11291.800000011921,"grid":[[1,1,1],[1,1,1],[1,1,1],[1,1,1],[1,1,1],[1,1,1],[1,1,1],[1,1,1],[1,1,1],[1,1,1],[1,1,1]],"target":[0,0],"response":[7,1],"correct":false,"juego":5,"trial_type":"serial-reaction-time-mouse","trial_index":56,"time_elapsed":3957169,"internal_node_id":"0.0-11.0-6.0"},{"rt":11998.800000011921,"grid":[[1,1,1,1,1]],"target":[0,0],"response":[0,3],"correct":false,"juego":3,"trial_type":"serial-reaction-time-mouse","trial_index":57,"time_elapsed":3969171,"internal_node_id":"0.0-11.0-7.0"},{"rt":15975.100000023842,"grid":[[1,1,1,1,1]],"target":[0,0],"response":[0,2],"correct":false,"juego":12,"trial_type":"serial-reaction-time-mouse","trial_index":58,"time_elapsed":3985150,"internal_node_id":"0.0-11.0-8.0"},{"rt":6454.300000011921,"grid":[[1,1,1],[1,1,1],[1,1,1],[1,1,1],[1,1,1],[1,1,1],[1,1,1],[1,1,1],[1,1,1],[1,1,1],[1,1,1]],"target":[0,0],"response":[1,1],"correct":false,"juego":6,"trial_type":"serial-reaction-time-mouse","trial_index":59,"time_elapsed":3991607,"internal_node_id":"0.0-11.0-9.0"},{"rt":14393.900000035763,"grid":[[1,1,1,1],[1,1,1,1],[1,1,1,1],[1,1,1,1],[1,1,1,1],[1,1,1,1],[1,1,1,1],[1,1,1,1],[1,1,1,1],[1,1,1,1],[1,1,1,1]],"target":[0,0],"response":[5,2],"correct":false,"juego":14,"trial_type":"serial-reaction-time-mouse","trial_index":60,"time_elapsed":4006004,"internal_node_id":"0.0-11.0-10.0"},{"rt":10372,"grid":[[1,1,1,1],[1,1,1,1],[1,1,1,1],[1,1,1,1],[1,1,1,1],[1,1,1,1],[1,1,1,1],[1,1,1,1],[1,1,1,1],[1,1,1,1],[1,1,1,1]],"target":[0,0],"response":[7,2],"correct":false,"juego":15,"trial_type":"serial-reaction-time-mouse","trial_index":61,"time_elapsed":4016383,"internal_node_id":"0.0-11.0-11.0"},{"rt":13817.800000011921,"grid":[[1,1,1],[1,1,1],[1,1,1],[1,1,1],[1,1,1],[1,1,1],[1,1,1],[1,1,1],[1,1,1],[1,1,1],[1,1,1]],"target":[0,0],"response":[9,1],"correct":false,"juego":13,"trial_type":"serial-reaction-time-mouse","trial_index":62,"time_elapsed":4030206,"internal_node_id":"0.0-11.0-12.0"},{"rt":2762.900000035763,"grid":[[1],[1],[1],[1],[1]],"target":[0,0],"response":[2,0],"correct":false,"juego":4,"trial_type":"serial-reaction-time-mouse","trial_index":63,"time_elapsed":4032974,"internal_node_id":"0.0-11.0-13.0"},{"rt":12327.800000011921,"grid":[[1,1,1],[1,1,1],[1,1,1],[1,1,1],[1,1,1],[1,1,1],[1,1,1],[1,1,1],[1,1,1],[1,1,1],[1,1,1]],"target":[0,0],"response":[1,2],"correct":false,"juego":10,"trial_type":"serial-reaction-time-mouse","trial_index":64,"time_elapsed":4045307,"internal_node_id":"0.0-11.0-14.0"},{"rt":4048.699999988079,"stimulus":"<h1>Último juego</h1><p style=\"font-size: 130%;\">Tienes <span style=\"color:red\">35</span> segundos para recordar los pares de palabras que aparecerán a continuación. <br></p>","response":0,"trial_type":"html-button-response","trial_index":65,"time_elapsed":4049361,"internal_node_id":"0.0-12.0"},{"animation_sequence":[{"stimulus":"imagen_juego_interferencia.jpg","time":627.3000000119209},{"stimulus":"imagen_juego_interferencia.jpg","time":1007.5999999642372},{"stimulus":"imagen_juego_interferencia.jpg","time":1506.300000011921},{"stimulus":"imagen_juego_interferencia.jpg","time":2011.699999988079},{"stimulus":"imagen_juego_interferencia.jpg","time":2503},{"stimulus":"imagen_juego_interferencia.jpg","time":3010.899999976158},{"stimulus":"imagen_juego_interferencia.jpg","time":3507.800000011921},{"stimulus":"imagen_juego_interferencia.jpg","time":4003.399999976158},{"stimulus":"imagen_juego_interferencia.jpg","time":4504.399999976158},{"stimulus":"imagen_juego_interferencia.jpg","time":5016.199999988079},{"stimulus":"imagen_juego_interferencia.jpg","time":5505.199999988079},{"stimulus":"imagen_juego_interferencia.jpg","time":6011.800000011921},{"stimulus":"imagen_juego_interferencia.jpg","time":6506.800000011921},{"stimulus":"imagen_juego_interferencia.jpg","time":7013.5},{"stimulus":"imagen_juego_interferencia.jpg","time":7514.699999988079},{"stimulus":"imagen_juego_interferencia.jpg","time":8006.300000011921},{"stimulus":"imagen_juego_interferencia.jpg","time":8514.599999964237},{"stimulus":"imagen_juego_interferencia.jpg","time":9005.300000011921},{"stimulus":"imagen_juego_interferencia.jpg","time":9502.199999988079},{"stimulus":"imagen_juego_interferencia.jpg","time":10004.399999976158},{"stimulus":"imagen_juego_interferencia.jpg","time":10505.5},{"stimulus":"imagen_juego_interferencia.jpg","time":11009.199999988079},{"stimulus":"imagen_juego_interferencia.jpg","time":11517.300000011921},{"stimulus":"imagen_juego_interferencia.jpg","time":12024.699999988079},{"stimulus":"imagen_juego_interferencia.jpg","time":12503.199999988079},{"stimulus":"imagen_juego_interferencia.jpg","time":13002.599999964237},{"stimulus":"imagen_juego_interferencia.jpg","time":13507.800000011921},{"stimulus":"imagen_juego_interferencia.jpg","time":14017.800000011921},{"stimulus":"imagen_juego_interferencia.jpg","time":14505.599999964237},{"stimulus":"imagen_juego_interferencia.jpg","time":15003.699999988079},{"stimulus":"imagen_juego_interferencia.jpg","time":15503.800000011921},{"stimulus":"imagen_juego_interferencia.jpg","time":16001.699999988079},{"stimulus":"imagen_juego_interferencia.jpg","time":16509},{"stimulus":"imagen_juego_interferencia.jpg","time":17014.5},{"stimulus":"imagen_juego_interferencia.jpg","time":17502.30000001192},{"stimulus":"imagen_juego_interferencia.jpg","time":18012.599999964237},{"stimulus":"imagen_juego_interferencia.jpg","time":18508.399999976158},{"stimulus":"imagen_juego_interferencia.jpg","time":19013.899999976158},{"stimulus":"imagen_juego_interferencia.jpg","time":19508},{"stimulus":"imagen_juego_interferencia.jpg","time":20015.599999964237},{"stimulus":"imagen_juego_interferencia.jpg","time":20505.399999976158},{"stimulus":"imagen_juego_interferencia.jpg","time":21012.899999976158},{"stimulus":"imagen_juego_interferencia.jpg","time":21513.599999964237},{"stimulus":"imagen_juego_interferencia.jpg","time":22009.69999998808},{"stimulus":"imagen_juego_interferencia.jpg","time":22511.399999976158},{"stimulus":"imagen_juego_interferencia.jpg","time":23001.599999964237},{"stimulus":"imagen_juego_interferencia.jpg","time":23523.399999976158},{"stimulus":"imagen_juego_interferencia.jpg","time":24008.099999964237},{"stimulus":"imagen_juego_interferencia.jpg","time":24513.399999976158},{"stimulus":"imagen_juego_interferencia.jpg","time":25011.399999976158},{"stimulus":"imagen_juego_interferencia.jpg","time":25501.599999964237},{"stimulus":"imagen_juego_interferencia.jpg","time":26023.099999964237},{"stimulus":"imagen_juego_interferencia.jpg","time":26506},{"stimulus":"imagen_juego_interferencia.jpg","time":27016.30000001192},{"stimulus":"imagen_juego_interferencia.jpg","time":27502.30000001192},{"stimulus":"imagen_juego_interferencia.jpg","time":28002.5},{"stimulus":"imagen_juego_interferencia.jpg","time":28506.69999998808},{"stimulus":"imagen_juego_interferencia.jpg","time":29002},{"stimulus":"imagen_juego_interferencia.jpg","time":29506.899999976158},{"stimulus":"imagen_juego_interferencia.jpg","time":30001.599999964237},{"stimulus":"imagen_juego_interferencia.jpg","time":30506.5},{"stimulus":"imagen_juego_interferencia.jpg","time":31006.69999998808},{"stimulus":"imagen_juego_interferencia.jpg","time":31507.19999998808},{"stimulus":"imagen_juego_interferencia.jpg","time":32004.69999998808},{"stimulus":"imagen_juego_interferencia.jpg","time":32507},{"stimulus":"imagen_juego_interferencia.jpg","time":33001.69999998808},{"stimulus":"imagen_juego_interferencia.jpg","time":33502.5},{"stimulus":"imagen_juego_interferencia.jpg","time":34007.39999997616},{"stimulus":"imagen_juego_interferencia.jpg","time":34515.30000001192},{"stimulus":"imagen_juego_interferencia.jpg","time":35006.09999996424}],"response":[],"trial_type":"animation","trial_index":66,"time_elapsed":4084871,"internal_node_id":"0.0-13.0"},{"rt":12321.800000011921,"responses":"{\"pregunta interferencia1\":\"naranja\"}","question_order":"[0]","trial_type":"survey-multi-choice-cuest","trial_index":67,"time_elapsed":4097195,"internal_node_id":"0.0-14.0-0.0"},{"rt":10514.800000011921,"responses":"{\"pregunta interferencia4\":\"conserje\"}","question_order":"[0]","trial_type":"survey-multi-choice-cuest","trial_index":68,"time_elapsed":4107712,"internal_node_id":"0.0-14.0-1.0"},{"rt":8622,"responses":"{\"pregunta interferencia3\":\"aluminio\"}","question_order":"[0]","trial_type":"survey-multi-choice-cuest","trial_index":69,"time_elapsed":4116335,"internal_node_id":"0.0-14.0-2.0"},{"rt":6940.699999988079,"responses":"{\"pregunta interferencia2\":\"langosta\"}","question_order":"[0]","trial_type":"survey-multi-choice-cuest","trial_index":70,"time_elapsed":4123277,"internal_node_id":"0.0-14.0-3.0"},{"success":true,"trial_type":"fullscreen","trial_index":71,"time_elapsed":4124293,"internal_node_id":"0.0-15.0"},{"rt":29600,"responses":"{\"Telefono\":\"+56942504034\"}","trial_type":"survey-text","trial_index":72,"time_elapsed":4153900,"internal_node_id":"0.0-16.0"}]