[{"rt":97976,"stimulus":"<h1 style=\"color:red; margin-top: 3%;\">¡Bienvenido(a)!</h1><p style=\"text-align:left; justify-content:space-between; margin-right: 5%; margin-left: 5%; margin-top: 5%\"> Antes de empezar el estudio, necesitamos que nos confirmes que estás de acuerdo con participar. Recuerda que tu participación es 100% voluntaria y que lo único que te pedimos es responder lo mejor que puedas. Recuerda también que el estudio incluye:</p><ol style=\"text-align:left; justify-content:space-between; margin-right: 5%; margin-left: 5%;\"><li> un ejercicio de resolución de preguntas de selección múltiple (30’),</li><li>un cuestionario breve (5’),</li><li>un juego muy breve (3’),</li></ol><p style=\"text-align:left; justify-content:space-between; margin-right: 5%; margin-left: 5%;\">Si quieres participar, haz clic en “Acepto” luego de leer lo siguiente:<br></p><p style=\"text-align:left; justify-content:space-between; margin-right: 5%; margin-left: 5%;\">Acepto participar en el estudio “Estrategias de lectura y resolución de preguntas de selección múltiple”, en los términos aquí señalados:<br></p><p style=\"text-align:left; justify-content:space-between; margin-right: 5%; margin-left: 5%;\"><a href=\"http://ciae.uchile.cl/download.php?file=noticias/Asentimiento.pdf\" target=\"_blank\">Link a la hoja de información del Consentimiento.</a></p><p style=\"text-align:left; justify-content:space-between; margin-right: 5%; margin-left: 5%;\">Declaro que he leído (o se me ha leído) y (he) comprendido, las condiciones de mi participación en este estudio. He tenido la oportunidad de hacer preguntas y éstas han sido respondidas. No tengo dudas al respecto.</p>","response":0,"condicion_MCQ":13,"condicion_JUEGO":53,"condicion_INTER":5,"numero_participante":53,"numero_version":1,"dimx":1440,"dimy":900,"color_profundidad":24,"pixel_profundidad":24,"Browser":"Apple Safari","dia":19,"mes":5,"hora":23,"minuto":1,"segundo":54,"trial_type":"html-button-response","trial_index":0,"time_elapsed":97984,"internal_node_id":"0.0-0.0"},{"success":true,"trial_type":"fullscreen","trial_index":1,"time_elapsed":105096,"internal_node_id":"0.0-1.0"},{"rt":49773,"responses":"{\"Nombres\":\"Francisca Andrea\",\"Apellidos\":\"Anguita Acevedo\",\"Edad\":\"27\",\"Sexo\":\"mujer\",\"Curso\":\"sección 1\",\"Colegio\":\"Universidad Andrés Bello\",\"Contacto\":\"faanguita@uc.cl\"}","trial_type":"survey-text","trial_index":2,"time_elapsed":154909,"internal_node_id":"0.0-2.0"},{"success":true,"timeout":false,"failed_images":[],"failed_audio":[],"failed_video":[],"trial_type":"preload","trial_index":3,"time_elapsed":157324,"internal_node_id":"0.0-3.0"},{"rt":10812,"stimulus":"<h1 style:\"margin-top: 5%;\">Ejercicios de Comprensión de Lectura de la Universidad de Chile</h1><p style=\"font-size: 120%;\">En esta actividad, debes responder 20 preguntas de selección múltiple. Cada pregunta presenta 5 respuestas alternativas, pero sólo una de ellas es correcta. Por lo tanto, debes escoger una sola alternativa para cada pregunta. Además, debes reportar qué tan seguro(a) estás de la respuesta que das, con un:</p><ol style=\"font-size: 120%;text-align:left;margin-left: 40%;\"><li>No estoy seguro(a) para nada</li><li>No estoy muy seguro(a)</li><li>Estoy bastante seguro(a)</li><li>Estoy totalmente seguro(a)</li></ol><p style=\"font-size: 120%;\">Por favor lee bien los enunciados antes de responder. ¡Éxito!</p>","response":0,"trial_type":"html-button-response","trial_index":4,"time_elapsed":168137,"internal_node_id":"0.0-4.0"},{"rt":35830,"responses":"{\"pregunta7\":\"e) ritualistas y obsesivos.\"}","question_order":"[0]","trial_type":"survey-multi-choice","trial_index":5,"time_elapsed":203969,"internal_node_id":"0.0-5.0-0.0"},{"rt":2281.000000000029,"response":{"pregunta7 likert":3},"question_order":[0],"trial_type":"survey-likert","trial_index":6,"time_elapsed":206253,"internal_node_id":"0.0-5.0-1.0"},{"rt":66324,"responses":"{\"pregunta1\":\"d) Aportan informaciones con las que se reconstruye el personaje dentro de un relato.\"}","question_order":"[0]","trial_type":"survey-multi-choice","trial_index":7,"time_elapsed":272580,"internal_node_id":"0.0-5.0-2.0"},{"rt":2607,"response":{"pregunta1 likert":3},"question_order":[0],"trial_type":"survey-likert","trial_index":8,"time_elapsed":275189,"internal_node_id":"0.0-5.0-3.0"},{"rt":62634,"responses":"{\"pregunta2\":\"d) A la relación entre pensamiento y estructura social.\"}","question_order":"[0]","trial_type":"survey-multi-choice","trial_index":9,"time_elapsed":337827,"internal_node_id":"0.0-5.0-4.0"},{"rt":1786,"response":{"pregunta2 likert":2},"question_order":[0],"trial_type":"survey-likert","trial_index":10,"time_elapsed":339615,"internal_node_id":"0.0-5.0-5.0"},{"rt":76740.99999999994,"responses":"{\"pregunta16\":\"e) llevan un control grupal de su embarazo.\"}","question_order":"[0]","trial_type":"survey-multi-choice","trial_index":11,"time_elapsed":416361,"internal_node_id":"0.0-5.0-6.0"},{"rt":1663.0000000000582,"response":{"pregunta16 likert":1},"question_order":[0],"trial_type":"survey-likert","trial_index":12,"time_elapsed":418025,"internal_node_id":"0.0-5.0-7.0"},{"rt":35817,"responses":"{\"pregunta13\":\"b) Bomberos debería tener acceso a un seguro médico, al que pueda recurrir en caso de accidente.\"}","question_order":"[0]","trial_type":"survey-multi-choice","trial_index":13,"time_elapsed":453844,"internal_node_id":"0.0-5.0-8.0"},{"rt":2304,"response":{"pregunta13 likert":2},"question_order":[0],"trial_type":"survey-likert","trial_index":14,"time_elapsed":456151,"internal_node_id":"0.0-5.0-9.0"},{"rt":37953.99999999994,"responses":"{\"pregunta10\":\"c) A la inutilidad de tanto esfuerzo si el objetivo es el reposo.\"}","question_order":"[0]","trial_type":"survey-multi-choice","trial_index":15,"time_elapsed":494107,"internal_node_id":"0.0-5.0-10.0"},{"rt":2237,"response":{"pregunta10 likert":0},"question_order":[0],"trial_type":"survey-likert","trial_index":16,"time_elapsed":496346,"internal_node_id":"0.0-5.0-11.0"},{"rt":29024,"responses":"{\"pregunta19\":\"c) el jardinero estará muerto al día siguiente.\"}","question_order":"[0]","trial_type":"survey-multi-choice","trial_index":17,"time_elapsed":525372,"internal_node_id":"0.0-5.0-12.0"},{"rt":2674.9999999998836,"response":{"pregunta19 likert":3},"question_order":[0],"trial_type":"survey-likert","trial_index":18,"time_elapsed":528048,"internal_node_id":"0.0-5.0-13.0"},{"rt":62182,"responses":"{\"pregunta6\":\"e) preparar los recuerdos del mañana.\"}","question_order":"[0]","trial_type":"survey-multi-choice","trial_index":19,"time_elapsed":590235,"internal_node_id":"0.0-5.0-14.0"},{"rt":1405,"response":{"pregunta6 likert":1},"question_order":[0],"trial_type":"survey-likert","trial_index":20,"time_elapsed":591642,"internal_node_id":"0.0-5.0-15.0"},{"rt":45456,"responses":"{\"pregunta15\":\"b) El receptor es habitualmente pasivo frente a la publicidad.\"}","question_order":"[0]","trial_type":"survey-multi-choice","trial_index":21,"time_elapsed":637101,"internal_node_id":"0.0-5.0-16.0"},{"rt":1471.9999999998836,"response":{"pregunta15 likert":3},"question_order":[0],"trial_type":"survey-likert","trial_index":22,"time_elapsed":638575,"internal_node_id":"0.0-5.0-17.0"},{"rt":23566,"responses":"{\"pregunta12\":\"a) el uranio es el elemento natural con el mayor número de protones en el núcleo.\"}","question_order":"[0]","trial_type":"survey-multi-choice","trial_index":23,"time_elapsed":662143,"internal_node_id":"0.0-5.0-18.0"},{"rt":2631,"response":{"pregunta12 likert":3},"question_order":[0],"trial_type":"survey-likert","trial_index":24,"time_elapsed":664776,"internal_node_id":"0.0-5.0-19.0"},{"rt":33847,"responses":"{\"pregunta11\":\"d) la muerte de Wu Ti fue una bendición.\"}","question_order":"[0]","trial_type":"survey-multi-choice","trial_index":25,"time_elapsed":698626,"internal_node_id":"0.0-5.0-20.0"},{"rt":1955,"response":{"pregunta11 likert":3},"question_order":[0],"trial_type":"survey-likert","trial_index":26,"time_elapsed":700583,"internal_node_id":"0.0-5.0-21.0"},{"rt":29654,"responses":"{\"pregunta3\":\"c) La escritura plasma los mejores momentos de los viajes.\"}","question_order":"[0]","trial_type":"survey-multi-choice","trial_index":27,"time_elapsed":730238,"internal_node_id":"0.0-5.0-22.0"},{"rt":1854,"response":{"pregunta3 likert":1},"question_order":[0],"trial_type":"survey-likert","trial_index":28,"time_elapsed":732094,"internal_node_id":"0.0-5.0-23.0"},{"rt":25410.999999999884,"responses":"{\"pregunta14\":\"b) A la influencia de grupos que rechazaban su música.\"}","question_order":"[0]","trial_type":"survey-multi-choice","trial_index":29,"time_elapsed":757508,"internal_node_id":"0.0-5.0-24.0"},{"rt":2294.0000000001164,"response":{"pregunta14 likert":3},"question_order":[0],"trial_type":"survey-likert","trial_index":30,"time_elapsed":759804,"internal_node_id":"0.0-5.0-25.0"},{"rt":33834,"responses":"{\"pregunta5\":\"e) El ser humano se comporta de acuerdo con las circunstancias.\"}","question_order":"[0]","trial_type":"survey-multi-choice","trial_index":31,"time_elapsed":793641,"internal_node_id":"0.0-5.0-26.0"},{"rt":1753.0000000001164,"response":{"pregunta5 likert":3},"question_order":[0],"trial_type":"survey-likert","trial_index":32,"time_elapsed":795395,"internal_node_id":"0.0-5.0-27.0"},{"rt":44300,"responses":"{\"pregunta9\":\"a) Homenajear a quienes murieron.\"}","question_order":"[0]","trial_type":"survey-multi-choice","trial_index":33,"time_elapsed":839698,"internal_node_id":"0.0-5.0-28.0"},{"rt":1819.9999999998836,"response":{"pregunta9 likert":3},"question_order":[0],"trial_type":"survey-likert","trial_index":34,"time_elapsed":841520,"internal_node_id":"0.0-5.0-29.0"},{"rt":16590.999999999884,"responses":"{\"pregunta17\":\"d) El TLC puede traer más dificultades que progresos.\"}","question_order":"[0]","trial_type":"survey-multi-choice","trial_index":35,"time_elapsed":858113,"internal_node_id":"0.0-5.0-30.0"},{"rt":1686,"response":{"pregunta17 likert":3},"question_order":[0],"trial_type":"survey-likert","trial_index":36,"time_elapsed":859801,"internal_node_id":"0.0-5.0-31.0"},{"rt":33523.00000000012,"responses":"{\"pregunta8\":\"d) Deleitar a sus receptores por medio de la belleza y el confort.\"}","question_order":"[0]","trial_type":"survey-multi-choice","trial_index":37,"time_elapsed":893326,"internal_node_id":"0.0-5.0-32.0"},{"rt":2708,"response":{"pregunta8 likert":3},"question_order":[0],"trial_type":"survey-likert","trial_index":38,"time_elapsed":896037,"internal_node_id":"0.0-5.0-33.0"},{"rt":29889,"responses":"{\"pregunta4\":\"e) Presentar positivamente las diversas tendencias del diseño de interiores a través de un comentario.\"}","question_order":"[0]","trial_type":"survey-multi-choice","trial_index":39,"time_elapsed":925929,"internal_node_id":"0.0-5.0-34.0"},{"rt":1717,"response":{"pregunta4 likert":3},"question_order":[0],"trial_type":"survey-likert","trial_index":40,"time_elapsed":927648,"internal_node_id":"0.0-5.0-35.0"},{"rt":30462.999999999884,"responses":"{\"pregunta18\":\"c) Se necesita un marco legal para delimitar lo público y lo privado en materia informativa.\"}","question_order":"[0]","trial_type":"survey-multi-choice","trial_index":41,"time_elapsed":958113,"internal_node_id":"0.0-5.0-36.0"},{"rt":1663,"response":{"pregunta18 likert":3},"question_order":[0],"trial_type":"survey-likert","trial_index":42,"time_elapsed":959777,"internal_node_id":"0.0-5.0-37.0"},{"rt":13858.000000000116,"responses":"{\"pregunta20\":\"e) la muerte es distinta en las grandes ciudades.\"}","question_order":"[0]","trial_type":"survey-multi-choice","trial_index":43,"time_elapsed":973636,"internal_node_id":"0.0-5.0-38.0"},{"rt":1450,"response":{"pregunta20 likert":3},"question_order":[0],"trial_type":"survey-likert","trial_index":44,"time_elapsed":975088,"internal_node_id":"0.0-5.0-39.0"},{"rt":1638,"stimulus":"<p style=\"font-size: 120%\">Gracias por completar esta etapa del estudio. Ahora te invitamos a responder el cuestionario.<br><br></p>","response":0,"trial_type":"html-button-response","trial_index":45,"time_elapsed":976729,"internal_node_id":"0.0-6.0"},{"rt":11495,"stimulus":"<h1 style=\"margin-top: 5%\">Cuestionario para la Evaluación de Metas Académicas</h1><p style=\"font-size: 120%; margin-left: 3%; margin-top: 5%\">Este es un cuestionario que permite conocer cuáles son los principales motivos por los que los estudiantes se esfuerzan en su trabajo académico. A continuación, se te presentarán una serie de afirmaciones acerca de los motivos que puedes tener para estudiar.<br>Te pedimos que contestes a dichas afirmaciones reflexionando sobre el contenido de cada una de ellas, que, aunque te parezcan semejantes, en realidad, no lo son.<br>NO HAY RESPUESTAS CORRECTAS o INCORRECTAS, sólo queremos que respondas con la mayor precisión y sinceridad posible a las preguntas que se plantean.","response":0,"trial_type":"html-button-response","trial_index":46,"time_elapsed":988226,"internal_node_id":"0.0-7.0"},{"rt":50013,"response":{"Metas cuestionario pregunta1":4,"Metas cuestionario pregunta2":4,"Metas cuestionario pregunta3":4,"Metas cuestionario pregunta4":4,"Metas cuestionario pregunta5":4,"Metas cuestionario pregunta6":4,"Metas cuestionario pregunta7":4,"Metas cuestionario pregunta8":4,"Metas cuestionario pregunta9":1,"Metas cuestionario pregunta10":1,"Metas cuestionario pregunta11":0,"Metas cuestionario pregunta12":0,"Metas cuestionario pregunta13":0,"Metas cuestionario pregunta14":0,"Metas cuestionario pregunta15":4,"Metas cuestionario pregunta16":4,"Metas cuestionario pregunta17":4,"Metas cuestionario pregunta18":4,"Metas cuestionario pregunta19":4,"Metas cuestionario pregunta20":4},"question_order":[0,1,2,3,4,5,6,7,8,9,10,11,12,13,14,15,16,17,18,19],"trial_type":"survey-likert","trial_index":47,"time_elapsed":1038246,"internal_node_id":"0.0-8.0"},{"rt":1399.9999999997672,"stimulus":"<p style=\"font-size: 120%\">Gracias por responder el cuestionario. Ahora te invitamos a seguir con el juego, que es muy breve.<br><br></p>","response":0,"trial_type":"html-button-response","trial_index":48,"time_elapsed":1039648,"internal_node_id":"0.0-9.0"},{"rt":10180.000000000116,"stimulus":"<h1>Juego</h1><p style=\"font-size: 120%;\">A continuación se te presentarán 16 pequeñas historias.<br>Por favor lee el texto presentado en cada una de ellas y luego haz click en el objeto de tu elección.<br>Si estás listo(a),<span style=\"color:red;\"> haz click en \"comenzar\"</span>.</p>","response":0,"trial_type":"html-button-response","trial_index":49,"time_elapsed":1049829,"internal_node_id":"0.0-10.0"},{"rt":16761,"grid":[[1,1,1,1,1]],"target":[0,0],"response":[0,4],"correct":false,"juego":12,"trial_type":"serial-reaction-time-mouse","trial_index":50,"time_elapsed":1066592,"internal_node_id":"0.0-11.0-0.0"},{"rt":6240.999999999767,"grid":[[1,1,1],[1,1,1],[1,1,1],[1,1,1],[1,1,1],[1,1,1],[1,1,1],[1,1,1],[1,1,1],[1,1,1],[1,1,1]],"target":[0,0],"response":[1,2],"correct":false,"juego":10,"trial_type":"serial-reaction-time-mouse","trial_index":51,"time_elapsed":1072836,"internal_node_id":"0.0-11.0-1.0"},{"rt":9381,"grid":[[1,1,1,1,1]],"target":[0,0],"response":[0,1],"correct":false,"juego":11,"trial_type":"serial-reaction-time-mouse","trial_index":52,"time_elapsed":1082219,"internal_node_id":"0.0-11.0-2.0"},{"rt":8836,"grid":[[1,1,1],[1,1,1],[1,1,1],[1,1,1],[1,1,1],[1,1,1],[1,1,1],[1,1,1],[1,1,1],[1,1,1],[1,1,1]],"target":[0,0],"response":[3,1],"correct":false,"juego":13,"trial_type":"serial-reaction-time-mouse","trial_index":53,"time_elapsed":1091060,"internal_node_id":"0.0-11.0-3.0"},{"rt":4543.000000000233,"grid":[[1,1,1,1,1]],"target":[0,0],"response":[0,1],"correct":false,"juego":2,"trial_type":"serial-reaction-time-mouse","trial_index":54,"time_elapsed":1095605,"internal_node_id":"0.0-11.0-4.0"},{"rt":6332,"grid":[[1,1,1,1,1]],"target":[0,0],"response":[0,3],"correct":false,"juego":9,"trial_type":"serial-reaction-time-mouse","trial_index":55,"time_elapsed":1101939,"internal_node_id":"0.0-11.0-5.0"},{"rt":2179.999999999767,"grid":[[1,1,1],[1,1,1],[1,1,1],[1,1,1],[1,1,1],[1,1,1],[1,1,1],[1,1,1],[1,1,1],[1,1,1],[1,1,1]],"target":[0,0],"response":[1,1],"correct":false,"juego":6,"trial_type":"serial-reaction-time-mouse","trial_index":56,"time_elapsed":1104121,"internal_node_id":"0.0-11.0-6.0"},{"rt":4937,"grid":[[1,1,1],[1,1,1],[1,1,1],[1,1,1],[1,1,1],[1,1,1],[1,1,1],[1,1,1],[1,1,1],[1,1,1],[1,1,1]],"target":[0,0],"response":[1,1],"correct":false,"juego":5,"trial_type":"serial-reaction-time-mouse","trial_index":57,"time_elapsed":1109060,"internal_node_id":"0.0-11.0-7.0"},{"rt":1911,"grid":[[1,1,1,1,1]],"target":[0,0],"response":[0,1],"correct":false,"juego":1,"trial_type":"serial-reaction-time-mouse","trial_index":58,"time_elapsed":1110972,"internal_node_id":"0.0-11.0-8.0"},{"rt":4925,"grid":[[1,1,1,1],[1,1,1,1],[1,1,1,1],[1,1,1,1],[1,1,1,1],[1,1,1,1],[1,1,1,1],[1,1,1,1],[1,1,1,1],[1,1,1,1],[1,1,1,1]],"target":[0,0],"response":[1,2],"correct":false,"juego":14,"trial_type":"serial-reaction-time-mouse","trial_index":59,"time_elapsed":1115900,"internal_node_id":"0.0-11.0-9.0"},{"rt":2113,"grid":[[1,1,1,1,1]],"target":[0,0],"response":[0,1],"correct":false,"juego":8,"trial_type":"serial-reaction-time-mouse","trial_index":60,"time_elapsed":1118014,"internal_node_id":"0.0-11.0-10.0"},{"rt":4600,"grid":[[1,1,1,1,1]],"target":[0,0],"response":[0,0],"correct":true,"juego":3,"trial_type":"serial-reaction-time-mouse","trial_index":61,"time_elapsed":1122615,"internal_node_id":"0.0-11.0-11.0"},{"rt":1799,"grid":[[1],[1],[1],[1],[1]],"target":[0,0],"response":[1,0],"correct":false,"juego":4,"trial_type":"serial-reaction-time-mouse","trial_index":62,"time_elapsed":1124415,"internal_node_id":"0.0-11.0-12.0"},{"rt":4385,"grid":[[1,1,1,1],[1,1,1,1],[1,1,1,1],[1,1,1,1],[1,1,1,1],[1,1,1,1],[1,1,1,1],[1,1,1,1],[1,1,1,1],[1,1,1,1],[1,1,1,1]],"target":[0,0],"response":[5,2],"correct":false,"juego":15,"trial_type":"serial-reaction-time-mouse","trial_index":63,"time_elapsed":1128803,"internal_node_id":"0.0-11.0-13.0"},{"rt":4103,"grid":[[1,1,1,1,1]],"target":[0,0],"response":[0,1],"correct":false,"juego":7,"trial_type":"serial-reaction-time-mouse","trial_index":64,"time_elapsed":1132909,"internal_node_id":"0.0-11.0-14.0"},{"rt":8850,"stimulus":"<h1>Último juego</h1><p style=\"font-size: 130%;\">Tienes <span style=\"color:red\">35</span> segundos para recordar los pares de palabras que aparecerán a continuación. <br></p>","response":0,"trial_type":"html-button-response","trial_index":65,"time_elapsed":1141764,"internal_node_id":"0.0-12.0"},{"animation_sequence":[{"stimulus":"imagen_juego_interferencia.jpg","time":509},{"stimulus":"imagen_juego_interferencia.jpg","time":1002},{"stimulus":"imagen_juego_interferencia.jpg","time":1503},{"stimulus":"imagen_juego_interferencia.jpg","time":2004.0000000002328},{"stimulus":"imagen_juego_interferencia.jpg","time":2504.000000000233},{"stimulus":"imagen_juego_interferencia.jpg","time":3005},{"stimulus":"imagen_juego_interferencia.jpg","time":3505},{"stimulus":"imagen_juego_interferencia.jpg","time":4007},{"stimulus":"imagen_juego_interferencia.jpg","time":4507},{"stimulus":"imagen_juego_interferencia.jpg","time":5008},{"stimulus":"imagen_juego_interferencia.jpg","time":5508},{"stimulus":"imagen_juego_interferencia.jpg","time":6009},{"stimulus":"imagen_juego_interferencia.jpg","time":6510},{"stimulus":"imagen_juego_interferencia.jpg","time":7011},{"stimulus":"imagen_juego_interferencia.jpg","time":7511},{"stimulus":"imagen_juego_interferencia.jpg","time":8012},{"stimulus":"imagen_juego_interferencia.jpg","time":8513},{"stimulus":"imagen_juego_interferencia.jpg","time":9013},{"stimulus":"imagen_juego_interferencia.jpg","time":9515},{"stimulus":"imagen_juego_interferencia.jpg","time":10015},{"stimulus":"imagen_juego_interferencia.jpg","time":10516},{"stimulus":"imagen_juego_interferencia.jpg","time":11016},{"stimulus":"imagen_juego_interferencia.jpg","time":11516},{"stimulus":"imagen_juego_interferencia.jpg","time":12016},{"stimulus":"imagen_juego_interferencia.jpg","time":12518},{"stimulus":"imagen_juego_interferencia.jpg","time":13018},{"stimulus":"imagen_juego_interferencia.jpg","time":13518},{"stimulus":"imagen_juego_interferencia.jpg","time":14019},{"stimulus":"imagen_juego_interferencia.jpg","time":14519},{"stimulus":"imagen_juego_interferencia.jpg","time":15021},{"stimulus":"imagen_juego_interferencia.jpg","time":15521},{"stimulus":"imagen_juego_interferencia.jpg","time":16021},{"stimulus":"imagen_juego_interferencia.jpg","time":16522},{"stimulus":"imagen_juego_interferencia.jpg","time":17023.000000000233},{"stimulus":"imagen_juego_interferencia.jpg","time":17524},{"stimulus":"imagen_juego_interferencia.jpg","time":18024},{"stimulus":"imagen_juego_interferencia.jpg","time":18525},{"stimulus":"imagen_juego_interferencia.jpg","time":19026},{"stimulus":"imagen_juego_interferencia.jpg","time":19526},{"stimulus":"imagen_juego_interferencia.jpg","time":20027},{"stimulus":"imagen_juego_interferencia.jpg","time":20528},{"stimulus":"imagen_juego_interferencia.jpg","time":21028},{"stimulus":"imagen_juego_interferencia.jpg","time":21529},{"stimulus":"imagen_juego_interferencia.jpg","time":22030},{"stimulus":"imagen_juego_interferencia.jpg","time":22530},{"stimulus":"imagen_juego_interferencia.jpg","time":23030},{"stimulus":"imagen_juego_interferencia.jpg","time":23532},{"stimulus":"imagen_juego_interferencia.jpg","time":24033.000000000233},{"stimulus":"imagen_juego_interferencia.jpg","time":24533.000000000233},{"stimulus":"imagen_juego_interferencia.jpg","time":25034},{"stimulus":"imagen_juego_interferencia.jpg","time":25534},{"stimulus":"imagen_juego_interferencia.jpg","time":26034},{"stimulus":"imagen_juego_interferencia.jpg","time":26535},{"stimulus":"imagen_juego_interferencia.jpg","time":27036},{"stimulus":"imagen_juego_interferencia.jpg","time":27537},{"stimulus":"imagen_juego_interferencia.jpg","time":28038},{"stimulus":"imagen_juego_interferencia.jpg","time":28538},{"stimulus":"imagen_juego_interferencia.jpg","time":29039},{"stimulus":"imagen_juego_interferencia.jpg","time":29540},{"stimulus":"imagen_juego_interferencia.jpg","time":30041},{"stimulus":"imagen_juego_interferencia.jpg","time":30541},{"stimulus":"imagen_juego_interferencia.jpg","time":31041},{"stimulus":"imagen_juego_interferencia.jpg","time":31542},{"stimulus":"imagen_juego_interferencia.jpg","time":32043},{"stimulus":"imagen_juego_interferencia.jpg","time":32544},{"stimulus":"imagen_juego_interferencia.jpg","time":33045},{"stimulus":"imagen_juego_interferencia.jpg","time":33545},{"stimulus":"imagen_juego_interferencia.jpg","time":34046},{"stimulus":"imagen_juego_interferencia.jpg","time":34546},{"stimulus":"imagen_juego_interferencia.jpg","time":35047}],"response":[{"key_press":"arrowdown","rt":31506,"stimulus":"imagen_juego_interferencia.jpg"},{"key_press":"arrowup","rt":31769,"stimulus":"imagen_juego_interferencia.jpg"}],"trial_type":"animation","trial_index":66,"time_elapsed":1177314,"internal_node_id":"0.0-13.0"},{"rt":23352,"responses":"{\"pregunta interferencia4\":\"contador\"}","question_order":"[0]","trial_type":"survey-multi-choice-cuest","trial_index":67,"time_elapsed":1200668,"internal_node_id":"0.0-14.0-0.0"},{"rt":2743,"responses":"{\"pregunta interferencia1\":\"naranja\"}","question_order":"[0]","trial_type":"survey-multi-choice-cuest","trial_index":68,"time_elapsed":1203413,"internal_node_id":"0.0-14.0-1.0"},{"rt":7917.999999999767,"responses":"{\"pregunta interferencia2\":\"saltamontes\"}","question_order":"[0]","trial_type":"survey-multi-choice-cuest","trial_index":69,"time_elapsed":1211333,"internal_node_id":"0.0-14.0-2.0"},{"rt":6264,"responses":"{\"pregunta interferencia3\":\"aluminio\"}","question_order":"[0]","trial_type":"survey-multi-choice-cuest","trial_index":70,"time_elapsed":1217599,"internal_node_id":"0.0-14.0-3.0"},{"success":true,"trial_type":"fullscreen","trial_index":71,"time_elapsed":1218601,"internal_node_id":"0.0-15.0"},{"rt":7398,"responses":"{\"Telefono\":\"940485378\"}","trial_type":"survey-text","trial_index":72,"time_elapsed":1226014,"internal_node_id":"0.0-16.0"}]