[{"rt":42110.39999997616,"stimulus":"<h1 style=\"color:red; margin-top: 3%;\">¡Bienvenido(a)!</h1><p style=\"text-align:left; justify-content:space-between; margin-right: 5%; margin-left: 5%; margin-top: 5%\"> Antes de empezar el estudio, necesitamos que nos confirmes que estás de acuerdo con participar. Recuerda que tu participación es 100% voluntaria y que lo único que te pedimos es responder lo mejor que puedas. Recuerda también que el estudio incluye:</p><ol style=\"text-align:left; justify-content:space-between; margin-right: 5%; margin-left: 5%;\"><li> un ejercicio de resolución de preguntas de selección múltiple (30’),</li><li>un cuestionario breve (5’),</li><li>un juego muy breve (3’),</li></ol><p style=\"text-align:left; justify-content:space-between; margin-right: 5%; margin-left: 5%;\">Si quieres participar, haz clic en “Acepto” luego de leer lo siguiente:<br></p><p style=\"text-align:left; justify-content:space-between; margin-right: 5%; margin-left: 5%;\">Acepto participar en el estudio “Estrategias de lectura y resolución de preguntas de selección múltiple”, en los términos aquí señalados:<br></p><p style=\"text-align:left; justify-content:space-between; margin-right: 5%; margin-left: 5%;\"><a href=\"http://ciae.uchile.cl/download.php?file=noticias/Asentimiento.pdf\" target=\"_blank\">Link a la hoja de información del Consentimiento.</a></p><p style=\"text-align:left; justify-content:space-between; margin-right: 5%; margin-left: 5%;\">Declaro que he leído (o se me ha leído) y (he) comprendido, las condiciones de mi participación en este estudio. He tenido la oportunidad de hacer preguntas y éstas han sido respondidas. No tengo dudas al respecto.</p>","response":0,"condicion_MCQ":7,"condicion_JUEGO":7,"condicion_INTER":7,"numero_participante":7,"numero_version":1,"dimx":1366,"dimy":768,"color_profundidad":24,"pixel_profundidad":24,"Browser":"Google Chrome","dia":17,"mes":5,"hora":16,"minuto":36,"segundo":21,"trial_type":"html-button-response","trial_index":0,"time_elapsed":42118,"internal_node_id":"0.0-0.0"},{"success":true,"trial_type":"fullscreen","trial_index":1,"time_elapsed":47887,"internal_node_id":"0.0-1.0"},{"rt":94862.09999999404,"responses":"{\"Nombres\":\"Jocelyn Andrea\",\"Apellidos\":\"Araya Guzman\",\"Edad\":\"39\",\"Sexo\":\"Mujer\",\"Curso\":\"Seccion 1 psicologia vespertino \",\"Colegio\":\"Universidad Andrés Bello\",\"Contacto\":\"jocelyn.araya.guzman@gmail.com\"}","trial_type":"survey-text","trial_index":2,"time_elapsed":142771,"internal_node_id":"0.0-2.0"},{"success":true,"timeout":false,"failed_images":[],"failed_audio":[],"failed_video":[],"trial_type":"preload","trial_index":3,"time_elapsed":145291,"internal_node_id":"0.0-3.0"},{"rt":27802.70000001788,"stimulus":"<h1 style:\"margin-top: 5%;\">Ejercicios de Comprensión de Lectura de la Universidad de Chile</h1><p style=\"font-size: 120%;\">En esta actividad, debes responder 20 preguntas de selección múltiple. Cada pregunta presenta 5 respuestas alternativas, pero sólo una de ellas es correcta. Por lo tanto, debes escoger una sola alternativa para cada pregunta. Además, debes reportar qué tan seguro(a) estás de la respuesta que das, con un:</p><ol style=\"font-size: 120%;text-align:left;margin-left: 40%;\"><li>No estoy seguro(a) para nada</li><li>No estoy muy seguro(a)</li><li>Estoy bastante seguro(a)</li><li>Estoy totalmente seguro(a)</li></ol><p style=\"font-size: 120%;\">Por favor lee bien los enunciados antes de responder. ¡Éxito!</p>","response":0,"trial_type":"html-button-response","trial_index":4,"time_elapsed":173096,"internal_node_id":"0.0-4.0"},{"rt":59546.90000000596,"responses":"{\"pregunta5\":\"d) El concepto de normalidad es diferente para un psiquiatra que para nosotros.\"}","question_order":"[0]","trial_type":"survey-multi-choice","trial_index":5,"time_elapsed":232648,"internal_node_id":"0.0-5.0-0.0"},{"rt":5393.299999982119,"response":{"pregunta5 likert":2},"question_order":[0],"trial_type":"survey-likert","trial_index":6,"time_elapsed":238048,"internal_node_id":"0.0-5.0-1.0"},{"rt":104755,"responses":"{\"pregunta16\":\"a) sufren dolores de espalda.\"}","question_order":"[0]","trial_type":"survey-multi-choice","trial_index":7,"time_elapsed":342808,"internal_node_id":"0.0-5.0-2.0"},{"rt":3695.899999976158,"response":{"pregunta16 likert":2},"question_order":[0],"trial_type":"survey-likert","trial_index":8,"time_elapsed":346509,"internal_node_id":"0.0-5.0-3.0"},{"rt":46737.90000000596,"responses":"{\"pregunta3\":\"a) La escritura plasma los mejores momentos de los viajes.\"}","question_order":"[0]","trial_type":"survey-multi-choice","trial_index":9,"time_elapsed":393252,"internal_node_id":"0.0-5.0-4.0"},{"rt":3125.2999999821186,"response":{"pregunta3 likert":2},"question_order":[0],"trial_type":"survey-likert","trial_index":10,"time_elapsed":396383,"internal_node_id":"0.0-5.0-5.0"},{"rt":53535.79999998212,"responses":"{\"pregunta18\":\"a) Se necesita un marco legal para delimitar lo público y lo privado en materia informativa.\"}","question_order":"[0]","trial_type":"survey-multi-choice","trial_index":11,"time_elapsed":449924,"internal_node_id":"0.0-5.0-6.0"},{"rt":4081.199999988079,"response":{"pregunta18 likert":3},"question_order":[0],"trial_type":"survey-likert","trial_index":12,"time_elapsed":454009,"internal_node_id":"0.0-5.0-7.0"},{"rt":47357,"responses":"{\"pregunta2\":\"a) A la relación entre sociología y sociedad.\"}","question_order":"[0]","trial_type":"survey-multi-choice","trial_index":13,"time_elapsed":501370,"internal_node_id":"0.0-5.0-8.0"},{"rt":4467,"response":{"pregunta2 likert":1},"question_order":[0],"trial_type":"survey-likert","trial_index":14,"time_elapsed":505841,"internal_node_id":"0.0-5.0-9.0"},{"rt":77249,"responses":"{\"pregunta9\":\"d) Homenajear a quienes murieron.\"}","question_order":"[0]","trial_type":"survey-multi-choice","trial_index":15,"time_elapsed":583095,"internal_node_id":"0.0-5.0-10.0"},{"rt":3303.5999999940395,"response":{"pregunta9 likert":2},"question_order":[0],"trial_type":"survey-likert","trial_index":16,"time_elapsed":586402,"internal_node_id":"0.0-5.0-11.0"},{"rt":45681.70000001788,"responses":"{\"pregunta17\":\"a) Nuestra economía vivirá un proceso de ajuste a la nueva realidad.\"}","question_order":"[0]","trial_type":"survey-multi-choice","trial_index":17,"time_elapsed":632088,"internal_node_id":"0.0-5.0-12.0"},{"rt":2446.0999999940395,"response":{"pregunta17 likert":2},"question_order":[0],"trial_type":"survey-likert","trial_index":18,"time_elapsed":634538,"internal_node_id":"0.0-5.0-13.0"},{"rt":32002.09999999404,"responses":"{\"pregunta1\":\"b) Aportan informaciones con las que se reconstruye el personaje dentro de un relato.\"}","question_order":"[0]","trial_type":"survey-multi-choice","trial_index":19,"time_elapsed":666543,"internal_node_id":"0.0-5.0-14.0"},{"rt":3814.5,"response":{"pregunta1 likert":2},"question_order":[0],"trial_type":"survey-likert","trial_index":20,"time_elapsed":670362,"internal_node_id":"0.0-5.0-15.0"},{"rt":34656.20000001788,"responses":"{\"pregunta10\":\"d) Al premio merecido después de tantos esfuerzos.\"}","question_order":"[0]","trial_type":"survey-multi-choice","trial_index":21,"time_elapsed":705022,"internal_node_id":"0.0-5.0-16.0"},{"rt":2604.7000000178814,"response":{"pregunta10 likert":3},"question_order":[0],"trial_type":"survey-likert","trial_index":22,"time_elapsed":707632,"internal_node_id":"0.0-5.0-17.0"},{"rt":53822.59999999404,"responses":"{\"pregunta19\":\"a) la Muerte vaticina el futuro mediante gestos.\"}","question_order":"[0]","trial_type":"survey-multi-choice","trial_index":23,"time_elapsed":761457,"internal_node_id":"0.0-5.0-18.0"},{"rt":3111.7000000178814,"response":{"pregunta19 likert":3},"question_order":[0],"trial_type":"survey-likert","trial_index":24,"time_elapsed":764573,"internal_node_id":"0.0-5.0-19.0"},{"rt":24383.5,"responses":"{\"pregunta20\":\"b) para el mexicano, la muerte es cotidiana.\"}","question_order":"[0]","trial_type":"survey-multi-choice","trial_index":25,"time_elapsed":788960,"internal_node_id":"0.0-5.0-20.0"},{"rt":2950.5,"response":{"pregunta20 likert":3},"question_order":[0],"trial_type":"survey-likert","trial_index":26,"time_elapsed":791916,"internal_node_id":"0.0-5.0-21.0"},{"rt":52503.09999999404,"responses":"{\"pregunta8\":\"b) Deleitar a sus receptores por medio de la belleza y el confort.\"}","question_order":"[0]","trial_type":"survey-multi-choice","trial_index":27,"time_elapsed":844425,"internal_node_id":"0.0-5.0-22.0"},{"rt":2793.4000000059605,"response":{"pregunta8 likert":2},"question_order":[0],"trial_type":"survey-likert","trial_index":28,"time_elapsed":847222,"internal_node_id":"0.0-5.0-23.0"},{"rt":106866.69999998808,"responses":"{\"pregunta12\":\"b) la creación de elementos químicos artificiales ha resultado de la manipulación del uranio.\"}","question_order":"[0]","trial_type":"survey-multi-choice","trial_index":29,"time_elapsed":954093,"internal_node_id":"0.0-5.0-24.0"},{"rt":3358.4000000059605,"response":{"pregunta12 likert":1},"question_order":[0],"trial_type":"survey-likert","trial_index":30,"time_elapsed":957456,"internal_node_id":"0.0-5.0-25.0"},{"rt":51721.90000000596,"responses":"{\"pregunta6\":\"a) un conjunto de imágenes de recuerdos gratos.\"}","question_order":"[0]","trial_type":"survey-multi-choice","trial_index":31,"time_elapsed":1009181,"internal_node_id":"0.0-5.0-26.0"},{"rt":4515.799999982119,"response":{"pregunta6 likert":2},"question_order":[0],"trial_type":"survey-likert","trial_index":32,"time_elapsed":1013701,"internal_node_id":"0.0-5.0-27.0"},{"rt":69597.40000000596,"responses":"{\"pregunta11\":\"c) el Primer Ministro debía morir por ambicioso.\"}","question_order":"[0]","trial_type":"survey-multi-choice","trial_index":33,"time_elapsed":1083305,"internal_node_id":"0.0-5.0-28.0"},{"rt":2823.4000000059605,"response":{"pregunta11 likert":2},"question_order":[0],"trial_type":"survey-likert","trial_index":34,"time_elapsed":1086133,"internal_node_id":"0.0-5.0-29.0"},{"rt":56844.40000000596,"responses":"{\"pregunta15\":\"c) El receptor es el que posee la decisión sobre la publicidad.\"}","question_order":"[0]","trial_type":"survey-multi-choice","trial_index":35,"time_elapsed":1142983,"internal_node_id":"0.0-5.0-30.0"},{"rt":3494,"response":{"pregunta15 likert":2},"question_order":[0],"trial_type":"survey-likert","trial_index":36,"time_elapsed":1146482,"internal_node_id":"0.0-5.0-31.0"},{"rt":34448.30000001192,"responses":"{\"pregunta13\":\"e) Bomberos debería tener acceso a un seguro médico, al que pueda recurrir en caso de accidente.\"}","question_order":"[0]","trial_type":"survey-multi-choice","trial_index":37,"time_elapsed":1180936,"internal_node_id":"0.0-5.0-32.0"},{"rt":2297.0999999940395,"response":{"pregunta13 likert":2},"question_order":[0],"trial_type":"survey-likert","trial_index":38,"time_elapsed":1183238,"internal_node_id":"0.0-5.0-33.0"},{"rt":60122.19999998808,"responses":"{\"pregunta4\":\"b) Presentar positivamente las diversas tendencias del diseño de interiores a través de un comentario.\"}","question_order":"[0]","trial_type":"survey-multi-choice","trial_index":39,"time_elapsed":1243364,"internal_node_id":"0.0-5.0-34.0"},{"rt":3073.699999988079,"response":{"pregunta4 likert":2},"question_order":[0],"trial_type":"survey-likert","trial_index":40,"time_elapsed":1246443,"internal_node_id":"0.0-5.0-35.0"},{"rt":58177.90000000596,"responses":"{\"pregunta7\":\"a) religiosos y precavidos.\"}","question_order":"[0]","trial_type":"survey-multi-choice","trial_index":41,"time_elapsed":1304624,"internal_node_id":"0.0-5.0-36.0"},{"rt":3851.9000000059605,"response":{"pregunta7 likert":1},"question_order":[0],"trial_type":"survey-likert","trial_index":42,"time_elapsed":1308480,"internal_node_id":"0.0-5.0-37.0"},{"rt":41528.5,"responses":"{\"pregunta14\":\"e) A la influencia de grupos que rechazaban su música.\"}","question_order":"[0]","trial_type":"survey-multi-choice","trial_index":43,"time_elapsed":1350012,"internal_node_id":"0.0-5.0-38.0"},{"rt":3224.9000000059605,"response":{"pregunta14 likert":2},"question_order":[0],"trial_type":"survey-likert","trial_index":44,"time_elapsed":1353242,"internal_node_id":"0.0-5.0-39.0"},{"rt":4281.299999982119,"stimulus":"<p style=\"font-size: 120%\">Gracias por completar esta etapa del estudio. Ahora te invitamos a responder el cuestionario.<br><br></p>","response":0,"trial_type":"html-button-response","trial_index":45,"time_elapsed":1357532,"internal_node_id":"0.0-6.0"},{"rt":29142.09999999404,"stimulus":"<h1 style=\"margin-top: 5%\">Cuestionario para la Evaluación de Metas Académicas</h1><p style=\"font-size: 120%; margin-left: 3%; margin-top: 5%\">Este es un cuestionario que permite conocer cuáles son los principales motivos por los que los estudiantes se esfuerzan en su trabajo académico. A continuación, se te presentarán una serie de afirmaciones acerca de los motivos que puedes tener para estudiar.<br>Te pedimos que contestes a dichas afirmaciones reflexionando sobre el contenido de cada una de ellas, que, aunque te parezcan semejantes, en realidad, no lo son.<br>NO HAY RESPUESTAS CORRECTAS o INCORRECTAS, sólo queremos que respondas con la mayor precisión y sinceridad posible a las preguntas que se plantean.","response":0,"trial_type":"html-button-response","trial_index":46,"time_elapsed":1386678,"internal_node_id":"0.0-7.0"},{"rt":108926.40000000596,"response":{"Metas cuestionario pregunta1":4,"Metas cuestionario pregunta2":3,"Metas cuestionario pregunta3":4,"Metas cuestionario pregunta4":2,"Metas cuestionario pregunta5":4,"Metas cuestionario pregunta6":4,"Metas cuestionario pregunta7":3,"Metas cuestionario pregunta8":4,"Metas cuestionario pregunta9":2,"Metas cuestionario pregunta10":1,"Metas cuestionario pregunta11":1,"Metas cuestionario pregunta12":1,"Metas cuestionario pregunta13":2,"Metas cuestionario pregunta14":2,"Metas cuestionario pregunta15":3,"Metas cuestionario pregunta16":3,"Metas cuestionario pregunta17":3,"Metas cuestionario pregunta18":3,"Metas cuestionario pregunta19":3,"Metas cuestionario pregunta20":3},"question_order":[0,1,2,3,4,5,6,7,8,9,10,11,12,13,14,15,16,17,18,19],"trial_type":"survey-likert","trial_index":47,"time_elapsed":1495621,"internal_node_id":"0.0-8.0"}]