[{"rt":25321.79999999702,"stimulus":"<h1 style=\"color:red; margin-top: 3%;\">¡Bienvenido(a)!</h1><p style=\"text-align:left; justify-content:space-between; margin-right: 5%; margin-left: 5%; margin-top: 5%\"> Antes de empezar el estudio, necesitamos que nos confirmes que estás de acuerdo con participar. Recuerda que tu participación es 100% voluntaria y que lo único que te pedimos es responder lo mejor que puedas. Recuerda también que el estudio incluye:</p><ol style=\"text-align:left; justify-content:space-between; margin-right: 5%; margin-left: 5%;\"><li> un ejercicio de resolución de preguntas de selección múltiple (30’),</li><li>un cuestionario breve (5’),</li><li>un juego muy breve (3’),</li></ol><p style=\"text-align:left; justify-content:space-between; margin-right: 5%; margin-left: 5%;\">Si quieres participar, haz clic en “Acepto” luego de leer lo siguiente:<br></p><p style=\"text-align:left; justify-content:space-between; margin-right: 5%; margin-left: 5%;\">Acepto participar en el estudio “Estrategias de lectura y resolución de preguntas de selección múltiple”, en los términos aquí señalados:<br></p><p style=\"text-align:left; justify-content:space-between; margin-right: 5%; margin-left: 5%;\"><a href=\"http://ciae.uchile.cl/download.php?file=noticias/Asentimiento.pdf\" target=\"_blank\">Link a la hoja de información del Consentimiento.</a></p><p style=\"text-align:left; justify-content:space-between; margin-right: 5%; margin-left: 5%;\">Declaro que he leído (o se me ha leído) y (he) comprendido, las condiciones de mi participación en este estudio. He tenido la oportunidad de hacer preguntas y éstas han sido respondidas. No tengo dudas al respecto.</p>","response":0,"condicion_MCQ":18,"condicion_JUEGO":98,"condicion_INTER":2,"numero_participante":98,"numero_version":1,"dimx":1536,"dimy":864,"color_profundidad":24,"pixel_profundidad":24,"Browser":"Google Chrome","dia":25,"mes":5,"hora":3,"minuto":54,"segundo":22,"trial_type":"html-button-response","trial_index":0,"time_elapsed":25325,"internal_node_id":"0.0-0.0"},{"success":true,"trial_type":"fullscreen","trial_index":1,"time_elapsed":37978,"internal_node_id":"0.0-1.0"},{"rt":76212.09999999404,"responses":"{\"Nombres\":\"Francisco Javier\",\"Apellidos\":\"Méndez Astudillo\",\"Edad\":\"19\",\"Sexo\":\"Hombre\",\"Curso\":\"Sección 201\",\"Colegio\":\"Universidad Andrés Bello \",\"Contacto\":\"franciscomendez1337@gmail.com\"}","trial_type":"survey-text","trial_index":2,"time_elapsed":114200,"internal_node_id":"0.0-2.0"},{"success":true,"timeout":false,"failed_images":[],"failed_audio":[],"failed_video":[],"trial_type":"preload","trial_index":3,"time_elapsed":115326,"internal_node_id":"0.0-3.0"},{"rt":16684.10000000894,"stimulus":"<h1 style:\"margin-top: 5%;\">Ejercicios de Comprensión de Lectura de la Universidad de Chile</h1><p style=\"font-size: 120%;\">En esta actividad, debes responder 20 preguntas de selección múltiple. Cada pregunta presenta 5 respuestas alternativas, pero sólo una de ellas es correcta. Por lo tanto, debes escoger una sola alternativa para cada pregunta. Además, debes reportar qué tan seguro(a) estás de la respuesta que das, con un:</p><ol style=\"font-size: 120%;text-align:left;margin-left: 40%;\"><li>No estoy seguro(a) para nada</li><li>No estoy muy seguro(a)</li><li>Estoy bastante seguro(a)</li><li>Estoy totalmente seguro(a)</li></ol><p style=\"font-size: 120%;\">Por favor lee bien los enunciados antes de responder. ¡Éxito!</p>","response":0,"trial_type":"html-button-response","trial_index":4,"time_elapsed":132012,"internal_node_id":"0.0-4.0"},{"rt":58824.20000000298,"responses":"{\"pregunta6\":\"a) preparar los recuerdos del mañana.\"}","question_order":"[0]","trial_type":"survey-multi-choice","trial_index":5,"time_elapsed":190837,"internal_node_id":"0.0-5.0-0.0"},{"rt":2494,"response":{"pregunta6 likert":3},"question_order":[0],"trial_type":"survey-likert","trial_index":6,"time_elapsed":193335,"internal_node_id":"0.0-5.0-1.0"},{"rt":39160.70000000298,"responses":"{\"pregunta17\":\"d) Nuestra economía vivirá un proceso de ajuste a la nueva realidad.\"}","question_order":"[0]","trial_type":"survey-multi-choice","trial_index":7,"time_elapsed":232499,"internal_node_id":"0.0-5.0-2.0"},{"rt":1988.800000011921,"response":{"pregunta17 likert":2},"question_order":[0],"trial_type":"survey-likert","trial_index":8,"time_elapsed":234491,"internal_node_id":"0.0-5.0-3.0"},{"rt":70620.5,"responses":"{\"pregunta15\":\"c) El receptor es habitualmente pasivo frente a la publicidad.\"}","question_order":"[0]","trial_type":"survey-multi-choice","trial_index":9,"time_elapsed":305114,"internal_node_id":"0.0-5.0-4.0"},{"rt":1780.8999999910593,"response":{"pregunta15 likert":1},"question_order":[0],"trial_type":"survey-likert","trial_index":10,"time_elapsed":306898,"internal_node_id":"0.0-5.0-5.0"},{"rt":76402.40000000596,"responses":"{\"pregunta14\":\"a) A la negligencia de la empresa que los traía a Chile.\"}","question_order":"[0]","trial_type":"survey-multi-choice","trial_index":11,"time_elapsed":383304,"internal_node_id":"0.0-5.0-6.0"},{"rt":1656.8999999910593,"response":{"pregunta14 likert":3},"question_order":[0],"trial_type":"survey-likert","trial_index":12,"time_elapsed":384964,"internal_node_id":"0.0-5.0-7.0"},{"rt":80688.5,"responses":"{\"pregunta19\":\"d) el jardinero estará muerto al día siguiente.\"}","question_order":"[0]","trial_type":"survey-multi-choice","trial_index":13,"time_elapsed":465655,"internal_node_id":"0.0-5.0-8.0"},{"rt":1684.7999999970198,"response":{"pregunta19 likert":3},"question_order":[0],"trial_type":"survey-likert","trial_index":14,"time_elapsed":467343,"internal_node_id":"0.0-5.0-9.0"},{"rt":32002.59999999404,"responses":"{\"pregunta13\":\"b) Por el riesgo que corren diariamente, los bomberos deberían tener mejores condiciones de seguridad.\"}","question_order":"[0]","trial_type":"survey-multi-choice","trial_index":15,"time_elapsed":499349,"internal_node_id":"0.0-5.0-10.0"},{"rt":1614.9000000059605,"response":{"pregunta13 likert":3},"question_order":[0],"trial_type":"survey-likert","trial_index":16,"time_elapsed":500967,"internal_node_id":"0.0-5.0-11.0"},{"rt":85502.20000000298,"responses":"{\"pregunta12\":\"e) la creación de elementos químicos es altamente contaminante.\"}","question_order":"[0]","trial_type":"survey-multi-choice","trial_index":17,"time_elapsed":586472,"internal_node_id":"0.0-5.0-12.0"},{"rt":1883.0999999940395,"response":{"pregunta12 likert":0},"question_order":[0],"trial_type":"survey-likert","trial_index":18,"time_elapsed":588358,"internal_node_id":"0.0-5.0-13.0"},{"rt":54592.70000000298,"responses":"{\"pregunta18\":\"d) Se necesita un marco legal para delimitar lo público y lo privado en materia informativa.\"}","question_order":"[0]","trial_type":"survey-multi-choice","trial_index":19,"time_elapsed":642954,"internal_node_id":"0.0-5.0-14.0"},{"rt":2065,"response":{"pregunta18 likert":2},"question_order":[0],"trial_type":"survey-likert","trial_index":20,"time_elapsed":645022,"internal_node_id":"0.0-5.0-15.0"},{"rt":34474.59999999404,"responses":"{\"pregunta20\":\"e) para el mexicano, la muerte es cotidiana.\"}","question_order":"[0]","trial_type":"survey-multi-choice","trial_index":21,"time_elapsed":679499,"internal_node_id":"0.0-5.0-16.0"},{"rt":1380.9000000059605,"response":{"pregunta20 likert":2},"question_order":[0],"trial_type":"survey-likert","trial_index":22,"time_elapsed":680884,"internal_node_id":"0.0-5.0-17.0"},{"rt":52798.29999999702,"responses":"{\"pregunta5\":\"c) El concepto de normalidad es diferente para un psiquiatra que para nosotros.\"}","question_order":"[0]","trial_type":"survey-multi-choice","trial_index":23,"time_elapsed":733685,"internal_node_id":"0.0-5.0-18.0"},{"rt":1189.2000000029802,"response":{"pregunta5 likert":1},"question_order":[0],"trial_type":"survey-likert","trial_index":24,"time_elapsed":734877,"internal_node_id":"0.0-5.0-19.0"},{"rt":38130.5,"responses":"{\"pregunta4\":\"c) Exponer sobre los conceptos de decoración dominantes en nuestro país.\"}","question_order":"[0]","trial_type":"survey-multi-choice","trial_index":25,"time_elapsed":773011,"internal_node_id":"0.0-5.0-20.0"},{"rt":1680.9000000059605,"response":{"pregunta4 likert":1},"question_order":[0],"trial_type":"survey-likert","trial_index":26,"time_elapsed":774695,"internal_node_id":"0.0-5.0-21.0"},{"rt":73746.30000001192,"responses":"{\"pregunta11\":\"e) la muerte de Wu Ti fue una bendición.\"}","question_order":"[0]","trial_type":"survey-multi-choice","trial_index":27,"time_elapsed":848444,"internal_node_id":"0.0-5.0-22.0"},{"rt":2307.1000000089407,"response":{"pregunta11 likert":1},"question_order":[0],"trial_type":"survey-likert","trial_index":28,"time_elapsed":850754,"internal_node_id":"0.0-5.0-23.0"},{"rt":67028.79999999702,"responses":"{\"pregunta8\":\"a) Deleitar a sus receptores por medio de la belleza y el confort.\"}","question_order":"[0]","trial_type":"survey-multi-choice","trial_index":29,"time_elapsed":917786,"internal_node_id":"0.0-5.0-24.0"},{"rt":2324.9000000059605,"response":{"pregunta8 likert":2},"question_order":[0],"trial_type":"survey-likert","trial_index":30,"time_elapsed":920114,"internal_node_id":"0.0-5.0-25.0"},{"rt":43246.90000000596,"responses":"{\"pregunta1\":\"b) Muestran las opiniones expuestas por los personajes en un relato.\"}","question_order":"[0]","trial_type":"survey-multi-choice","trial_index":31,"time_elapsed":963364,"internal_node_id":"0.0-5.0-26.0"},{"rt":3012.7000000029802,"response":{"pregunta1 likert":2},"question_order":[0],"trial_type":"survey-likert","trial_index":32,"time_elapsed":966379,"internal_node_id":"0.0-5.0-27.0"},{"rt":38380.90000000596,"responses":"{\"pregunta7\":\"a) ritualistas y obsesivos.\"}","question_order":"[0]","trial_type":"survey-multi-choice","trial_index":33,"time_elapsed":1004763,"internal_node_id":"0.0-5.0-28.0"},{"rt":2158.7999999970198,"response":{"pregunta7 likert":1},"question_order":[0],"trial_type":"survey-likert","trial_index":34,"time_elapsed":1006925,"internal_node_id":"0.0-5.0-29.0"},{"rt":44174.70000000298,"responses":"{\"pregunta10\":\"c) A la conveniencia de no postergar el descanso personal.\"}","question_order":"[0]","trial_type":"survey-multi-choice","trial_index":35,"time_elapsed":1051103,"internal_node_id":"0.0-5.0-30.0"},{"rt":1894.7999999970198,"response":{"pregunta10 likert":2},"question_order":[0],"trial_type":"survey-likert","trial_index":36,"time_elapsed":1053001,"internal_node_id":"0.0-5.0-31.0"},{"rt":3165.0999999940395,"responses":"{\"pregunta3\":\"b) La escritura olvida los momentos insignificantes de los viajes.\"}","question_order":"[0]","trial_type":"survey-multi-choice","trial_index":37,"time_elapsed":1056169,"internal_node_id":"0.0-5.0-32.0"},{"rt":2190.6000000089407,"response":{"pregunta3 likert":1},"question_order":[0],"trial_type":"survey-likert","trial_index":38,"time_elapsed":1058363,"internal_node_id":"0.0-5.0-33.0"},{"rt":13093,"responses":"{\"pregunta2\":\"b) A la relación entre civilización y sociedad.\"}","question_order":"[0]","trial_type":"survey-multi-choice","trial_index":39,"time_elapsed":1071459,"internal_node_id":"0.0-5.0-34.0"},{"rt":1635,"response":{"pregunta2 likert":2},"question_order":[0],"trial_type":"survey-likert","trial_index":40,"time_elapsed":1073097,"internal_node_id":"0.0-5.0-35.0"},{"rt":2233.2000000029802,"responses":"{\"pregunta16\":\"b) tienen mayores niveles de relaxín.\"}","question_order":"[0]","trial_type":"survey-multi-choice","trial_index":41,"time_elapsed":1075333,"internal_node_id":"0.0-5.0-36.0"},{"rt":1501,"response":{"pregunta16 likert":1},"question_order":[0],"trial_type":"survey-likert","trial_index":42,"time_elapsed":1076837,"internal_node_id":"0.0-5.0-37.0"},{"rt":10869,"responses":"{\"pregunta9\":\"a) Revivir un periodo histórico.\"}","question_order":"[0]","trial_type":"survey-multi-choice","trial_index":43,"time_elapsed":1087709,"internal_node_id":"0.0-5.0-38.0"},{"rt":1048.9000000059605,"response":{"pregunta9 likert":2},"question_order":[0],"trial_type":"survey-likert","trial_index":44,"time_elapsed":1088761,"internal_node_id":"0.0-5.0-39.0"}]