[{"rt":247852,"stimulus":"<h1 style=\"color:red; margin-top: 3%;\">¡Bienvenido(a)!</h1><p style=\"text-align:left; justify-content:space-between; margin-right: 5%; margin-left: 5%; margin-top: 5%\"> Antes de empezar el estudio, necesitamos que nos confirmes que estás de acuerdo con participar. Recuerda que tu participación es 100% voluntaria y que lo único que te pedimos es responder lo mejor que puedas. Recuerda también que el estudio incluye:</p><ol style=\"text-align:left; justify-content:space-between; margin-right: 5%; margin-left: 5%;\"><li> un ejercicio de resolución de preguntas de selección múltiple (30’),</li><li>un cuestionario breve (5’),</li><li>un juego muy breve (3’),</li></ol><p style=\"text-align:left; justify-content:space-between; margin-right: 5%; margin-left: 5%;\">Si quieres participar, haz clic en “Acepto” luego de leer lo siguiente:<br></p><p style=\"text-align:left; justify-content:space-between; margin-right: 5%; margin-left: 5%;\">Acepto participar en el estudio “Estrategias de lectura y resolución de preguntas de selección múltiple”, en los términos aquí señalados:<br></p><p style=\"text-align:left; justify-content:space-between; margin-right: 5%; margin-left: 5%;\"><a href=\"http://ciae.uchile.cl/download.php?file=noticias/Asentimiento.pdf\" target=\"_blank\">Link a la hoja de información del Consentimiento.</a></p><p style=\"text-align:left; justify-content:space-between; margin-right: 5%; margin-left: 5%;\">Declaro que he leído (o se me ha leído) y (he) comprendido, las condiciones de mi participación en este estudio. He tenido la oportunidad de hacer preguntas y éstas han sido respondidas. No tengo dudas al respecto.</p>","response":0,"condicion_MCQ":16,"condicion_JUEGO":76,"condicion_INTER":4,"numero_participante":76,"numero_version":1,"dimx":1536,"dimy":864,"color_profundidad":24,"pixel_profundidad":24,"Browser":"Mozilla Firefox","dia":23,"mes":5,"hora":12,"minuto":53,"segundo":40,"trial_type":"html-button-response","trial_index":0,"time_elapsed":247854,"internal_node_id":"0.0-0.0"},{"success":true,"trial_type":"fullscreen","trial_index":1,"time_elapsed":261613,"internal_node_id":"0.0-1.0"},{"rt":102020,"responses":"{\"Nombres\":\"Camila\",\"Apellidos\":\"Jiménez Toro\",\"Edad\":\"32\",\"Sexo\":\"mujer\",\"Curso\":\"101\",\"Colegio\":\"Universidad Andrés Bello\",\"Contacto\":\"camjimenezt88@gmail.com\"}","trial_type":"survey-text","trial_index":2,"time_elapsed":363640,"internal_node_id":"0.0-2.0"},{"success":true,"timeout":false,"failed_images":[],"failed_audio":[],"failed_video":[],"trial_type":"preload","trial_index":3,"time_elapsed":365273,"internal_node_id":"0.0-3.0"},{"rt":55937,"stimulus":"<h1 style:\"margin-top: 5%;\">Ejercicios de Comprensión de Lectura de la Universidad de Chile</h1><p style=\"font-size: 120%;\">En esta actividad, debes responder 20 preguntas de selección múltiple. Cada pregunta presenta 5 respuestas alternativas, pero sólo una de ellas es correcta. Por lo tanto, debes escoger una sola alternativa para cada pregunta. Además, debes reportar qué tan seguro(a) estás de la respuesta que das, con un:</p><ol style=\"font-size: 120%;text-align:left;margin-left: 40%;\"><li>No estoy seguro(a) para nada</li><li>No estoy muy seguro(a)</li><li>Estoy bastante seguro(a)</li><li>Estoy totalmente seguro(a)</li></ol><p style=\"font-size: 120%;\">Por favor lee bien los enunciados antes de responder. ¡Éxito!</p>","response":0,"trial_type":"html-button-response","trial_index":4,"time_elapsed":421212,"internal_node_id":"0.0-4.0"},{"rt":111679,"responses":"{\"pregunta19\":\"d) el jardinero estará muerto al día siguiente.\"}","question_order":"[0]","trial_type":"survey-multi-choice","trial_index":5,"time_elapsed":532892,"internal_node_id":"0.0-5.0-0.0"},{"rt":5136,"response":{"pregunta19 likert":2},"question_order":[0],"trial_type":"survey-likert","trial_index":6,"time_elapsed":538030,"internal_node_id":"0.0-5.0-1.0"},{"rt":88422,"responses":"{\"pregunta1\":\"d) Aportan informaciones con las que se reconstruye el personaje dentro de un relato.\"}","question_order":"[0]","trial_type":"survey-multi-choice","trial_index":7,"time_elapsed":626452,"internal_node_id":"0.0-5.0-2.0"},{"rt":2599,"response":{"pregunta1 likert":2},"question_order":[0],"trial_type":"survey-likert","trial_index":8,"time_elapsed":629052,"internal_node_id":"0.0-5.0-3.0"},{"rt":237813,"responses":"{\"pregunta10\":\"e) Al deseo de privilegiar el ocio por sobre el trabajo.\"}","question_order":"[0]","trial_type":"survey-multi-choice","trial_index":9,"time_elapsed":866867,"internal_node_id":"0.0-5.0-4.0"},{"rt":4359,"response":{"pregunta10 likert":1},"question_order":[0],"trial_type":"survey-likert","trial_index":10,"time_elapsed":871228,"internal_node_id":"0.0-5.0-5.0"},{"rt":194967,"responses":"{\"pregunta9\":\"a) Homenajear a quienes murieron.\"}","question_order":"[0]","trial_type":"survey-multi-choice","trial_index":11,"time_elapsed":1066196,"internal_node_id":"0.0-5.0-6.0"},{"rt":7942,"response":{"pregunta9 likert":1},"question_order":[0],"trial_type":"survey-likert","trial_index":12,"time_elapsed":1074140,"internal_node_id":"0.0-5.0-7.0"},{"rt":96631,"responses":"{\"pregunta20\":\"d) para el mexicano, la muerte es cotidiana.\"}","question_order":"[0]","trial_type":"survey-multi-choice","trial_index":13,"time_elapsed":1170772,"internal_node_id":"0.0-5.0-8.0"},{"rt":1990,"response":{"pregunta20 likert":2},"question_order":[0],"trial_type":"survey-likert","trial_index":14,"time_elapsed":1172763,"internal_node_id":"0.0-5.0-9.0"},{"rt":115655,"responses":"{\"pregunta5\":\"a) La conducta de un hombre en un asilo es idéntica a la de un hombre en un campo de concentración.\"}","question_order":"[0]","trial_type":"survey-multi-choice","trial_index":15,"time_elapsed":1288420,"internal_node_id":"0.0-5.0-10.0"},{"rt":3991,"response":{"pregunta5 likert":2},"question_order":[0],"trial_type":"survey-likert","trial_index":16,"time_elapsed":1292411,"internal_node_id":"0.0-5.0-11.0"},{"rt":117438,"responses":"{\"pregunta18\":\"d) Se necesita un marco legal para delimitar lo público y lo privado en materia informativa.\"}","question_order":"[0]","trial_type":"survey-multi-choice","trial_index":17,"time_elapsed":1409850,"internal_node_id":"0.0-5.0-12.0"},{"rt":3895,"response":{"pregunta18 likert":2},"question_order":[0],"trial_type":"survey-likert","trial_index":18,"time_elapsed":1413747,"internal_node_id":"0.0-5.0-13.0"},{"rt":123871,"responses":"{\"pregunta6\":\"a) preparar los recuerdos del mañana.\"}","question_order":"[0]","trial_type":"survey-multi-choice","trial_index":19,"time_elapsed":1537619,"internal_node_id":"0.0-5.0-14.0"},{"rt":2256,"response":{"pregunta6 likert":3},"question_order":[0],"trial_type":"survey-likert","trial_index":20,"time_elapsed":1539875,"internal_node_id":"0.0-5.0-15.0"},{"rt":300032,"responses":"{\"pregunta14\":\"d) A la temática satánica de las canciones del grupo.\"}","question_order":"[0]","trial_type":"survey-multi-choice","trial_index":21,"time_elapsed":1839909,"internal_node_id":"0.0-5.0-16.0"},{"rt":3260,"response":{"pregunta14 likert":2},"question_order":[0],"trial_type":"survey-likert","trial_index":22,"time_elapsed":1843171,"internal_node_id":"0.0-5.0-17.0"},{"rt":103245,"responses":"{\"pregunta2\":\"a) A la relación entre sociedad y constitución social.\"}","question_order":"[0]","trial_type":"survey-multi-choice","trial_index":23,"time_elapsed":1946419,"internal_node_id":"0.0-5.0-18.0"},{"rt":3566,"response":{"pregunta2 likert":2},"question_order":[0],"trial_type":"survey-likert","trial_index":24,"time_elapsed":1949987,"internal_node_id":"0.0-5.0-19.0"},{"rt":97237,"responses":"{\"pregunta11\":\"b) el mejor emperador es el que está muerto.\"}","question_order":"[0]","trial_type":"survey-multi-choice","trial_index":25,"time_elapsed":2047225,"internal_node_id":"0.0-5.0-20.0"},{"rt":4806,"response":{"pregunta11 likert":2},"question_order":[0],"trial_type":"survey-likert","trial_index":26,"time_elapsed":2052033,"internal_node_id":"0.0-5.0-21.0"},{"rt":657424,"responses":"{\"pregunta16\":\"d) llevan un control grupal de su embarazo.\"}","question_order":"[0]","trial_type":"survey-multi-choice","trial_index":27,"time_elapsed":2709459,"internal_node_id":"0.0-5.0-22.0"},{"rt":2252,"response":{"pregunta16 likert":1},"question_order":[0],"trial_type":"survey-likert","trial_index":28,"time_elapsed":2711713,"internal_node_id":"0.0-5.0-23.0"},{"rt":96006,"responses":"{\"pregunta7\":\"a) ritualistas y obsesivos.\"}","question_order":"[0]","trial_type":"survey-multi-choice","trial_index":29,"time_elapsed":2807721,"internal_node_id":"0.0-5.0-24.0"},{"rt":2726,"response":{"pregunta7 likert":2},"question_order":[0],"trial_type":"survey-likert","trial_index":30,"time_elapsed":2810449,"internal_node_id":"0.0-5.0-25.0"},{"rt":621680,"responses":"{\"pregunta3\":\"e) Los momentos triviales de los viajes, en la escritura se vuelven significativos.\"}","question_order":"[0]","trial_type":"survey-multi-choice","trial_index":31,"time_elapsed":3432131,"internal_node_id":"0.0-5.0-26.0"},{"rt":2258,"response":{"pregunta3 likert":2},"question_order":[0],"trial_type":"survey-likert","trial_index":32,"time_elapsed":3434392,"internal_node_id":"0.0-5.0-27.0"},{"rt":139022,"responses":"{\"pregunta15\":\"c) El receptor es habitualmente pasivo frente a la publicidad.\"}","question_order":"[0]","trial_type":"survey-multi-choice","trial_index":33,"time_elapsed":3573415,"internal_node_id":"0.0-5.0-28.0"},{"rt":2047,"response":{"pregunta15 likert":2},"question_order":[0],"trial_type":"survey-likert","trial_index":34,"time_elapsed":3575464,"internal_node_id":"0.0-5.0-29.0"},{"rt":108078,"responses":"{\"pregunta17\":\"d) Será difícil que las empresas nacionales compitan con las estadounidenses.\"}","question_order":"[0]","trial_type":"survey-multi-choice","trial_index":35,"time_elapsed":3683543,"internal_node_id":"0.0-5.0-30.0"},{"rt":2032,"response":{"pregunta17 likert":1},"question_order":[0],"trial_type":"survey-likert","trial_index":36,"time_elapsed":3685575,"internal_node_id":"0.0-5.0-31.0"},{"rt":73159,"responses":"{\"pregunta4\":\"c) Presentar positivamente las diversas tendencias del diseño de interiores a través de un comentario.\"}","question_order":"[0]","trial_type":"survey-multi-choice","trial_index":37,"time_elapsed":3758736,"internal_node_id":"0.0-5.0-32.0"},{"rt":2310,"response":{"pregunta4 likert":2},"question_order":[0],"trial_type":"survey-likert","trial_index":38,"time_elapsed":3761046,"internal_node_id":"0.0-5.0-33.0"},{"rt":196031,"responses":"{\"pregunta13\":\"b) Bomberos debería tener acceso a un seguro médico, al que pueda recurrir en caso de accidente.\"}","question_order":"[0]","trial_type":"survey-multi-choice","trial_index":39,"time_elapsed":3957079,"internal_node_id":"0.0-5.0-34.0"},{"rt":3294,"response":{"pregunta13 likert":2},"question_order":[0],"trial_type":"survey-likert","trial_index":40,"time_elapsed":3960374,"internal_node_id":"0.0-5.0-35.0"},{"rt":83208,"responses":"{\"pregunta8\":\"a) Provocar el deseo de la adquisición vertiginosa.\"}","question_order":"[0]","trial_type":"survey-multi-choice","trial_index":41,"time_elapsed":4043582,"internal_node_id":"0.0-5.0-36.0"},{"rt":2477,"response":{"pregunta8 likert":3},"question_order":[0],"trial_type":"survey-likert","trial_index":42,"time_elapsed":4046062,"internal_node_id":"0.0-5.0-37.0"},{"rt":125606,"responses":"{\"pregunta12\":\"d) la creación de elementos químicos artificiales ha resultado de la manipulación del uranio.\"}","question_order":"[0]","trial_type":"survey-multi-choice","trial_index":43,"time_elapsed":4171670,"internal_node_id":"0.0-5.0-38.0"},{"rt":4303,"response":{"pregunta12 likert":1},"question_order":[0],"trial_type":"survey-likert","trial_index":44,"time_elapsed":4175974,"internal_node_id":"0.0-5.0-39.0"}]