[{"rt":15393,"stimulus":"<h1 style=\"color:red; margin-top: 3%;\">¡Bienvenido(a)!</h1><p style=\"text-align:left; justify-content:space-between; margin-right: 5%; margin-left: 5%; margin-top: 5%\"> Antes de empezar el estudio, necesitamos que nos confirmes que estás de acuerdo con participar. Recuerda que tu participación es 100% voluntaria y que lo único que te pedimos es responder lo mejor que puedas. Recuerda también que el estudio incluye:</p><ol style=\"text-align:left; justify-content:space-between; margin-right: 5%; margin-left: 5%;\"><li> un ejercicio de resolución de preguntas de selección múltiple (30’),</li><li>un cuestionario breve (5’),</li><li>un juego muy breve (3’),</li></ol><p style=\"text-align:left; justify-content:space-between; margin-right: 5%; margin-left: 5%;\">Si quieres participar, haz clic en “Acepto” luego de leer lo siguiente:<br></p><p style=\"text-align:left; justify-content:space-between; margin-right: 5%; margin-left: 5%;\">Acepto participar en el estudio “Estrategias de lectura y resolución de preguntas de selección múltiple”, en los términos aquí señalados:<br></p><p style=\"text-align:left; justify-content:space-between; margin-right: 5%; margin-left: 5%;\"><a href=\"http://ciae.uchile.cl/download.php?file=noticias/Asentimiento.pdf\" target=\"_blank\">Link a la hoja de información del Consentimiento.</a></p><p style=\"text-align:left; justify-content:space-between; margin-right: 5%; margin-left: 5%;\">Declaro que he leído (o se me ha leído) y (he) comprendido, las condiciones de mi participación en este estudio. He tenido la oportunidad de hacer preguntas y éstas han sido respondidas. No tengo dudas al respecto.</p>","response":0,"condicion_MCQ":19,"condicion_JUEGO":39,"condicion_INTER":15,"numero_participante":39,"numero_version":1,"dimx":1440,"dimy":900,"color_profundidad":24,"pixel_profundidad":24,"Browser":"Google Chrome","dia":18,"mes":5,"hora":21,"minuto":37,"segundo":34,"trial_type":"html-button-response","trial_index":0,"time_elapsed":15397,"internal_node_id":"0.0-0.0"},{"success":true,"trial_type":"fullscreen","trial_index":1,"time_elapsed":20102,"internal_node_id":"0.0-1.0"},{"rt":68769,"responses":"{\"Nombres\":\"valentina \",\"Apellidos\":\"loi nuñez del prado\",\"Edad\":\"19\",\"Sexo\":\"mujer\",\"Curso\":\"seccion 1236\",\"Colegio\":\"andres bello\",\"Contacto\":\"valentinaloi04@gmail.com\"}","trial_type":"survey-text","trial_index":2,"time_elapsed":88882,"internal_node_id":"0.0-2.0"},{"success":true,"timeout":false,"failed_images":[],"failed_audio":[],"failed_video":[],"trial_type":"preload","trial_index":3,"time_elapsed":89813,"internal_node_id":"0.0-3.0"},{"rt":11218.100000023842,"stimulus":"<h1 style:\"margin-top: 5%;\">Ejercicios de Comprensión de Lectura de la Universidad de Chile</h1><p style=\"font-size: 120%;\">En esta actividad, debes responder 20 preguntas de selección múltiple. Cada pregunta presenta 5 respuestas alternativas, pero sólo una de ellas es correcta. Por lo tanto, debes escoger una sola alternativa para cada pregunta. Además, debes reportar qué tan seguro(a) estás de la respuesta que das, con un:</p><ol style=\"font-size: 120%;text-align:left;margin-left: 40%;\"><li>No estoy seguro(a) para nada</li><li>No estoy muy seguro(a)</li><li>Estoy bastante seguro(a)</li><li>Estoy totalmente seguro(a)</li></ol><p style=\"font-size: 120%;\">Por favor lee bien los enunciados antes de responder. ¡Éxito!</p>","response":0,"trial_type":"html-button-response","trial_index":4,"time_elapsed":101032,"internal_node_id":"0.0-4.0"},{"rt":19297.29999998212,"responses":"{\"pregunta20\":\"e) para el mexicano, la muerte es cotidiana.\"}","question_order":"[0]","trial_type":"survey-multi-choice","trial_index":5,"time_elapsed":120333,"internal_node_id":"0.0-5.0-0.0"},{"rt":3291.899999976158,"response":{"pregunta20 likert":2},"question_order":[0],"trial_type":"survey-likert","trial_index":6,"time_elapsed":123629,"internal_node_id":"0.0-5.0-1.0"},{"rt":24238.20000001788,"responses":"{\"pregunta17\":\"e) Será difícil que las empresas nacionales compitan con las estadounidenses.\"}","question_order":"[0]","trial_type":"survey-multi-choice","trial_index":7,"time_elapsed":147870,"internal_node_id":"0.0-5.0-2.0"},{"rt":3213.300000011921,"response":{"pregunta17 likert":2},"question_order":[0],"trial_type":"survey-likert","trial_index":8,"time_elapsed":151086,"internal_node_id":"0.0-5.0-3.0"},{"rt":30042.70000001788,"responses":"{\"pregunta14\":\"c) A la influencia de grupos que rechazaban su música.\"}","question_order":"[0]","trial_type":"survey-multi-choice","trial_index":9,"time_elapsed":181133,"internal_node_id":"0.0-5.0-4.0"},{"rt":2362.9000000059605,"response":{"pregunta14 likert":2},"question_order":[0],"trial_type":"survey-likert","trial_index":10,"time_elapsed":183499,"internal_node_id":"0.0-5.0-5.0"},{"rt":52754.70000001788,"responses":"{\"pregunta15\":\"a) La publicidad es dañina para sus receptores.\"}","question_order":"[0]","trial_type":"survey-multi-choice","trial_index":11,"time_elapsed":236258,"internal_node_id":"0.0-5.0-6.0"},{"rt":3153,"response":{"pregunta15 likert":2},"question_order":[0],"trial_type":"survey-likert","trial_index":12,"time_elapsed":239414,"internal_node_id":"0.0-5.0-7.0"},{"rt":54167.40000000596,"responses":"{\"pregunta6\":\"a) preparar los recuerdos del mañana.\"}","question_order":"[0]","trial_type":"survey-multi-choice","trial_index":13,"time_elapsed":293586,"internal_node_id":"0.0-5.0-8.0"},{"rt":1949.4000000059605,"response":{"pregunta6 likert":1},"question_order":[0],"trial_type":"survey-likert","trial_index":14,"time_elapsed":295539,"internal_node_id":"0.0-5.0-9.0"},{"rt":49176.59999999404,"responses":"{\"pregunta12\":\"c) el uranio es el elemento natural con el mayor número de protones en el núcleo.\"}","question_order":"[0]","trial_type":"survey-multi-choice","trial_index":15,"time_elapsed":344720,"internal_node_id":"0.0-5.0-10.0"},{"rt":2492.100000023842,"response":{"pregunta12 likert":2},"question_order":[0],"trial_type":"survey-likert","trial_index":16,"time_elapsed":347214,"internal_node_id":"0.0-5.0-11.0"},{"rt":45890.59999999404,"responses":"{\"pregunta9\":\"b) Homenajear a quienes murieron.\"}","question_order":"[0]","trial_type":"survey-multi-choice","trial_index":17,"time_elapsed":393108,"internal_node_id":"0.0-5.0-12.0"},{"rt":1998.2999999821186,"response":{"pregunta9 likert":3},"question_order":[0],"trial_type":"survey-likert","trial_index":18,"time_elapsed":395108,"internal_node_id":"0.0-5.0-13.0"},{"rt":40019.09999999404,"responses":"{\"pregunta5\":\"c) Un asilo y un campo de concentración son instituciones similares.\"}","question_order":"[0]","trial_type":"survey-multi-choice","trial_index":19,"time_elapsed":435130,"internal_node_id":"0.0-5.0-14.0"},{"rt":2844.300000011921,"response":{"pregunta5 likert":1},"question_order":[0],"trial_type":"survey-likert","trial_index":20,"time_elapsed":437977,"internal_node_id":"0.0-5.0-15.0"},{"rt":46793.70000001788,"responses":"{\"pregunta11\":\"c) el mejor emperador es el que está muerto.\"}","question_order":"[0]","trial_type":"survey-multi-choice","trial_index":21,"time_elapsed":484774,"internal_node_id":"0.0-5.0-16.0"},{"rt":2171,"response":{"pregunta11 likert":3},"question_order":[0],"trial_type":"survey-likert","trial_index":22,"time_elapsed":486948,"internal_node_id":"0.0-5.0-17.0"},{"rt":33718.59999999404,"responses":"{\"pregunta19\":\"e) el jardinero estará muerto al día siguiente.\"}","question_order":"[0]","trial_type":"survey-multi-choice","trial_index":23,"time_elapsed":520670,"internal_node_id":"0.0-5.0-18.0"},{"rt":3060.9000000059605,"response":{"pregunta19 likert":3},"question_order":[0],"trial_type":"survey-likert","trial_index":24,"time_elapsed":523733,"internal_node_id":"0.0-5.0-19.0"},{"rt":41963.30000001192,"responses":"{\"pregunta2\":\"d) A la relación entre sociedad y constitución social.\"}","question_order":"[0]","trial_type":"survey-multi-choice","trial_index":25,"time_elapsed":565700,"internal_node_id":"0.0-5.0-20.0"},{"rt":2026.5999999940395,"response":{"pregunta2 likert":2},"question_order":[0],"trial_type":"survey-likert","trial_index":26,"time_elapsed":567729,"internal_node_id":"0.0-5.0-21.0"},{"rt":67644.80000001192,"responses":"{\"pregunta8\":\"c) Deleitar a sus receptores por medio de la belleza y el confort.\"}","question_order":"[0]","trial_type":"survey-multi-choice","trial_index":27,"time_elapsed":635379,"internal_node_id":"0.0-5.0-22.0"},{"rt":9999.199999988079,"response":{"pregunta8 likert":3},"question_order":[0],"trial_type":"survey-likert","trial_index":28,"time_elapsed":645381,"internal_node_id":"0.0-5.0-23.0"},{"rt":82862.09999999404,"responses":"{\"pregunta7\":\"b) ritualistas y obsesivos.\"}","question_order":"[0]","trial_type":"survey-multi-choice","trial_index":29,"time_elapsed":728248,"internal_node_id":"0.0-5.0-24.0"},{"rt":2227.199999988079,"response":{"pregunta7 likert":3},"question_order":[0],"trial_type":"survey-likert","trial_index":30,"time_elapsed":730478,"internal_node_id":"0.0-5.0-25.0"},{"rt":64234.29999998212,"responses":"{\"pregunta10\":\"c) A la conveniencia de no postergar el descanso personal.\"}","question_order":"[0]","trial_type":"survey-multi-choice","trial_index":31,"time_elapsed":794769,"internal_node_id":"0.0-5.0-26.0"},{"rt":2386.7000000178814,"response":{"pregunta10 likert":3},"question_order":[0],"trial_type":"survey-likert","trial_index":32,"time_elapsed":797159,"internal_node_id":"0.0-5.0-27.0"},{"rt":40648,"responses":"{\"pregunta1\":\"e) Aportan informaciones con las que se reconstruye el personaje dentro de un relato.\"}","question_order":"[0]","trial_type":"survey-multi-choice","trial_index":33,"time_elapsed":837810,"internal_node_id":"0.0-5.0-28.0"},{"rt":2323.399999976158,"response":{"pregunta1 likert":3},"question_order":[0],"trial_type":"survey-likert","trial_index":34,"time_elapsed":840136,"internal_node_id":"0.0-5.0-29.0"},{"rt":968391.7000000179,"responses":"{\"pregunta3\":\"a) Los momentos triviales de los viajes, en la escritura se vuelven significativos.\"}","question_order":"[0]","trial_type":"survey-multi-choice","trial_index":35,"time_elapsed":1962393,"internal_node_id":"0.0-5.0-30.0"},{"rt":2159,"response":{"pregunta3 likert":1},"question_order":[0],"trial_type":"survey-likert","trial_index":36,"time_elapsed":1964554,"internal_node_id":"0.0-5.0-31.0"},{"rt":62407.90000000596,"responses":"{\"pregunta16\":\"d) sufren dolores de espalda.\"}","question_order":"[0]","trial_type":"survey-multi-choice","trial_index":37,"time_elapsed":2026966,"internal_node_id":"0.0-5.0-32.0"},{"rt":2215.5999999940395,"response":{"pregunta16 likert":3},"question_order":[0],"trial_type":"survey-likert","trial_index":38,"time_elapsed":2029184,"internal_node_id":"0.0-5.0-33.0"},{"rt":60671.70000001788,"responses":"{\"pregunta4\":\"a) Promover la asistencia a un evento específico de decoración a través de una atractiva descripción.\"}","question_order":"[0]","trial_type":"survey-multi-choice","trial_index":39,"time_elapsed":2089859,"internal_node_id":"0.0-5.0-34.0"},{"rt":1790.0999999940395,"response":{"pregunta4 likert":3},"question_order":[0],"trial_type":"survey-likert","trial_index":40,"time_elapsed":2091652,"internal_node_id":"0.0-5.0-35.0"},{"rt":26023.69999998808,"responses":"{\"pregunta13\":\"e) Bomberos necesita ser defendido de la injusticia social que reina en el país.\"}","question_order":"[0]","trial_type":"survey-multi-choice","trial_index":41,"time_elapsed":2117678,"internal_node_id":"0.0-5.0-36.0"},{"rt":5278.300000011921,"response":{"pregunta13 likert":2},"question_order":[0],"trial_type":"survey-likert","trial_index":42,"time_elapsed":2122959,"internal_node_id":"0.0-5.0-37.0"},{"rt":29654.59999999404,"responses":"{\"pregunta18\":\"d) Se necesita un marco legal para delimitar lo público y lo privado en materia informativa.\"}","question_order":"[0]","trial_type":"survey-multi-choice","trial_index":43,"time_elapsed":2152617,"internal_node_id":"0.0-5.0-38.0"},{"rt":2792.600000023842,"response":{"pregunta18 likert":3},"question_order":[0],"trial_type":"survey-likert","trial_index":44,"time_elapsed":2155412,"internal_node_id":"0.0-5.0-39.0"}]