[{"rt":597991.8999999762,"stimulus":"<h1 style=\"color:red; margin-top: 3%;\">¡Bienvenido(a)!</h1><p style=\"text-align:left; justify-content:space-between; margin-right: 5%; margin-left: 5%; margin-top: 5%\"> Antes de empezar el estudio, necesitamos que nos confirmes que estás de acuerdo con participar. Recuerda que tu participación es 100% voluntaria y que lo único que te pedimos es responder lo mejor que puedas. Recuerda también que el estudio incluye:</p><ol style=\"text-align:left; justify-content:space-between; margin-right: 5%; margin-left: 5%;\"><li> un ejercicio de resolución de preguntas de selección múltiple (30’),</li><li>un cuestionario breve (5’),</li><li>un juego muy breve (3’),</li></ol><p style=\"text-align:left; justify-content:space-between; margin-right: 5%; margin-left: 5%;\">Si quieres participar, haz clic en “Acepto” luego de leer lo siguiente:<br></p><p style=\"text-align:left; justify-content:space-between; margin-right: 5%; margin-left: 5%;\">Acepto participar en el estudio “Estrategias de lectura y resolución de preguntas de selección múltiple”, en los términos aquí señalados:<br></p><p style=\"text-align:left; justify-content:space-between; margin-right: 5%; margin-left: 5%;\"><a href=\"http://ciae.uchile.cl/download.php?file=noticias/Asentimiento.pdf\" target=\"_blank\">Link a la hoja de información del Consentimiento.</a></p><p style=\"text-align:left; justify-content:space-between; margin-right: 5%; margin-left: 5%;\">Declaro que he leído (o se me ha leído) y (he) comprendido, las condiciones de mi participación en este estudio. He tenido la oportunidad de hacer preguntas y éstas han sido respondidas. No tengo dudas al respecto.</p>","response":0,"condicion_MCQ":15,"condicion_JUEGO":75,"condicion_INTER":3,"numero_participante":75,"numero_version":2,"dimx":1366,"dimy":768,"color_profundidad":24,"pixel_profundidad":24,"Browser":"Google Chrome","dia":23,"mes":5,"hora":13,"minuto":58,"segundo":29,"trial_type":"html-button-response","trial_index":0,"time_elapsed":598006,"internal_node_id":"0.0-0.0"},{"success":true,"trial_type":"fullscreen","trial_index":1,"time_elapsed":609298,"internal_node_id":"0.0-1.0"},{"rt":101239.90000009537,"responses":"{\"Nombres\":\"Cristian Daniel\",\"Apellidos\":\"Quilodrán Alfaro\",\"Edad\":\"39\",\"Sexo\":\"Hombre\",\"Curso\":\"NRC 1475\",\"Colegio\":\"UNAB\",\"Contacto\":\"c.quilodranalfaro@uandresbell.edu\"}","trial_type":"survey-text","trial_index":2,"time_elapsed":710566,"internal_node_id":"0.0-2.0"},{"success":true,"timeout":false,"failed_images":[],"failed_audio":[],"failed_video":[],"trial_type":"preload","trial_index":3,"time_elapsed":714789,"internal_node_id":"0.0-3.0"},{"rt":19328.699999928474,"stimulus":"<h1 style:\"margin-top: 5%;\">Ejercicios de Comprensión de Lectura de la Universidad de Chile</h1><p style=\"font-size: 120%;\">En esta actividad, debes responder 20 preguntas de selección múltiple. Cada pregunta presenta 5 respuestas alternativas, pero sólo una de ellas es correcta. Por lo tanto, debes escoger una sola alternativa para cada pregunta. Además, debes reportar qué tan seguro(a) estás de la respuesta que das, con un:</p><ol style=\"font-size: 120%;text-align:left;margin-left: 40%;\"><li>No estoy seguro(a) para nada</li><li>No estoy muy seguro(a)</li><li>Estoy bastante seguro(a)</li><li>Estoy totalmente seguro(a)</li></ol><p style=\"font-size: 120%;\">Por favor lee bien los enunciados antes de responder. ¡Éxito!</p>","response":0,"trial_type":"html-button-response","trial_index":4,"time_elapsed":734125,"internal_node_id":"0.0-4.0"},{"rt":69252.89999997616,"responses":"{\"pregunta8\":\"d) Mostrar personajes bellos y poderosos.\"}","question_order":"[0]","trial_type":"survey-multi-choice","trial_index":5,"time_elapsed":803386,"internal_node_id":"0.0-5.0-0.0"},{"rt":4940.199999928474,"response":{"pregunta8 likert":2},"question_order":[0],"trial_type":"survey-likert","trial_index":6,"time_elapsed":808336,"internal_node_id":"0.0-5.0-1.0"},{"rt":48675.799999952316,"responses":"{\"pregunta14\":\"b) A la influencia de grupos que rechazaban su música.\"}","question_order":"[0]","trial_type":"survey-multi-choice","trial_index":7,"time_elapsed":857014,"internal_node_id":"0.0-5.0-2.0"},{"rt":2231.0999999046326,"response":{"pregunta14 likert":3},"question_order":[0],"trial_type":"survey-likert","trial_index":8,"time_elapsed":859248,"internal_node_id":"0.0-5.0-3.0"},{"rt":180077.40000009537,"responses":"{\"pregunta1\":\"b) Entregan una característica detallada del personaje, a través de la voz narrativa.\"}","question_order":"[0]","trial_type":"survey-multi-choice","trial_index":9,"time_elapsed":1039329,"internal_node_id":"0.0-5.0-4.0"},{"rt":1884.5,"response":{"pregunta1 likert":2},"question_order":[0],"trial_type":"survey-likert","trial_index":10,"time_elapsed":1041216,"internal_node_id":"0.0-5.0-5.0"},{"rt":35142.09999990463,"responses":"{\"pregunta13\":\"b) Bomberos debería tener acceso a un seguro médico, al que pueda recurrir en caso de accidente.\"}","question_order":"[0]","trial_type":"survey-multi-choice","trial_index":11,"time_elapsed":1076360,"internal_node_id":"0.0-5.0-6.0"},{"rt":1909.7999999523163,"response":{"pregunta13 likert":3},"question_order":[0],"trial_type":"survey-likert","trial_index":12,"time_elapsed":1078272,"internal_node_id":"0.0-5.0-7.0"},{"rt":89935,"responses":"{\"pregunta16\":\"c) sufren dolores de espalda.\"}","question_order":"[0]","trial_type":"survey-multi-choice","trial_index":13,"time_elapsed":1168209,"internal_node_id":"0.0-5.0-8.0"},{"rt":1381.6000000238419,"response":{"pregunta16 likert":2},"question_order":[0],"trial_type":"survey-likert","trial_index":14,"time_elapsed":1169593,"internal_node_id":"0.0-5.0-9.0"},{"rt":35654.300000071526,"responses":"{\"pregunta18\":\"c) Se necesita un marco legal para delimitar lo público y lo privado en materia informativa.\"}","question_order":"[0]","trial_type":"survey-multi-choice","trial_index":15,"time_elapsed":1205250,"internal_node_id":"0.0-5.0-10.0"},{"rt":1877.1000000238419,"response":{"pregunta18 likert":3},"question_order":[0],"trial_type":"survey-likert","trial_index":16,"time_elapsed":1207129,"internal_node_id":"0.0-5.0-11.0"},{"rt":45405.700000047684,"responses":"{\"pregunta4\":\"e) Promover la asistencia a un evento específico de decoración a través de una atractiva descripción.\"}","question_order":"[0]","trial_type":"survey-multi-choice","trial_index":17,"time_elapsed":1252538,"internal_node_id":"0.0-5.0-12.0"},{"rt":1813.5999999046326,"response":{"pregunta4 likert":3},"question_order":[0],"trial_type":"survey-likert","trial_index":18,"time_elapsed":1254354,"internal_node_id":"0.0-5.0-13.0"},{"rt":88230.5,"responses":"{\"pregunta9\":\"a) Homenajear a quienes murieron.\"}","question_order":"[0]","trial_type":"survey-multi-choice","trial_index":19,"time_elapsed":1342588,"internal_node_id":"0.0-5.0-14.0"},{"rt":2149.1999999284744,"response":{"pregunta9 likert":3},"question_order":[0],"trial_type":"survey-likert","trial_index":20,"time_elapsed":1344740,"internal_node_id":"0.0-5.0-15.0"},{"rt":46421.39999997616,"responses":"{\"pregunta17\":\"c) Nuestra economía vivirá un proceso de ajuste a la nueva realidad.\"}","question_order":"[0]","trial_type":"survey-multi-choice","trial_index":21,"time_elapsed":1391164,"internal_node_id":"0.0-5.0-16.0"},{"rt":1317,"response":{"pregunta17 likert":2},"question_order":[0],"trial_type":"survey-likert","trial_index":22,"time_elapsed":1392484,"internal_node_id":"0.0-5.0-17.0"},{"rt":71238.29999995232,"responses":"{\"pregunta2\":\"d) A la relación entre pensamiento y estructura social.\"}","question_order":"[0]","trial_type":"survey-multi-choice","trial_index":23,"time_elapsed":1463725,"internal_node_id":"0.0-5.0-18.0"},{"rt":1285.2999999523163,"response":{"pregunta2 likert":2},"question_order":[0],"trial_type":"survey-likert","trial_index":24,"time_elapsed":1465012,"internal_node_id":"0.0-5.0-19.0"},{"rt":63263,"responses":"{\"pregunta12\":\"d) a partir de la manipulación del núcleo se han creado elementos químicos naturales.\"}","question_order":"[0]","trial_type":"survey-multi-choice","trial_index":25,"time_elapsed":1528277,"internal_node_id":"0.0-5.0-20.0"},{"rt":1501.1999999284744,"response":{"pregunta12 likert":3},"question_order":[0],"trial_type":"survey-likert","trial_index":26,"time_elapsed":1529781,"internal_node_id":"0.0-5.0-21.0"},{"rt":87158.79999995232,"responses":"{\"pregunta10\":\"c) A la conveniencia de no postergar el descanso personal.\"}","question_order":"[0]","trial_type":"survey-multi-choice","trial_index":27,"time_elapsed":1616942,"internal_node_id":"0.0-5.0-22.0"},{"rt":2389.9000000953674,"response":{"pregunta10 likert":2},"question_order":[0],"trial_type":"survey-likert","trial_index":28,"time_elapsed":1619334,"internal_node_id":"0.0-5.0-23.0"},{"rt":63357.60000002384,"responses":"{\"pregunta15\":\"c) El receptor es habitualmente pasivo frente a la publicidad.\"}","question_order":"[0]","trial_type":"survey-multi-choice","trial_index":29,"time_elapsed":1682694,"internal_node_id":"0.0-5.0-24.0"},{"rt":1870.6999999284744,"response":{"pregunta15 likert":3},"question_order":[0],"trial_type":"survey-likert","trial_index":30,"time_elapsed":1684566,"internal_node_id":"0.0-5.0-25.0"},{"rt":59566.5,"responses":"{\"pregunta7\":\"a) ritualistas y obsesivos.\"}","question_order":"[0]","trial_type":"survey-multi-choice","trial_index":31,"time_elapsed":1744146,"internal_node_id":"0.0-5.0-26.0"},{"rt":1315.1999999284744,"response":{"pregunta7 likert":2},"question_order":[0],"trial_type":"survey-likert","trial_index":32,"time_elapsed":1745464,"internal_node_id":"0.0-5.0-27.0"},{"rt":99461.39999997616,"responses":"{\"pregunta6\":\"e) preparar los recuerdos del mañana.\"}","question_order":"[0]","trial_type":"survey-multi-choice","trial_index":33,"time_elapsed":1844928,"internal_node_id":"0.0-5.0-28.0"},{"rt":1956.3000000715256,"response":{"pregunta6 likert":2},"question_order":[0],"trial_type":"survey-likert","trial_index":34,"time_elapsed":1846887,"internal_node_id":"0.0-5.0-29.0"},{"rt":87144.10000002384,"responses":"{\"pregunta3\":\"a) La escritura plasma los mejores momentos de los viajes.\"}","question_order":"[0]","trial_type":"survey-multi-choice","trial_index":35,"time_elapsed":1934033,"internal_node_id":"0.0-5.0-30.0"},{"rt":1733.7000000476837,"response":{"pregunta3 likert":2},"question_order":[0],"trial_type":"survey-likert","trial_index":36,"time_elapsed":1935768,"internal_node_id":"0.0-5.0-31.0"},{"rt":85990,"responses":"{\"pregunta19\":\"d) el jardinero estará muerto al día siguiente.\"}","question_order":"[0]","trial_type":"survey-multi-choice","trial_index":37,"time_elapsed":2021760,"internal_node_id":"0.0-5.0-32.0"},{"rt":2343.7999999523163,"response":{"pregunta19 likert":3},"question_order":[0],"trial_type":"survey-likert","trial_index":38,"time_elapsed":2024105,"internal_node_id":"0.0-5.0-33.0"},{"rt":69918.20000004768,"responses":"{\"pregunta5\":\"e) El ser humano se comporta de acuerdo con las circunstancias.\"}","question_order":"[0]","trial_type":"survey-multi-choice","trial_index":39,"time_elapsed":2094026,"internal_node_id":"0.0-5.0-34.0"},{"rt":3237.6999999284744,"response":{"pregunta5 likert":3},"question_order":[0],"trial_type":"survey-likert","trial_index":40,"time_elapsed":2097266,"internal_node_id":"0.0-5.0-35.0"},{"rt":72750.20000004768,"responses":"{\"pregunta11\":\"e) sólo las leyes bastan para gobernarse.\"}","question_order":"[0]","trial_type":"survey-multi-choice","trial_index":41,"time_elapsed":2170019,"internal_node_id":"0.0-5.0-36.0"},{"rt":1548.8999999761581,"response":{"pregunta11 likert":2},"question_order":[0],"trial_type":"survey-likert","trial_index":42,"time_elapsed":2171570,"internal_node_id":"0.0-5.0-37.0"},{"rt":39525.89999997616,"responses":"{\"pregunta20\":\"d) para el mexicano, la muerte es cotidiana.\"}","question_order":"[0]","trial_type":"survey-multi-choice","trial_index":43,"time_elapsed":2211099,"internal_node_id":"0.0-5.0-38.0"},{"rt":1614.1000000238419,"response":{"pregunta20 likert":2},"question_order":[0],"trial_type":"survey-likert","trial_index":44,"time_elapsed":2212715,"internal_node_id":"0.0-5.0-39.0"}]