[{"rt":7567.299999952316,"stimulus":"<h1 style=\"color:red; margin-top: 3%;\">¡Bienvenido(a)!</h1><p style=\"text-align:left; justify-content:space-between; margin-right: 5%; margin-left: 5%; margin-top: 5%\"> Antes de empezar el estudio, necesitamos que nos confirmes que estás de acuerdo con participar. Recuerda que tu participación es 100% voluntaria y que lo único que te pedimos es responder lo mejor que puedas. Recuerda también que el estudio incluye:</p><ol style=\"text-align:left; justify-content:space-between; margin-right: 5%; margin-left: 5%;\"><li> un ejercicio de resolución de preguntas de selección múltiple (30’),</li><li>un cuestionario breve (5’),</li><li>un juego muy breve (3’),</li></ol><p style=\"text-align:left; justify-content:space-between; margin-right: 5%; margin-left: 5%;\">Si quieres participar, haz clic en “Acepto” luego de leer lo siguiente:<br></p><p style=\"text-align:left; justify-content:space-between; margin-right: 5%; margin-left: 5%;\">Acepto participar en el estudio “Estrategias de lectura y resolución de preguntas de selección múltiple”, en los términos aquí señalados:<br></p><p style=\"text-align:left; justify-content:space-between; margin-right: 5%; margin-left: 5%;\"><a href=\"http://ciae.uchile.cl/download.php?file=noticias/Asentimiento.pdf\" target=\"_blank\">Link a la hoja de información del Consentimiento.</a></p><p style=\"text-align:left; justify-content:space-between; margin-right: 5%; margin-left: 5%;\">Declaro que he leído (o se me ha leído) y (he) comprendido, las condiciones de mi participación en este estudio. He tenido la oportunidad de hacer preguntas y éstas han sido respondidas. No tengo dudas al respecto.</p>","response":0,"condicion_MCQ":9,"condicion_JUEGO":69,"condicion_INTER":21,"numero_participante":69,"numero_version":1,"dimx":1366,"dimy":768,"color_profundidad":24,"pixel_profundidad":24,"Browser":"Google Chrome","dia":22,"mes":5,"hora":18,"minuto":39,"segundo":35,"trial_type":"html-button-response","trial_index":0,"time_elapsed":7570,"internal_node_id":"0.0-0.0"},{"success":true,"trial_type":"fullscreen","trial_index":1,"time_elapsed":20905,"internal_node_id":"0.0-1.0"},{"rt":63810.59999996424,"responses":"{\"Nombres\":\"Lucas Mateo\",\"Apellidos\":\"Carvajal Tapia\",\"Edad\":\"21\",\"Sexo\":\"hombre\",\"Curso\":\"200\",\"Colegio\":\"UNAB\",\"Contacto\":\"l.carvajaltapia@uandresbello.edu\"}","trial_type":"survey-text","trial_index":2,"time_elapsed":84720,"internal_node_id":"0.0-2.0"},{"success":true,"timeout":false,"failed_images":[],"failed_audio":[],"failed_video":[],"trial_type":"preload","trial_index":3,"time_elapsed":91684,"internal_node_id":"0.0-3.0"},{"rt":27970.400000035763,"stimulus":"<h1 style:\"margin-top: 5%;\">Ejercicios de Comprensión de Lectura de la Universidad de Chile</h1><p style=\"font-size: 120%;\">En esta actividad, debes responder 20 preguntas de selección múltiple. Cada pregunta presenta 5 respuestas alternativas, pero sólo una de ellas es correcta. Por lo tanto, debes escoger una sola alternativa para cada pregunta. Además, debes reportar qué tan seguro(a) estás de la respuesta que das, con un:</p><ol style=\"font-size: 120%;text-align:left;margin-left: 40%;\"><li>No estoy seguro(a) para nada</li><li>No estoy muy seguro(a)</li><li>Estoy bastante seguro(a)</li><li>Estoy totalmente seguro(a)</li></ol><p style=\"font-size: 120%;\">Por favor lee bien los enunciados antes de responder. ¡Éxito!</p>","response":0,"trial_type":"html-button-response","trial_index":4,"time_elapsed":119655,"internal_node_id":"0.0-4.0"},{"rt":50455.299999952316,"responses":"{\"pregunta20\":\"e) la muerte es distinta en las grandes ciudades.\"}","question_order":"[0]","trial_type":"survey-multi-choice","trial_index":5,"time_elapsed":170112,"internal_node_id":"0.0-5.0-0.0"},{"rt":4422,"response":{"pregunta20 likert":2},"question_order":[0],"trial_type":"survey-likert","trial_index":6,"time_elapsed":174536,"internal_node_id":"0.0-5.0-1.0"},{"rt":112487.09999996424,"responses":"{\"pregunta6\":\"d) preparar los recuerdos del mañana.\"}","question_order":"[0]","trial_type":"survey-multi-choice","trial_index":7,"time_elapsed":287024,"internal_node_id":"0.0-5.0-2.0"},{"rt":1958.199999988079,"response":{"pregunta6 likert":2},"question_order":[0],"trial_type":"survey-likert","trial_index":8,"time_elapsed":288984,"internal_node_id":"0.0-5.0-3.0"},{"rt":84719.30000001192,"responses":"{\"pregunta1\":\"c) Aportan informaciones con las que se reconstruye el personaje dentro de un relato.\"}","question_order":"[0]","trial_type":"survey-multi-choice","trial_index":9,"time_elapsed":373704,"internal_node_id":"0.0-5.0-4.0"},{"rt":2750.800000011921,"response":{"pregunta1 likert":3},"question_order":[0],"trial_type":"survey-likert","trial_index":10,"time_elapsed":376456,"internal_node_id":"0.0-5.0-5.0"},{"rt":63398.09999996424,"responses":"{\"pregunta7\":\"c) religiosos y precavidos.\"}","question_order":"[0]","trial_type":"survey-multi-choice","trial_index":11,"time_elapsed":439856,"internal_node_id":"0.0-5.0-6.0"},{"rt":1903,"response":{"pregunta7 likert":1},"question_order":[0],"trial_type":"survey-likert","trial_index":12,"time_elapsed":441760,"internal_node_id":"0.0-5.0-7.0"},{"rt":105702.69999998808,"responses":"{\"pregunta11\":\"c) la muerte de Wu Ti fue una bendición.\"}","question_order":"[0]","trial_type":"survey-multi-choice","trial_index":13,"time_elapsed":547463,"internal_node_id":"0.0-5.0-8.0"},{"rt":1278.3999999761581,"response":{"pregunta11 likert":2},"question_order":[0],"trial_type":"survey-likert","trial_index":14,"time_elapsed":548743,"internal_node_id":"0.0-5.0-9.0"},{"rt":73487.60000002384,"responses":"{\"pregunta17\":\"b) Nuestra economía vivirá un proceso de ajuste a la nueva realidad.\"}","question_order":"[0]","trial_type":"survey-multi-choice","trial_index":15,"time_elapsed":622232,"internal_node_id":"0.0-5.0-10.0"},{"rt":1654.7000000476837,"response":{"pregunta17 likert":2},"question_order":[0],"trial_type":"survey-likert","trial_index":16,"time_elapsed":623887,"internal_node_id":"0.0-5.0-11.0"},{"rt":83014.69999998808,"responses":"{\"pregunta14\":\"a) A la influencia de grupos que rechazaban su música.\"}","question_order":"[0]","trial_type":"survey-multi-choice","trial_index":17,"time_elapsed":706903,"internal_node_id":"0.0-5.0-12.0"},{"rt":1791,"response":{"pregunta14 likert":2},"question_order":[0],"trial_type":"survey-likert","trial_index":18,"time_elapsed":708695,"internal_node_id":"0.0-5.0-13.0"},{"rt":58655.10000002384,"responses":"{\"pregunta13\":\"d) Se debe crear un seguro médico especial para esta institución, pues es de alto riesgo.\"}","question_order":"[0]","trial_type":"survey-multi-choice","trial_index":19,"time_elapsed":767352,"internal_node_id":"0.0-5.0-14.0"},{"rt":2422.199999988079,"response":{"pregunta13 likert":2},"question_order":[0],"trial_type":"survey-likert","trial_index":20,"time_elapsed":769775,"internal_node_id":"0.0-5.0-15.0"},{"rt":131094.90000003576,"responses":"{\"pregunta19\":\"b) el jardinero estará muerto al día siguiente.\"}","question_order":"[0]","trial_type":"survey-multi-choice","trial_index":21,"time_elapsed":900872,"internal_node_id":"0.0-5.0-16.0"},{"rt":1799.199999988079,"response":{"pregunta19 likert":2},"question_order":[0],"trial_type":"survey-likert","trial_index":22,"time_elapsed":902672,"internal_node_id":"0.0-5.0-17.0"},{"rt":46742.5,"responses":"{\"pregunta18\":\"b) Se necesita un marco legal para delimitar lo público y lo privado en materia informativa.\"}","question_order":"[0]","trial_type":"survey-multi-choice","trial_index":23,"time_elapsed":949415,"internal_node_id":"0.0-5.0-18.0"},{"rt":2135.300000011921,"response":{"pregunta18 likert":2},"question_order":[0],"trial_type":"survey-likert","trial_index":24,"time_elapsed":951552,"internal_node_id":"0.0-5.0-19.0"},{"rt":114414.39999997616,"responses":"{\"pregunta15\":\"a) El receptor es habitualmente pasivo frente a la publicidad.\"}","question_order":"[0]","trial_type":"survey-multi-choice","trial_index":25,"time_elapsed":1065967,"internal_node_id":"0.0-5.0-20.0"},{"rt":4022.899999976158,"response":{"pregunta15 likert":2},"question_order":[0],"trial_type":"survey-likert","trial_index":26,"time_elapsed":1069991,"internal_node_id":"0.0-5.0-21.0"},{"rt":84022.69999998808,"responses":"{\"pregunta3\":\"b) La escritura olvida los momentos insignificantes de los viajes.\"}","question_order":"[0]","trial_type":"survey-multi-choice","trial_index":27,"time_elapsed":1154015,"internal_node_id":"0.0-5.0-22.0"},{"rt":1670.800000011921,"response":{"pregunta3 likert":1},"question_order":[0],"trial_type":"survey-likert","trial_index":28,"time_elapsed":1155687,"internal_node_id":"0.0-5.0-23.0"},{"rt":104998.89999997616,"responses":"{\"pregunta10\":\"a) A la importancia de optar entre descansar y triunfar.\"}","question_order":"[0]","trial_type":"survey-multi-choice","trial_index":29,"time_elapsed":1260687,"internal_node_id":"0.0-5.0-24.0"},{"rt":2055.100000023842,"response":{"pregunta10 likert":2},"question_order":[0],"trial_type":"survey-likert","trial_index":30,"time_elapsed":1262744,"internal_node_id":"0.0-5.0-25.0"},{"rt":77781.89999997616,"responses":"{\"pregunta5\":\"d) El ser humano se comporta de acuerdo con las circunstancias.\"}","question_order":"[0]","trial_type":"survey-multi-choice","trial_index":31,"time_elapsed":1340527,"internal_node_id":"0.0-5.0-26.0"},{"rt":1423.5999999642372,"response":{"pregunta5 likert":2},"question_order":[0],"trial_type":"survey-likert","trial_index":32,"time_elapsed":1341951,"internal_node_id":"0.0-5.0-27.0"},{"rt":321926.6999999881,"responses":"{\"pregunta4\":\"c) Promover la asistencia a un evento específico de decoración a través de una atractiva descripción.\"}","question_order":"[0]","trial_type":"survey-multi-choice","trial_index":33,"time_elapsed":1663879,"internal_node_id":"0.0-5.0-28.0"},{"rt":1326.5,"response":{"pregunta4 likert":3},"question_order":[0],"trial_type":"survey-likert","trial_index":34,"time_elapsed":1665207,"internal_node_id":"0.0-5.0-29.0"},{"rt":67294.30000001192,"responses":"{\"pregunta2\":\"c) A la relación entre pensamiento y estructura social.\"}","question_order":"[0]","trial_type":"survey-multi-choice","trial_index":35,"time_elapsed":1732502,"internal_node_id":"0.0-5.0-30.0"},{"rt":1254.9000000357628,"response":{"pregunta2 likert":1},"question_order":[0],"trial_type":"survey-likert","trial_index":36,"time_elapsed":1733759,"internal_node_id":"0.0-5.0-31.0"},{"rt":52286.60000002384,"responses":"{\"pregunta12\":\"e) el uranio es el elemento natural con el mayor número de protones en el núcleo.\"}","question_order":"[0]","trial_type":"survey-multi-choice","trial_index":37,"time_elapsed":1786046,"internal_node_id":"0.0-5.0-32.0"},{"rt":3406.699999988079,"response":{"pregunta12 likert":2},"question_order":[0],"trial_type":"survey-likert","trial_index":38,"time_elapsed":1789455,"internal_node_id":"0.0-5.0-33.0"},{"rt":94614.30000001192,"responses":"{\"pregunta9\":\"a) Atraer a los turistas.\"}","question_order":"[0]","trial_type":"survey-multi-choice","trial_index":39,"time_elapsed":1884070,"internal_node_id":"0.0-5.0-34.0"},{"rt":1910.8999999761581,"response":{"pregunta9 likert":2},"question_order":[0],"trial_type":"survey-likert","trial_index":40,"time_elapsed":1885982,"internal_node_id":"0.0-5.0-35.0"},{"rt":130671.29999995232,"responses":"{\"pregunta16\":\"a) sufren dolores de espalda.\"}","question_order":"[0]","trial_type":"survey-multi-choice","trial_index":41,"time_elapsed":2016655,"internal_node_id":"0.0-5.0-36.0"},{"rt":2711,"response":{"pregunta16 likert":2},"question_order":[0],"trial_type":"survey-likert","trial_index":42,"time_elapsed":2019366,"internal_node_id":"0.0-5.0-37.0"},{"rt":85022.39999997616,"responses":"{\"pregunta8\":\"e) Deleitar a sus receptores por medio de la belleza y el confort.\"}","question_order":"[0]","trial_type":"survey-multi-choice","trial_index":43,"time_elapsed":2104390,"internal_node_id":"0.0-5.0-38.0"},{"rt":1703.5999999642372,"response":{"pregunta8 likert":2},"question_order":[0],"trial_type":"survey-likert","trial_index":44,"time_elapsed":2106095,"internal_node_id":"0.0-5.0-39.0"},{"rt":2653.400000035763,"stimulus":"<p style=\"font-size: 120%\">Gracias por completar esta etapa del estudio. Ahora te invitamos a responder el cuestionario.<br><br></p>","response":0,"trial_type":"html-button-response","trial_index":45,"time_elapsed":2108751,"internal_node_id":"0.0-6.0"},{"rt":21990.900000035763,"stimulus":"<h1 style=\"margin-top: 5%\">Cuestionario para la Evaluación de Metas Académicas</h1><p style=\"font-size: 120%; margin-left: 3%; margin-top: 5%\">Este es un cuestionario que permite conocer cuáles son los principales motivos por los que los estudiantes se esfuerzan en su trabajo académico. A continuación, se te presentarán una serie de afirmaciones acerca de los motivos que puedes tener para estudiar.<br>Te pedimos que contestes a dichas afirmaciones reflexionando sobre el contenido de cada una de ellas, que, aunque te parezcan semejantes, en realidad, no lo son.<br>NO HAY RESPUESTAS CORRECTAS o INCORRECTAS, sólo queremos que respondas con la mayor precisión y sinceridad posible a las preguntas que se plantean.","response":0,"trial_type":"html-button-response","trial_index":46,"time_elapsed":2130742,"internal_node_id":"0.0-7.0"},{"rt":127167,"response":{"Metas cuestionario pregunta1":2,"Metas cuestionario pregunta2":3,"Metas cuestionario pregunta3":2,"Metas cuestionario pregunta4":2,"Metas cuestionario pregunta5":2,"Metas cuestionario pregunta6":3,"Metas cuestionario pregunta7":3,"Metas cuestionario pregunta8":3,"Metas cuestionario pregunta9":1,"Metas cuestionario pregunta10":1,"Metas cuestionario pregunta11":1,"Metas cuestionario pregunta12":1,"Metas cuestionario pregunta13":1,"Metas cuestionario pregunta14":2,"Metas cuestionario pregunta15":3,"Metas cuestionario pregunta16":2,"Metas cuestionario pregunta17":2,"Metas cuestionario pregunta18":3,"Metas cuestionario pregunta19":2,"Metas cuestionario pregunta20":2},"question_order":[0,1,2,3,4,5,6,7,8,9,10,11,12,13,14,15,16,17,18,19],"trial_type":"survey-likert","trial_index":47,"time_elapsed":2257912,"internal_node_id":"0.0-8.0"}]