[{"rt":26617.700000001118,"stimulus":"<h1 style=\"color:red; margin-top: 3%;\">¡Bienvenido(a)!</h1><p style=\"text-align:left; justify-content:space-between; margin-right: 5%; margin-left: 5%; margin-top: 5%\"> Antes de empezar el estudio, necesitamos que nos confirmes que estás de acuerdo con participar. Recuerda que tu participación es 100% voluntaria y que lo único que te pedimos es responder lo mejor que puedas. Recuerda también que el estudio incluye:</p><ol style=\"text-align:left; justify-content:space-between; margin-right: 5%; margin-left: 5%;\"><li> un ejercicio de resolución de preguntas de selección múltiple (30’),</li><li>un cuestionario breve (5’),</li><li>un juego muy breve (3’),</li></ol><p style=\"text-align:left; justify-content:space-between; margin-right: 5%; margin-left: 5%;\">Si quieres participar, haz clic en “Acepto” luego de leer lo siguiente:<br></p><p style=\"text-align:left; justify-content:space-between; margin-right: 5%; margin-left: 5%;\">Acepto participar en el estudio “Estrategias de lectura y resolución de preguntas de selección múltiple”, en los términos aquí señalados:<br></p><p style=\"text-align:left; justify-content:space-between; margin-right: 5%; margin-left: 5%;\"><a href=\"http://ciae.uchile.cl/download.php?file=noticias/Asentimiento.pdf\" target=\"_blank\">Link a la hoja de información del Consentimiento.</a></p><p style=\"text-align:left; justify-content:space-between; margin-right: 5%; margin-left: 5%;\">Declaro que he leído (o se me ha leído) y (he) comprendido, las condiciones de mi participación en este estudio. He tenido la oportunidad de hacer preguntas y éstas han sido respondidas. No tengo dudas al respecto.</p>","response":0,"condicion_MCQ":19,"condicion_JUEGO":79,"condicion_INTER":7,"numero_participante":79,"numero_version":1,"dimx":1536,"dimy":864,"color_profundidad":24,"pixel_profundidad":24,"Browser":"Google Chrome","dia":23,"mes":5,"hora":13,"minuto":48,"segundo":42,"trial_type":"html-button-response","trial_index":0,"time_elapsed":26623,"internal_node_id":"0.0-0.0"},{"success":true,"trial_type":"fullscreen","trial_index":1,"time_elapsed":33526,"internal_node_id":"0.0-1.0"},{"rt":75287,"responses":"{\"Nombres\":\"paz Monserrat\",\"Apellidos\":\"Salazar Espinoza\",\"Edad\":\"19\",\"Sexo\":\"mujer\",\"Curso\":\"seccion 101 vespertino\",\"Colegio\":\"andres bello\",\"Contacto\":\"990169646\"}","trial_type":"survey-text","trial_index":2,"time_elapsed":108820,"internal_node_id":"0.0-2.0"},{"success":true,"timeout":false,"failed_images":[],"failed_audio":[],"failed_video":[],"trial_type":"preload","trial_index":3,"time_elapsed":113534,"internal_node_id":"0.0-3.0"},{"rt":16192.299999998882,"stimulus":"<h1 style:\"margin-top: 5%;\">Ejercicios de Comprensión de Lectura de la Universidad de Chile</h1><p style=\"font-size: 120%;\">En esta actividad, debes responder 20 preguntas de selección múltiple. Cada pregunta presenta 5 respuestas alternativas, pero sólo una de ellas es correcta. Por lo tanto, debes escoger una sola alternativa para cada pregunta. Además, debes reportar qué tan seguro(a) estás de la respuesta que das, con un:</p><ol style=\"font-size: 120%;text-align:left;margin-left: 40%;\"><li>No estoy seguro(a) para nada</li><li>No estoy muy seguro(a)</li><li>Estoy bastante seguro(a)</li><li>Estoy totalmente seguro(a)</li></ol><p style=\"font-size: 120%;\">Por favor lee bien los enunciados antes de responder. ¡Éxito!</p>","response":0,"trial_type":"html-button-response","trial_index":4,"time_elapsed":129728,"internal_node_id":"0.0-4.0"},{"rt":35425.29999999888,"responses":"{\"pregunta16\":\"e) son propensas a fertilizar in vitro.\"}","question_order":"[0]","trial_type":"survey-multi-choice","trial_index":5,"time_elapsed":165156,"internal_node_id":"0.0-5.0-0.0"},{"rt":4262.200000001118,"response":{"pregunta16 likert":3},"question_order":[0],"trial_type":"survey-likert","trial_index":6,"time_elapsed":169422,"internal_node_id":"0.0-5.0-1.0"},{"rt":67837.59999999963,"responses":"{\"pregunta4\":\"c) Presentar positivamente las diversas tendencias del diseño de interiores a través de un comentario.\"}","question_order":"[0]","trial_type":"survey-multi-choice","trial_index":7,"time_elapsed":237263,"internal_node_id":"0.0-5.0-2.0"},{"rt":5068.5999999996275,"response":{"pregunta4 likert":1},"question_order":[0],"trial_type":"survey-likert","trial_index":8,"time_elapsed":242335,"internal_node_id":"0.0-5.0-3.0"},{"rt":73435.59999999963,"responses":"{\"pregunta11\":\"c) el mejor emperador es el que está muerto.\"}","question_order":"[0]","trial_type":"survey-multi-choice","trial_index":9,"time_elapsed":315774,"internal_node_id":"0.0-5.0-4.0"},{"rt":3605.7000000011176,"response":{"pregunta11 likert":2},"question_order":[0],"trial_type":"survey-likert","trial_index":10,"time_elapsed":319383,"internal_node_id":"0.0-5.0-5.0"},{"rt":26624.099999999627,"responses":"{\"pregunta13\":\"d) Por el riesgo que corren diariamente, los bomberos deberían tener mejores condiciones de seguridad.\"}","question_order":"[0]","trial_type":"survey-multi-choice","trial_index":11,"time_elapsed":346011,"internal_node_id":"0.0-5.0-6.0"},{"rt":2805.7999999988824,"response":{"pregunta13 likert":2},"question_order":[0],"trial_type":"survey-likert","trial_index":12,"time_elapsed":348820,"internal_node_id":"0.0-5.0-7.0"},{"rt":81311.09999999963,"responses":"{\"pregunta15\":\"b) El receptor es el que posee la decisión sobre la publicidad.\"}","question_order":"[0]","trial_type":"survey-multi-choice","trial_index":13,"time_elapsed":430134,"internal_node_id":"0.0-5.0-8.0"},{"rt":6270.9000000003725,"response":{"pregunta15 likert":2},"question_order":[0],"trial_type":"survey-likert","trial_index":14,"time_elapsed":436407,"internal_node_id":"0.0-5.0-9.0"},{"rt":45302,"responses":"{\"pregunta8\":\"d) Mostrar personajes bellos y poderosos.\"}","question_order":"[0]","trial_type":"survey-multi-choice","trial_index":15,"time_elapsed":481711,"internal_node_id":"0.0-5.0-10.0"},{"rt":3190.5999999996275,"response":{"pregunta8 likert":0},"question_order":[0],"trial_type":"survey-likert","trial_index":16,"time_elapsed":484904,"internal_node_id":"0.0-5.0-11.0"},{"rt":54056.90000000037,"responses":"{\"pregunta19\":\"a) la Muerte vaticina el futuro mediante gestos.\"}","question_order":"[0]","trial_type":"survey-multi-choice","trial_index":17,"time_elapsed":538964,"internal_node_id":"0.0-5.0-12.0"},{"rt":3213.5999999996275,"response":{"pregunta19 likert":1},"question_order":[0],"trial_type":"survey-likert","trial_index":18,"time_elapsed":542180,"internal_node_id":"0.0-5.0-13.0"},{"rt":34671.59999999963,"responses":"{\"pregunta17\":\"d) Nuestra economía vivirá un proceso de ajuste a la nueva realidad.\"}","question_order":"[0]","trial_type":"survey-multi-choice","trial_index":19,"time_elapsed":576854,"internal_node_id":"0.0-5.0-14.0"},{"rt":4250.9000000003725,"response":{"pregunta17 likert":0},"question_order":[0],"trial_type":"survey-likert","trial_index":20,"time_elapsed":581108,"internal_node_id":"0.0-5.0-15.0"},{"rt":37315.5,"responses":"{\"pregunta20\":\"b) la muerte es distinta en las grandes ciudades.\"}","question_order":"[0]","trial_type":"survey-multi-choice","trial_index":21,"time_elapsed":618426,"internal_node_id":"0.0-5.0-16.0"},{"rt":4718.9000000003725,"response":{"pregunta20 likert":0},"question_order":[0],"trial_type":"survey-likert","trial_index":22,"time_elapsed":623148,"internal_node_id":"0.0-5.0-17.0"},{"rt":65579.59999999963,"responses":"{\"pregunta6\":\"a) preparar los recuerdos del mañana.\"}","question_order":"[0]","trial_type":"survey-multi-choice","trial_index":23,"time_elapsed":688731,"internal_node_id":"0.0-5.0-18.0"},{"rt":2727,"response":{"pregunta6 likert":2},"question_order":[0],"trial_type":"survey-likert","trial_index":24,"time_elapsed":691461,"internal_node_id":"0.0-5.0-19.0"},{"rt":47348.70000000112,"responses":"{\"pregunta18\":\"b) Las personas públicas no tienen vida privada.\"}","question_order":"[0]","trial_type":"survey-multi-choice","trial_index":25,"time_elapsed":738812,"internal_node_id":"0.0-5.0-20.0"},{"rt":2472.800000000745,"response":{"pregunta18 likert":1},"question_order":[0],"trial_type":"survey-likert","trial_index":26,"time_elapsed":741288,"internal_node_id":"0.0-5.0-21.0"},{"rt":39478.59999999963,"responses":"{\"pregunta1\":\"c) Muestran las opiniones expuestas por los personajes en un relato.\"}","question_order":"[0]","trial_type":"survey-multi-choice","trial_index":27,"time_elapsed":780770,"internal_node_id":"0.0-5.0-22.0"},{"rt":3343.7000000011176,"response":{"pregunta1 likert":1},"question_order":[0],"trial_type":"survey-likert","trial_index":28,"time_elapsed":784116,"internal_node_id":"0.0-5.0-23.0"},{"rt":53471,"responses":"{\"pregunta10\":\"d) Al deseo de privilegiar el ocio por sobre el trabajo.\"}","question_order":"[0]","trial_type":"survey-multi-choice","trial_index":29,"time_elapsed":837591,"internal_node_id":"0.0-5.0-24.0"},{"rt":2798.4000000003725,"response":{"pregunta10 likert":0},"question_order":[0],"trial_type":"survey-likert","trial_index":30,"time_elapsed":840392,"internal_node_id":"0.0-5.0-25.0"},{"rt":51287.40000000037,"responses":"{\"pregunta7\":\"b) ritualistas y obsesivos.\"}","question_order":"[0]","trial_type":"survey-multi-choice","trial_index":31,"time_elapsed":891682,"internal_node_id":"0.0-5.0-26.0"},{"rt":2837.5999999996275,"response":{"pregunta7 likert":2},"question_order":[0],"trial_type":"survey-likert","trial_index":32,"time_elapsed":894522,"internal_node_id":"0.0-5.0-27.0"},{"rt":25367.900000000373,"responses":"{\"pregunta12\":\"d) a partir de la manipulación del núcleo se han creado elementos químicos naturales.\"}","question_order":"[0]","trial_type":"survey-multi-choice","trial_index":33,"time_elapsed":919893,"internal_node_id":"0.0-5.0-28.0"},{"rt":2868.5999999996275,"response":{"pregunta12 likert":2},"question_order":[0],"trial_type":"survey-likert","trial_index":34,"time_elapsed":922764,"internal_node_id":"0.0-5.0-29.0"},{"rt":37510.20000000112,"responses":"{\"pregunta14\":\"d) Al orden de la productora para no turistear por el país.\"}","question_order":"[0]","trial_type":"survey-multi-choice","trial_index":35,"time_elapsed":960277,"internal_node_id":"0.0-5.0-30.0"},{"rt":2535.2999999988824,"response":{"pregunta14 likert":0},"question_order":[0],"trial_type":"survey-likert","trial_index":36,"time_elapsed":962815,"internal_node_id":"0.0-5.0-31.0"},{"rt":41957.20000000112,"responses":"{\"pregunta5\":\"e) Lo que es normal en un asilo es anormal en un campo de concentración.\"}","question_order":"[0]","trial_type":"survey-multi-choice","trial_index":37,"time_elapsed":1004775,"internal_node_id":"0.0-5.0-32.0"},{"rt":2039.7000000011176,"response":{"pregunta5 likert":0},"question_order":[0],"trial_type":"survey-likert","trial_index":38,"time_elapsed":1006820,"internal_node_id":"0.0-5.0-33.0"},{"rt":62105.5,"responses":"{\"pregunta3\":\"d) La escritura olvida los momentos insignificantes de los viajes.\"}","question_order":"[0]","trial_type":"survey-multi-choice","trial_index":39,"time_elapsed":1068928,"internal_node_id":"0.0-5.0-34.0"},{"rt":1940.199999999255,"response":{"pregunta3 likert":1},"question_order":[0],"trial_type":"survey-likert","trial_index":40,"time_elapsed":1070870,"internal_node_id":"0.0-5.0-35.0"},{"rt":83891.5,"responses":"{\"pregunta9\":\"d) Atraer a los turistas.\"}","question_order":"[0]","trial_type":"survey-multi-choice","trial_index":41,"time_elapsed":1154764,"internal_node_id":"0.0-5.0-36.0"},{"rt":3457.39999999851,"response":{"pregunta9 likert":1},"question_order":[0],"trial_type":"survey-likert","trial_index":42,"time_elapsed":1158225,"internal_node_id":"0.0-5.0-37.0"},{"rt":29473.699999999255,"responses":"{\"pregunta2\":\"a) A la relación entre sociología y sociedad.\"}","question_order":"[0]","trial_type":"survey-multi-choice","trial_index":43,"time_elapsed":1187701,"internal_node_id":"0.0-5.0-38.0"},{"rt":2343.0999999996275,"response":{"pregunta2 likert":2},"question_order":[0],"trial_type":"survey-likert","trial_index":44,"time_elapsed":1190047,"internal_node_id":"0.0-5.0-39.0"}]