[{"rt":873662,"stimulus":"<h1 style=\"color:red; margin-top: 3%;\">¡Bienvenido(a)!</h1><p style=\"text-align:left; justify-content:space-between; margin-right: 5%; margin-left: 5%; margin-top: 5%\"> Antes de empezar el estudio, necesitamos que nos confirmes que estás de acuerdo con participar. Recuerda que tu participación es 100% voluntaria y que lo único que te pedimos es responder lo mejor que puedas. Recuerda también que el estudio incluye:</p><ol style=\"text-align:left; justify-content:space-between; margin-right: 5%; margin-left: 5%;\"><li> un ejercicio de resolución de preguntas de selección múltiple (30’),</li><li>un cuestionario breve (5’),</li><li>un juego muy breve (3’),</li></ol><p style=\"text-align:left; justify-content:space-between; margin-right: 5%; margin-left: 5%;\">Si quieres participar, haz clic en “Acepto” luego de leer lo siguiente:<br></p><p style=\"text-align:left; justify-content:space-between; margin-right: 5%; margin-left: 5%;\">Acepto participar en el estudio “Estrategias de lectura y resolución de preguntas de selección múltiple”, en los términos aquí señalados:<br></p><p style=\"text-align:left; justify-content:space-between; margin-right: 5%; margin-left: 5%;\"><a href=\"http://ciae.uchile.cl/download.php?file=noticias/Asentimiento.pdf\" target=\"_blank\">Link a la hoja de información del Consentimiento.</a></p><p style=\"text-align:left; justify-content:space-between; margin-right: 5%; margin-left: 5%;\">Declaro que he leído (o se me ha leído) y (he) comprendido, las condiciones de mi participación en este estudio. He tenido la oportunidad de hacer preguntas y éstas han sido respondidas. No tengo dudas al respecto.</p>","response":0,"condicion_MCQ":3,"condicion_JUEGO":83,"condicion_INTER":11,"numero_participante":83,"numero_version":1,"dimx":1280,"dimy":720,"color_profundidad":24,"pixel_profundidad":24,"Browser":"Mozilla Firefox","dia":23,"mes":5,"hora":15,"minuto":19,"segundo":43,"trial_type":"html-button-response","trial_index":0,"time_elapsed":873667,"internal_node_id":"0.0-0.0"},{"success":true,"trial_type":"fullscreen","trial_index":1,"time_elapsed":880696,"internal_node_id":"0.0-1.0"},{"rt":174889,"responses":"{\"Nombres\":\"Alexa Harumy\",\"Apellidos\":\"Martínez Bazán\",\"Edad\":\"21\",\"Sexo\":\"mujer\",\"Curso\":\"1467\",\"Colegio\":\"UNAB\",\"Contacto\":\"h.martnezbazn@uandresbello.edu\"}","trial_type":"survey-text","trial_index":2,"time_elapsed":1055594,"internal_node_id":"0.0-2.0"},{"success":true,"timeout":false,"failed_images":[],"failed_audio":[],"failed_video":[],"trial_type":"preload","trial_index":3,"time_elapsed":1057449,"internal_node_id":"0.0-3.0"},{"rt":44995,"stimulus":"<h1 style:\"margin-top: 5%;\">Ejercicios de Comprensión de Lectura de la Universidad de Chile</h1><p style=\"font-size: 120%;\">En esta actividad, debes responder 20 preguntas de selección múltiple. Cada pregunta presenta 5 respuestas alternativas, pero sólo una de ellas es correcta. Por lo tanto, debes escoger una sola alternativa para cada pregunta. Además, debes reportar qué tan seguro(a) estás de la respuesta que das, con un:</p><ol style=\"font-size: 120%;text-align:left;margin-left: 40%;\"><li>No estoy seguro(a) para nada</li><li>No estoy muy seguro(a)</li><li>Estoy bastante seguro(a)</li><li>Estoy totalmente seguro(a)</li></ol><p style=\"font-size: 120%;\">Por favor lee bien los enunciados antes de responder. ¡Éxito!</p>","response":0,"trial_type":"html-button-response","trial_index":4,"time_elapsed":1102445,"internal_node_id":"0.0-4.0"},{"rt":255598,"responses":"{\"pregunta16\":\"e) sufren dolores de espalda.\"}","question_order":"[0]","trial_type":"survey-multi-choice","trial_index":5,"time_elapsed":1358048,"internal_node_id":"0.0-5.0-0.0"},{"rt":10707,"response":{"pregunta16 likert":2},"question_order":[0],"trial_type":"survey-likert","trial_index":6,"time_elapsed":1368756,"internal_node_id":"0.0-5.0-1.0"},{"rt":70287,"responses":"{\"pregunta14\":\"b) A la temática satánica de las canciones del grupo.\"}","question_order":"[0]","trial_type":"survey-multi-choice","trial_index":7,"time_elapsed":1439047,"internal_node_id":"0.0-5.0-2.0"},{"rt":3324,"response":{"pregunta14 likert":3},"question_order":[0],"trial_type":"survey-likert","trial_index":8,"time_elapsed":1442374,"internal_node_id":"0.0-5.0-3.0"},{"rt":111269,"responses":"{\"pregunta20\":\"a) para el mexicano, la muerte es cotidiana.\"}","question_order":"[0]","trial_type":"survey-multi-choice","trial_index":9,"time_elapsed":1553646,"internal_node_id":"0.0-5.0-4.0"},{"rt":3639,"response":{"pregunta20 likert":3},"question_order":[0],"trial_type":"survey-likert","trial_index":10,"time_elapsed":1557285,"internal_node_id":"0.0-5.0-5.0"},{"rt":588260,"responses":"{\"pregunta9\":\"c) Homenajear a quienes murieron.\"}","question_order":"[0]","trial_type":"survey-multi-choice","trial_index":11,"time_elapsed":2145548,"internal_node_id":"0.0-5.0-6.0"},{"rt":4256,"response":{"pregunta9 likert":3},"question_order":[0],"trial_type":"survey-likert","trial_index":12,"time_elapsed":2149809,"internal_node_id":"0.0-5.0-7.0"},{"rt":700012,"responses":"{\"pregunta11\":\"c) el Primer Ministro debía morir por ambicioso.\"}","question_order":"[0]","trial_type":"survey-multi-choice","trial_index":13,"time_elapsed":2849823,"internal_node_id":"0.0-5.0-8.0"},{"rt":3114,"response":{"pregunta11 likert":3},"question_order":[0],"trial_type":"survey-likert","trial_index":14,"time_elapsed":2852940,"internal_node_id":"0.0-5.0-9.0"},{"rt":99796,"responses":"{\"pregunta15\":\"c) La publicidad ejerce una influencia positiva sobre la sociedad.\"}","question_order":"[0]","trial_type":"survey-multi-choice","trial_index":15,"time_elapsed":2952738,"internal_node_id":"0.0-5.0-10.0"},{"rt":5058,"response":{"pregunta15 likert":3},"question_order":[0],"trial_type":"survey-likert","trial_index":16,"time_elapsed":2957798,"internal_node_id":"0.0-5.0-11.0"},{"rt":803874,"responses":"{\"pregunta1\":\"b) Manifiestan la importancia de que el personaje tenga independencia en el relato.\"}","question_order":"[0]","trial_type":"survey-multi-choice","trial_index":17,"time_elapsed":3761674,"internal_node_id":"0.0-5.0-12.0"},{"rt":4011,"response":{"pregunta1 likert":3},"question_order":[0],"trial_type":"survey-likert","trial_index":18,"time_elapsed":3765691,"internal_node_id":"0.0-5.0-13.0"},{"rt":357256,"responses":"{\"pregunta19\":\"c) la Muerte acostumbraba a aparecer en Ispahán.\"}","question_order":"[0]","trial_type":"survey-multi-choice","trial_index":19,"time_elapsed":4122950,"internal_node_id":"0.0-5.0-14.0"},{"rt":5067,"response":{"pregunta19 likert":3},"question_order":[0],"trial_type":"survey-likert","trial_index":20,"time_elapsed":4128020,"internal_node_id":"0.0-5.0-15.0"},{"rt":149477,"responses":"{\"pregunta12\":\"c) a partir de la manipulación del núcleo se han creado elementos químicos naturales.\"}","question_order":"[0]","trial_type":"survey-multi-choice","trial_index":21,"time_elapsed":4277500,"internal_node_id":"0.0-5.0-16.0"},{"rt":3887,"response":{"pregunta12 likert":3},"question_order":[0],"trial_type":"survey-likert","trial_index":22,"time_elapsed":4281390,"internal_node_id":"0.0-5.0-17.0"},{"rt":130616,"responses":"{\"pregunta4\":\"b) Promover la asistencia a un evento específico de decoración a través de una atractiva descripción.\"}","question_order":"[0]","trial_type":"survey-multi-choice","trial_index":23,"time_elapsed":4412009,"internal_node_id":"0.0-5.0-18.0"},{"rt":2910,"response":{"pregunta4 likert":3},"question_order":[0],"trial_type":"survey-likert","trial_index":24,"time_elapsed":4414921,"internal_node_id":"0.0-5.0-19.0"},{"rt":374168,"responses":"{\"pregunta2\":\"e) A la relación entre sociedad y constitución social.\"}","question_order":"[0]","trial_type":"survey-multi-choice","trial_index":25,"time_elapsed":4789092,"internal_node_id":"0.0-5.0-20.0"},{"rt":2779,"response":{"pregunta2 likert":3},"question_order":[0],"trial_type":"survey-likert","trial_index":26,"time_elapsed":4791874,"internal_node_id":"0.0-5.0-21.0"},{"rt":173337,"responses":"{\"pregunta3\":\"b) Los momentos triviales de los viajes, en la escritura se vuelven significativos.\"}","question_order":"[0]","trial_type":"survey-multi-choice","trial_index":27,"time_elapsed":4965213,"internal_node_id":"0.0-5.0-22.0"},{"rt":3247,"response":{"pregunta3 likert":3},"question_order":[0],"trial_type":"survey-likert","trial_index":28,"time_elapsed":4968463,"internal_node_id":"0.0-5.0-23.0"},{"rt":213829,"responses":"{\"pregunta17\":\"c) El TLC causará una completa transformación de la economía chilena.\"}","question_order":"[0]","trial_type":"survey-multi-choice","trial_index":29,"time_elapsed":5182296,"internal_node_id":"0.0-5.0-24.0"},{"rt":3539,"response":{"pregunta17 likert":3},"question_order":[0],"trial_type":"survey-likert","trial_index":30,"time_elapsed":5185837,"internal_node_id":"0.0-5.0-25.0"},{"rt":731456,"responses":"{\"pregunta5\":\"b) El ser humano se comporta de acuerdo con las circunstancias.\"}","question_order":"[0]","trial_type":"survey-multi-choice","trial_index":31,"time_elapsed":5917297,"internal_node_id":"0.0-5.0-26.0"},{"rt":2780,"response":{"pregunta5 likert":3},"question_order":[0],"trial_type":"survey-likert","trial_index":32,"time_elapsed":5920081,"internal_node_id":"0.0-5.0-27.0"},{"rt":62822,"responses":"{\"pregunta13\":\"d) Bomberos debería tener acceso a un seguro médico, al que pueda recurrir en caso de accidente.\"}","question_order":"[0]","trial_type":"survey-multi-choice","trial_index":33,"time_elapsed":5982908,"internal_node_id":"0.0-5.0-28.0"},{"rt":3148,"response":{"pregunta13 likert":3},"question_order":[0],"trial_type":"survey-likert","trial_index":34,"time_elapsed":5986060,"internal_node_id":"0.0-5.0-29.0"},{"rt":231254,"responses":"{\"pregunta7\":\"c) ritualistas y obsesivos.\"}","question_order":"[0]","trial_type":"survey-multi-choice","trial_index":35,"time_elapsed":6217318,"internal_node_id":"0.0-5.0-30.0"},{"rt":620761,"response":{"pregunta7 likert":3},"question_order":[0],"trial_type":"survey-likert","trial_index":36,"time_elapsed":6838082,"internal_node_id":"0.0-5.0-31.0"},{"rt":175698,"responses":"{\"pregunta10\":\"e) A la inutilidad de tanto esfuerzo si el objetivo es el reposo.\"}","question_order":"[0]","trial_type":"survey-multi-choice","trial_index":37,"time_elapsed":7013782,"internal_node_id":"0.0-5.0-32.0"},{"rt":2492,"response":{"pregunta10 likert":3},"question_order":[0],"trial_type":"survey-likert","trial_index":38,"time_elapsed":7016278,"internal_node_id":"0.0-5.0-33.0"},{"rt":76557,"responses":"{\"pregunta8\":\"b) Deleitar a sus receptores por medio de la belleza y el confort.\"}","question_order":"[0]","trial_type":"survey-multi-choice","trial_index":39,"time_elapsed":7092838,"internal_node_id":"0.0-5.0-34.0"},{"rt":4619,"response":{"pregunta8 likert":3},"question_order":[0],"trial_type":"survey-likert","trial_index":40,"time_elapsed":7097460,"internal_node_id":"0.0-5.0-35.0"},{"rt":74511,"responses":"{\"pregunta18\":\"e) Se necesita un marco legal para delimitar lo público y lo privado en materia informativa.\"}","question_order":"[0]","trial_type":"survey-multi-choice","trial_index":41,"time_elapsed":7171974,"internal_node_id":"0.0-5.0-36.0"},{"rt":2614,"response":{"pregunta18 likert":3},"question_order":[0],"trial_type":"survey-likert","trial_index":42,"time_elapsed":7174590,"internal_node_id":"0.0-5.0-37.0"},{"rt":425104,"responses":"{\"pregunta6\":\"e) un recuerdo nostálgico.\"}","question_order":"[0]","trial_type":"survey-multi-choice","trial_index":43,"time_elapsed":7601898,"internal_node_id":"0.0-5.0-38.0"},{"rt":5444,"response":{"pregunta6 likert":3},"question_order":[0],"trial_type":"survey-likert","trial_index":44,"time_elapsed":7607345,"internal_node_id":"0.0-5.0-39.0"},{"rt":4075,"stimulus":"<p style=\"font-size: 120%\">Gracias por completar esta etapa del estudio. Ahora te invitamos a responder el cuestionario.<br><br></p>","response":0,"trial_type":"html-button-response","trial_index":45,"time_elapsed":7611426,"internal_node_id":"0.0-6.0"},{"rt":25797,"stimulus":"<h1 style=\"margin-top: 5%\">Cuestionario para la Evaluación de Metas Académicas</h1><p style=\"font-size: 120%; margin-left: 3%; margin-top: 5%\">Este es un cuestionario que permite conocer cuáles son los principales motivos por los que los estudiantes se esfuerzan en su trabajo académico. A continuación, se te presentarán una serie de afirmaciones acerca de los motivos que puedes tener para estudiar.<br>Te pedimos que contestes a dichas afirmaciones reflexionando sobre el contenido de cada una de ellas, que, aunque te parezcan semejantes, en realidad, no lo son.<br>NO HAY RESPUESTAS CORRECTAS o INCORRECTAS, sólo queremos que respondas con la mayor precisión y sinceridad posible a las preguntas que se plantean.","response":0,"trial_type":"html-button-response","trial_index":46,"time_elapsed":7637224,"internal_node_id":"0.0-7.0"},{"rt":217791,"response":{"Metas cuestionario pregunta1":4,"Metas cuestionario pregunta2":4,"Metas cuestionario pregunta3":4,"Metas cuestionario pregunta4":4,"Metas cuestionario pregunta5":3,"Metas cuestionario pregunta6":3,"Metas cuestionario pregunta7":3,"Metas cuestionario pregunta8":4,"Metas cuestionario pregunta9":1,"Metas cuestionario pregunta10":0,"Metas cuestionario pregunta11":0,"Metas cuestionario pregunta12":0,"Metas cuestionario pregunta13":0,"Metas cuestionario pregunta14":0,"Metas cuestionario pregunta15":4,"Metas cuestionario pregunta16":4,"Metas cuestionario pregunta17":3,"Metas cuestionario pregunta18":4,"Metas cuestionario pregunta19":4,"Metas cuestionario pregunta20":2},"question_order":[0,1,2,3,4,5,6,7,8,9,10,11,12,13,14,15,16,17,18,19],"trial_type":"survey-likert","trial_index":47,"time_elapsed":7855022,"internal_node_id":"0.0-8.0"}]