[{"rt":13995.834999950603,"stimulus":"<h1 style=\"color:red; margin-top: 3%;\">¡Bienvenido(a)!</h1><p style=\"text-align:left; justify-content:space-between; margin-right: 5%; margin-left: 5%; margin-top: 5%\"> Antes de empezar el estudio, necesitamos que nos confirmes que estás de acuerdo con participar. Recuerda que tu participación es 100% voluntaria y que lo único que te pedimos es responder lo mejor que puedas. Recuerda también que el estudio incluye:</p><ol style=\"text-align:left; justify-content:space-between; margin-right: 5%; margin-left: 5%;\"><li> un ejercicio de resolución de preguntas de selección múltiple (30’),</li><li>un cuestionario breve (5’),</li><li>un juego muy breve (3’),</li></ol><p style=\"text-align:left; justify-content:space-between; margin-right: 5%; margin-left: 5%;\">Si quieres participar, haz clic en “Acepto” luego de leer lo siguiente:<br></p><p style=\"text-align:left; justify-content:space-between; margin-right: 5%; margin-left: 5%;\">Acepto participar en el estudio “Estrategias de lectura y resolución de preguntas de selección múltiple”, en los términos aquí señalados:<br></p><p style=\"text-align:left; justify-content:space-between; margin-right: 5%; margin-left: 5%;\"><a href=\"http://ciae.uchile.cl/download.php?file=noticias/Asentimiento.pdf\" target=\"_blank\">Link a la hoja de información del Consentimiento.</a></p><p style=\"text-align:left; justify-content:space-between; margin-right: 5%; margin-left: 5%;\">Declaro que he leído (o se me ha leído) y (he) comprendido, las condiciones de mi participación en este estudio. He tenido la oportunidad de hacer preguntas y éstas han sido respondidas. No tengo dudas al respecto.</p>","response":0,"condicion_MCQ":8,"condicion_JUEGO":8,"condicion_INTER":8,"numero_participante":32,"numero_version":3,"dimx":1366,"dimy":768,"color_profundidad":24,"pixel_profundidad":24,"Browser":"Google Chrome","dia":9,"mes":5,"hora":13,"minuto":4,"segundo":30,"trial_type":"html-button-response","trial_index":0,"time_elapsed":14001,"internal_node_id":"0.0-0.0"},{"success":true,"trial_type":"fullscreen","trial_index":1,"time_elapsed":532752,"internal_node_id":"0.0-1.0"},{"rt":157405.42000019923,"responses":"{\"Nombres\":\"Natalia Andrea\",\"Apellidos\":\"Valenzuela Mardones\",\"Edad\":\"18\",\"Sexo\":\"Mujer\",\"Curso\":\"Sección 218\",\"Colegio\":\"Universidad Andrés Bello\",\"Contacto\":\"nataliaa.valenzuela.m@gmail.com\"}","trial_type":"survey-text","trial_index":2,"time_elapsed":690176,"internal_node_id":"0.0-2.0"},{"success":true,"timeout":false,"failed_images":[],"failed_audio":[],"failed_video":[],"trial_type":"preload","trial_index":3,"time_elapsed":694589,"internal_node_id":"0.0-3.0"},{"rt":27626.600000075996,"stimulus":"<h1 style:\"margin-top: 5%;\">Ejercicios de Comprensión de Lectura de la Universidad de Chile</h1><p style=\"font-size: 120%;\">En esta actividad, debes responder 24 preguntas de selección múltiple. Cada pregunta presenta 4 respuestas alternativas, pero sólo una de ellas es correcta. Por lo tanto, debes escoger una sola alternativa para cada pregunta. Además, debes reportar qué tan seguro(a) estás de la respuesta que das, con un:</p><ol style=\"font-size: 120%;text-align:left;margin-left: 40%;\"><li>No estoy seguro(a) para nada</li><li>No estoy muy seguro(a)</li><li>Estoy bastante seguro(a)</li><li>Estoy totalmente seguro(a)</li></ol><p style=\"font-size: 120%;\">Por favor lee bien los enunciados antes de responder. ¡Éxito!</p>","response":0,"trial_type":"html-button-response","trial_index":4,"time_elapsed":722217,"internal_node_id":"0.0-4.0"},{"rt":62661.11999982968,"responses":"{\"pregunta14\":\"c) el mejor emperador es el que está muerto.\"}","question_order":"[0]","trial_type":"survey-multi-choice","trial_index":5,"time_elapsed":784883,"internal_node_id":"0.0-5.0-0.0"},{"rt":3819.6250000037253,"response":{"pregunta14 likert":2},"question_order":[0],"trial_type":"survey-likert","trial_index":6,"time_elapsed":788705,"internal_node_id":"0.0-5.0-1.0"},{"rt":51867.82000004314,"responses":"{\"pregunta16\":\"d) Bomberos debería tener acceso a un seguro médico, al que pueda recurrir en caso de accidente.\"}","question_order":"[0]","trial_type":"survey-multi-choice","trial_index":7,"time_elapsed":840576,"internal_node_id":"0.0-5.0-2.0"},{"rt":2237.764999968931,"response":{"pregunta16 likert":1},"question_order":[0],"trial_type":"survey-likert","trial_index":8,"time_elapsed":842817,"internal_node_id":"0.0-5.0-3.0"},{"rt":84556.07499997132,"responses":"{\"pregunta3\":\"a) El inicio de la dinastía Chang.\"}","question_order":"[0]","trial_type":"survey-multi-choice","trial_index":9,"time_elapsed":927377,"internal_node_id":"0.0-5.0-4.0"},{"rt":2603.15000009723,"response":{"pregunta3 likert":1},"question_order":[0],"trial_type":"survey-likert","trial_index":10,"time_elapsed":929983,"internal_node_id":"0.0-5.0-5.0"},{"rt":19972.974999807775,"responses":"{\"pregunta24\":\"c) para el mexicano, la muerte es cotidiana.\"}","question_order":"[0]","trial_type":"survey-multi-choice","trial_index":11,"time_elapsed":949959,"internal_node_id":"0.0-5.0-6.0"},{"rt":3505.559999961406,"response":{"pregunta24 likert":3},"question_order":[0],"trial_type":"survey-likert","trial_index":12,"time_elapsed":953468,"internal_node_id":"0.0-5.0-7.0"},{"rt":88865.48499995843,"responses":"{\"pregunta12\":\"c) Homenajear a quienes murieron.\"}","question_order":"[0]","trial_type":"survey-multi-choice","trial_index":13,"time_elapsed":1042338,"internal_node_id":"0.0-5.0-8.0"},{"rt":2164.6799999289215,"response":{"pregunta12 likert":1},"question_order":[0],"trial_type":"survey-likert","trial_index":14,"time_elapsed":1044505,"internal_node_id":"0.0-5.0-9.0"},{"rt":211859.3849998433,"responses":"{\"pregunta5\":\"b) En los viajes es esencial el momento mismo de la escritura.\"}","question_order":"[0]","trial_type":"survey-multi-choice","trial_index":15,"time_elapsed":1256365,"internal_node_id":"0.0-5.0-10.0"},{"rt":1903.514999896288,"response":{"pregunta5 likert":1},"question_order":[0],"trial_type":"survey-likert","trial_index":16,"time_elapsed":1258271,"internal_node_id":"0.0-5.0-11.0"},{"rt":62990.37000001408,"responses":"{\"pregunta1\":\"a) Entregan una característica detallada del personaje, a través de la voz narrativa.\"}","question_order":"[0]","trial_type":"survey-multi-choice","trial_index":17,"time_elapsed":1321265,"internal_node_id":"0.0-5.0-12.0"},{"rt":2015.9899999853224,"response":{"pregunta1 likert":2},"question_order":[0],"trial_type":"survey-likert","trial_index":18,"time_elapsed":1323284,"internal_node_id":"0.0-5.0-13.0"},{"rt":89762.58999994025,"responses":"{\"pregunta2\":\"c) A la relación entre pensamiento y estructura social.\"}","question_order":"[0]","trial_type":"survey-multi-choice","trial_index":19,"time_elapsed":1413052,"internal_node_id":"0.0-5.0-14.0"},{"rt":4425.554999848828,"response":{"pregunta2 likert":2},"question_order":[0],"trial_type":"survey-likert","trial_index":20,"time_elapsed":1417480,"internal_node_id":"0.0-5.0-15.0"},{"rt":55585.51999996416,"responses":"{\"pregunta4\":\"a) En la literatura, el narrador expresa su voluntad de libertad.\"}","question_order":"[0]","trial_type":"survey-multi-choice","trial_index":21,"time_elapsed":1473066,"internal_node_id":"0.0-5.0-16.0"},{"rt":2070.0400001369417,"response":{"pregunta4 likert":1},"question_order":[0],"trial_type":"survey-likert","trial_index":22,"time_elapsed":1475166,"internal_node_id":"0.0-5.0-17.0"},{"rt":81366.3500000257,"responses":"{\"pregunta6\":\"a) Promover la asistencia a un evento específico de decoración a través de una atractiva descripción.\"}","question_order":"[0]","trial_type":"survey-multi-choice","trial_index":23,"time_elapsed":1556533,"internal_node_id":"0.0-5.0-18.0"},{"rt":1435.384999960661,"response":{"pregunta6 likert":2},"question_order":[0],"trial_type":"survey-likert","trial_index":24,"time_elapsed":1557971,"internal_node_id":"0.0-5.0-19.0"},{"rt":99781.66000009514,"responses":"{\"pregunta13\":\"c) Al premio merecido después de tantos esfuerzos.\"}","question_order":"[0]","trial_type":"survey-multi-choice","trial_index":25,"time_elapsed":1657756,"internal_node_id":"0.0-5.0-20.0"},{"rt":1985.035000136122,"response":{"pregunta13 likert":1},"question_order":[0],"trial_type":"survey-likert","trial_index":26,"time_elapsed":1659743,"internal_node_id":"0.0-5.0-21.0"},{"rt":89030.93999996781,"responses":"{\"pregunta20\":\"a) para Aristóteles la virtud estaba en el justo equilibrio.\"}","question_order":"[0]","trial_type":"survey-multi-choice","trial_index":27,"time_elapsed":1748778,"internal_node_id":"0.0-5.0-22.0"},{"rt":2855.0900002010167,"response":{"pregunta20 likert":2},"question_order":[0],"trial_type":"survey-likert","trial_index":28,"time_elapsed":1751637,"internal_node_id":"0.0-5.0-23.0"},{"rt":37379.70499997027,"responses":"{\"pregunta15\":\"d) el uranio es el elemento natural con el mayor número de protones en el núcleo.\"}","question_order":"[0]","trial_type":"survey-multi-choice","trial_index":29,"time_elapsed":1789021,"internal_node_id":"0.0-5.0-24.0"},{"rt":2776.9350002054125,"response":{"pregunta15 likert":2},"question_order":[0],"trial_type":"survey-likert","trial_index":30,"time_elapsed":1791800,"internal_node_id":"0.0-5.0-25.0"},{"rt":81489.58499985747,"responses":"{\"pregunta23\":\"b) el jardinero estará muerto al día siguiente.\"}","question_order":"[0]","trial_type":"survey-multi-choice","trial_index":31,"time_elapsed":1873296,"internal_node_id":"0.0-5.0-26.0"},{"rt":2287.8399998880923,"response":{"pregunta23 likert":2},"question_order":[0],"trial_type":"survey-likert","trial_index":32,"time_elapsed":1875587,"internal_node_id":"0.0-5.0-27.0"},{"rt":116033.58500008471,"responses":"{\"pregunta19\":\"b) tienen dificultades durante el parto.\"}","question_order":"[0]","trial_type":"survey-multi-choice","trial_index":33,"time_elapsed":1991619,"internal_node_id":"0.0-5.0-28.0"},{"rt":2206.4350000582635,"response":{"pregunta19 likert":1},"question_order":[0],"trial_type":"survey-likert","trial_index":34,"time_elapsed":1993828,"internal_node_id":"0.0-5.0-29.0"},{"rt":38072.75499985553,"responses":"{\"pregunta21\":\"b) Nuestra economía vivirá un proceso de ajuste a la nueva realidad.\"}","question_order":"[0]","trial_type":"survey-multi-choice","trial_index":35,"time_elapsed":2031899,"internal_node_id":"0.0-5.0-30.0"},{"rt":2506.2150000594556,"response":{"pregunta21 likert":2},"question_order":[0],"trial_type":"survey-likert","trial_index":36,"time_elapsed":2034408,"internal_node_id":"0.0-5.0-31.0"},{"rt":52756.86500011943,"responses":"{\"pregunta7\":\"a) se da como existente, y sólo se discute su relación con el cuerpo.\"}","question_order":"[0]","trial_type":"survey-multi-choice","trial_index":37,"time_elapsed":2087172,"internal_node_id":"0.0-5.0-32.0"},{"rt":2570.1199998147786,"response":{"pregunta7 likert":3},"question_order":[0],"trial_type":"survey-likert","trial_index":38,"time_elapsed":2089744,"internal_node_id":"0.0-5.0-33.0"},{"rt":75647.1700000111,"responses":"{\"pregunta8\":\"c) Lo que es normal en un asilo es anormal en un campo de concentración.\"}","question_order":"[0]","trial_type":"survey-multi-choice","trial_index":39,"time_elapsed":2165394,"internal_node_id":"0.0-5.0-34.0"},{"rt":1812.0299999136478,"response":{"pregunta8 likert":2},"question_order":[0],"trial_type":"survey-likert","trial_index":40,"time_elapsed":2167208,"internal_node_id":"0.0-5.0-35.0"},{"rt":53309.08999987878,"responses":"{\"pregunta10\":\"b) ritualistas y obsesivos.\"}","question_order":"[0]","trial_type":"survey-multi-choice","trial_index":41,"time_elapsed":2220519,"internal_node_id":"0.0-5.0-36.0"},{"rt":1232.7949998434633,"response":{"pregunta10 likert":1},"question_order":[0],"trial_type":"survey-likert","trial_index":42,"time_elapsed":2221755,"internal_node_id":"0.0-5.0-37.0"},{"rt":56259.009999921545,"responses":"{\"pregunta11\":\"b) Provocar el deseo de la adquisición vertiginosa.\"}","question_order":"[0]","trial_type":"survey-multi-choice","trial_index":43,"time_elapsed":2278016,"internal_node_id":"0.0-5.0-38.0"},{"rt":1657.9799999017268,"response":{"pregunta11 likert":2},"question_order":[0],"trial_type":"survey-likert","trial_index":44,"time_elapsed":2279674,"internal_node_id":"0.0-5.0-39.0"},{"rt":37588.64500001073,"responses":"{\"pregunta22\":\"b) Se necesita un marco legal para delimitar lo público y lo privado en materia informativa.\"}","question_order":"[0]","trial_type":"survey-multi-choice","trial_index":45,"time_elapsed":2317266,"internal_node_id":"0.0-5.0-40.0"},{"rt":1601.069999858737,"response":{"pregunta22 likert":1},"question_order":[0],"trial_type":"survey-likert","trial_index":46,"time_elapsed":2318869,"internal_node_id":"0.0-5.0-41.0"},{"rt":45464.47999984957,"responses":"{\"pregunta9\":\"b) preparar los recuerdos del mañana.\"}","question_order":"[0]","trial_type":"survey-multi-choice","trial_index":47,"time_elapsed":2364338,"internal_node_id":"0.0-5.0-42.0"},{"rt":1776.4749999623746,"response":{"pregunta9 likert":2},"question_order":[0],"trial_type":"survey-likert","trial_index":48,"time_elapsed":2366125,"internal_node_id":"0.0-5.0-43.0"},{"rt":67499.15499985218,"responses":"{\"pregunta18\":\"a) El receptor es habitualmente pasivo frente a la publicidad.\"}","question_order":"[0]","trial_type":"survey-multi-choice","trial_index":49,"time_elapsed":2433630,"internal_node_id":"0.0-5.0-44.0"},{"rt":2401.805000146851,"response":{"pregunta18 likert":3},"question_order":[0],"trial_type":"survey-likert","trial_index":50,"time_elapsed":2436035,"internal_node_id":"0.0-5.0-45.0"},{"rt":68613.07999980636,"responses":"{\"pregunta17\":\"a) A la temática satánica de las canciones del grupo.\"}","question_order":"[0]","trial_type":"survey-multi-choice","trial_index":51,"time_elapsed":2504642,"internal_node_id":"0.0-5.0-46.0"},{"rt":1970.8450001198798,"response":{"pregunta17 likert":1},"question_order":[0],"trial_type":"survey-likert","trial_index":52,"time_elapsed":2506615,"internal_node_id":"0.0-5.0-47.0"},{"rt":3714.3550000619143,"stimulus":"<p style=\"font-size: 120%\">Gracias por completar esta etapa del estudio. Ahora te invitamos a responder el cuestionario.<br><br></p>","response":0,"trial_type":"html-button-response","trial_index":53,"time_elapsed":2510358,"internal_node_id":"0.0-6.0"},{"rt":21814.969999948516,"stimulus":"<h1 style=\"margin-top: 5%\">Cuestionario para la Evaluación de Metas Académicas</h1><p style=\"font-size: 120%; margin-left: 3%; margin-top: 5%\">Este es un cuestionario que permite conocer cuáles son los principales motivos por los que los estudiantes se esfuerzan en su trabajo académico. A continuación, se te presentarán una serie de afirmaciones acerca de los motivos que puedes tener para estudiar.<br>Te pedimos que contestes a dichas afirmaciones reflexionando sobre el contenido de cada una de ellas, que, aunque te parezcan semejantes, en realidad, no lo son.<br>NO HAY RESPUESTAS CORRECTAS o INCORRECTAS, sólo queremos que respondas con la mayor precisión y sinceridad posible a las preguntas que se plantean.","response":0,"trial_type":"html-button-response","trial_index":54,"time_elapsed":2532174,"internal_node_id":"0.0-7.0"},{"rt":120726.93499992602,"response":{"Metas cuestionario pregunta1":4,"Metas cuestionario pregunta2":2,"Metas cuestionario pregunta3":4,"Metas cuestionario pregunta4":3,"Metas cuestionario pregunta5":2,"Metas cuestionario pregunta6":4,"Metas cuestionario pregunta7":2,"Metas cuestionario pregunta8":3,"Metas cuestionario pregunta9":1,"Metas cuestionario pregunta10":0,"Metas cuestionario pregunta11":0,"Metas cuestionario pregunta12":0,"Metas cuestionario pregunta13":0,"Metas cuestionario pregunta14":0,"Metas cuestionario pregunta15":2,"Metas cuestionario pregunta16":1,"Metas cuestionario pregunta17":2,"Metas cuestionario pregunta18":2,"Metas cuestionario pregunta19":2,"Metas cuestionario pregunta20":1},"question_order":[0,1,2,3,4,5,6,7,8,9,10,11,12,13,14,15,16,17,18,19],"trial_type":"survey-likert","trial_index":55,"time_elapsed":2652919,"internal_node_id":"0.0-8.0"}]