[{"rt":32339.5,"stimulus":"<h1 style=\"color:red; margin-top: 3%;\">¡Bienvenido(a)!</h1><p style=\"text-align:left; justify-content:space-between; margin-right: 5%; margin-left: 5%; margin-top: 5%\"> Antes de empezar el estudio, necesitamos que nos confirmes que estás de acuerdo con participar. Recuerda que tu participación es 100% voluntaria y que lo único que te pedimos es responder lo mejor que puedas. Recuerda también que el estudio incluye:</p><ol style=\"text-align:left; justify-content:space-between; margin-right: 5%; margin-left: 5%;\"><li> un ejercicio de resolución de preguntas de selección múltiple (30’),</li><li>un cuestionario breve (5’),</li><li>un juego muy breve (3’),</li></ol><p style=\"text-align:left; justify-content:space-between; margin-right: 5%; margin-left: 5%;\">Si quieres participar, haz clic en “Acepto” luego de leer lo siguiente:<br></p><p style=\"text-align:left; justify-content:space-between; margin-right: 5%; margin-left: 5%;\">Acepto participar en el estudio “Estrategias de lectura y resolución de preguntas de selección múltiple”, en los términos aquí señalados:<br></p><p style=\"text-align:left; justify-content:space-between; margin-right: 5%; margin-left: 5%;\"><a href=\"http://ciae.uchile.cl/download.php?file=noticias/Asentimiento.pdf\" target=\"_blank\">Link a la hoja de información del Consentimiento.</a></p><p style=\"text-align:left; justify-content:space-between; margin-right: 5%; margin-left: 5%;\">Declaro que he leído (o se me ha leído) y (he) comprendido, las condiciones de mi participación en este estudio. He tenido la oportunidad de hacer preguntas y éstas han sido respondidas. No tengo dudas al respecto.</p>","response":0,"condicion_MCQ":1,"condicion_JUEGO":13,"condicion_INTER":13,"numero_participante":13,"numero_version":1,"dimx":1366,"dimy":768,"color_profundidad":24,"pixel_profundidad":24,"Browser":"Google Chrome","dia":2,"mes":5,"hora":22,"minuto":13,"segundo":39,"trial_type":"html-button-response","trial_index":0,"time_elapsed":33613,"internal_node_id":"0.0-0.0"},{"success":true,"trial_type":"fullscreen","trial_index":1,"time_elapsed":45832,"internal_node_id":"0.0-1.0"},{"rt":112554.40000000002,"responses":"{\"Nombres\":\"carlita\",\"Apellidos\":\"maturana viscarra\",\"Edad\":\"18\",\"Sexo\":\"mujer\",\"Curso\":\"205\",\"Colegio\":\"U. Andrés Bello \",\"Contacto\":\"c.maturanaviscarra@uandresbello.edu\"}","trial_type":"survey-text","trial_index":2,"time_elapsed":158818,"internal_node_id":"0.0-2.0"},{"success":true,"timeout":false,"failed_images":[],"failed_audio":[],"failed_video":[],"trial_type":"preload","trial_index":3,"time_elapsed":164390,"internal_node_id":"0.0-3.0"},{"rt":55612.19999999995,"stimulus":"<h1 style:\"margin-top: 5%;\">Ejercicios de Comprensión de Lectura de la Universidad de Chile</h1><p style=\"font-size: 120%;\">En esta actividad, debes responder 24 preguntas de selección múltiple. Cada pregunta presenta 4 respuestas alternativas, pero sólo una de ellas es correcta. Por lo tanto, debes escoger una sola alternativa para cada pregunta. Además, debes reportar qué tan seguro(a) estás de la respuesta que das, con un:</p><ol style=\"font-size: 120%;text-align:left;margin-left: 40%;\"><li>No estoy seguro(a) para nada</li><li>No estoy muy seguro(a)</li><li>Estoy bastante seguro(a)</li><li>Estoy totalmente seguro(a)</li></ol><p style=\"font-size: 120%;\">Por favor lee bien los enunciados antes de responder. ¡Éxito!</p>","response":0,"trial_type":"html-button-response","trial_index":4,"time_elapsed":220001,"internal_node_id":"0.0-4.0"},{"rt":38492.39999999991,"responses":"{\"pregunta16\":\"a) Por el riesgo que corren diariamente, los bomberos deberían tener mejores condiciones de seguridad.\"}","question_order":"[0]","trial_type":"survey-multi-choice","trial_index":5,"time_elapsed":258502,"internal_node_id":"0.0-5.0-0.0"},{"rt":6574.90000000014,"response":{"pregunta16 likert":2},"question_order":[0],"trial_type":"survey-likert","trial_index":6,"time_elapsed":265087,"internal_node_id":"0.0-5.0-1.0"},{"rt":73434.8999999999,"responses":"{\"pregunta1\":\"a) Aportan informaciones con las que se reconstruye el personaje dentro de un relato.\"}","question_order":"[0]","trial_type":"survey-multi-choice","trial_index":7,"time_elapsed":338526,"internal_node_id":"0.0-5.0-2.0"},{"rt":2266.6999999999534,"response":{"pregunta1 likert":2},"question_order":[0],"trial_type":"survey-likert","trial_index":8,"time_elapsed":340797,"internal_node_id":"0.0-5.0-3.0"},{"rt":59660.90000000014,"responses":"{\"pregunta24\":\"c) la muerte es distinta en las grandes ciudades.\"}","question_order":"[0]","trial_type":"survey-multi-choice","trial_index":9,"time_elapsed":400461,"internal_node_id":"0.0-5.0-4.0"},{"rt":3779.3000000000466,"response":{"pregunta24 likert":1},"question_order":[0],"trial_type":"survey-likert","trial_index":10,"time_elapsed":404245,"internal_node_id":"0.0-5.0-5.0"},{"rt":48025.10000000009,"responses":"{\"pregunta22\":\"d) Se necesita un marco legal para delimitar lo público y lo privado en materia informativa.\"}","question_order":"[0]","trial_type":"survey-multi-choice","trial_index":11,"time_elapsed":452281,"internal_node_id":"0.0-5.0-6.0"},{"rt":1572.6000000000931,"response":{"pregunta22 likert":2},"question_order":[0],"trial_type":"survey-likert","trial_index":12,"time_elapsed":453858,"internal_node_id":"0.0-5.0-7.0"},{"rt":67202.79999999981,"responses":"{\"pregunta15\":\"b) a partir de la manipulación del núcleo se han creado elementos químicos naturales.\"}","question_order":"[0]","trial_type":"survey-multi-choice","trial_index":13,"time_elapsed":521059,"internal_node_id":"0.0-5.0-8.0"},{"rt":3098.399999999907,"response":{"pregunta15 likert":1},"question_order":[0],"trial_type":"survey-likert","trial_index":14,"time_elapsed":524162,"internal_node_id":"0.0-5.0-9.0"},{"rt":129976.59999999986,"responses":"{\"pregunta20\":\"c) para Aristóteles la virtud estaba en el justo equilibrio.\"}","question_order":"[0]","trial_type":"survey-multi-choice","trial_index":15,"time_elapsed":654152,"internal_node_id":"0.0-5.0-10.0"},{"rt":2979.5,"response":{"pregunta20 likert":1},"question_order":[0],"trial_type":"survey-likert","trial_index":16,"time_elapsed":657139,"internal_node_id":"0.0-5.0-11.0"},{"rt":105106.80000000005,"responses":"{\"pregunta18\":\"d) La publicidad es dañina para sus receptores.\"}","question_order":"[0]","trial_type":"survey-multi-choice","trial_index":17,"time_elapsed":762246,"internal_node_id":"0.0-5.0-12.0"},{"rt":1629,"response":{"pregunta18 likert":1},"question_order":[0],"trial_type":"survey-likert","trial_index":18,"time_elapsed":763880,"internal_node_id":"0.0-5.0-13.0"},{"rt":84801.90000000014,"responses":"{\"pregunta21\":\"c) Nuestra economía vivirá un proceso de ajuste a la nueva realidad.\"}","question_order":"[0]","trial_type":"survey-multi-choice","trial_index":19,"time_elapsed":848690,"internal_node_id":"0.0-5.0-14.0"},{"rt":1779.1999999999534,"response":{"pregunta21 likert":1},"question_order":[0],"trial_type":"survey-likert","trial_index":20,"time_elapsed":850475,"internal_node_id":"0.0-5.0-15.0"},{"rt":69297.3999999999,"responses":"{\"pregunta3\":\"a) El inicio de la civilización china.\"}","question_order":"[0]","trial_type":"survey-multi-choice","trial_index":21,"time_elapsed":919772,"internal_node_id":"0.0-5.0-16.0"},{"rt":2532.5,"response":{"pregunta3 likert":1},"question_order":[0],"trial_type":"survey-likert","trial_index":22,"time_elapsed":922309,"internal_node_id":"0.0-5.0-17.0"},{"rt":59643.5,"responses":"{\"pregunta13\":\"b) A la inutilidad de tanto esfuerzo si el objetivo es el reposo.\"}","question_order":"[0]","trial_type":"survey-multi-choice","trial_index":23,"time_elapsed":981962,"internal_node_id":"0.0-5.0-18.0"},{"rt":2499.1999999999534,"response":{"pregunta13 likert":2},"question_order":[0],"trial_type":"survey-likert","trial_index":24,"time_elapsed":984466,"internal_node_id":"0.0-5.0-19.0"},{"rt":63338.90000000002,"responses":"{\"pregunta4\":\"c) En la literatura, el narrador expresa su voluntad de libertad.\"}","question_order":"[0]","trial_type":"survey-multi-choice","trial_index":25,"time_elapsed":1047807,"internal_node_id":"0.0-5.0-20.0"},{"rt":1483.7999999998137,"response":{"pregunta4 likert":1},"question_order":[0],"trial_type":"survey-likert","trial_index":26,"time_elapsed":1049296,"internal_node_id":"0.0-5.0-21.0"},{"rt":34050.39999999991,"responses":"{\"pregunta23\":\"a) el jardinero era un hombre viejo.\"}","question_order":"[0]","trial_type":"survey-multi-choice","trial_index":27,"time_elapsed":1083352,"internal_node_id":"0.0-5.0-22.0"},{"rt":1858.7999999998137,"response":{"pregunta23 likert":1},"question_order":[0],"trial_type":"survey-likert","trial_index":28,"time_elapsed":1085216,"internal_node_id":"0.0-5.0-23.0"},{"rt":48938.69999999972,"responses":"{\"pregunta2\":\"d) A la relación entre hechos capitales y parámetros del pensamiento.\"}","question_order":"[0]","trial_type":"survey-multi-choice","trial_index":29,"time_elapsed":1134163,"internal_node_id":"0.0-5.0-24.0"},{"rt":1921.2999999998137,"response":{"pregunta2 likert":1},"question_order":[0],"trial_type":"survey-likert","trial_index":30,"time_elapsed":1136090,"internal_node_id":"0.0-5.0-25.0"},{"rt":67915.29999999981,"responses":"{\"pregunta14\":\"b) el Primer Ministro debía morir por ambicioso.\"}","question_order":"[0]","trial_type":"survey-multi-choice","trial_index":31,"time_elapsed":1204007,"internal_node_id":"0.0-5.0-26.0"},{"rt":1740.2999999998137,"response":{"pregunta14 likert":1},"question_order":[0],"trial_type":"survey-likert","trial_index":32,"time_elapsed":1205752,"internal_node_id":"0.0-5.0-27.0"},{"rt":75235.70000000019,"responses":"{\"pregunta19\":\"c) sufren dolores de espalda.\"}","question_order":"[0]","trial_type":"survey-multi-choice","trial_index":33,"time_elapsed":1280997,"internal_node_id":"0.0-5.0-28.0"},{"rt":1851,"response":{"pregunta19 likert":1},"question_order":[0],"trial_type":"survey-likert","trial_index":34,"time_elapsed":1282854,"internal_node_id":"0.0-5.0-29.0"},{"rt":54082.60000000009,"responses":"{\"pregunta10\":\"d) ritualistas y obsesivos.\"}","question_order":"[0]","trial_type":"survey-multi-choice","trial_index":35,"time_elapsed":1336941,"internal_node_id":"0.0-5.0-30.0"},{"rt":2619.2000000001863,"response":{"pregunta10 likert":2},"question_order":[0],"trial_type":"survey-likert","trial_index":36,"time_elapsed":1339564,"internal_node_id":"0.0-5.0-31.0"},{"rt":109235,"responses":"{\"pregunta12\":\"d) Homenajear a quienes murieron.\"}","question_order":"[0]","trial_type":"survey-multi-choice","trial_index":37,"time_elapsed":1448803,"internal_node_id":"0.0-5.0-32.0"},{"rt":1707.4000000003725,"response":{"pregunta12 likert":1},"question_order":[0],"trial_type":"survey-likert","trial_index":38,"time_elapsed":1450516,"internal_node_id":"0.0-5.0-33.0"},{"rt":45154.5,"responses":"{\"pregunta8\":\"c) El ser humano se comporta de acuerdo con las circunstancias.\"}","question_order":"[0]","trial_type":"survey-multi-choice","trial_index":39,"time_elapsed":1495672,"internal_node_id":"0.0-5.0-34.0"},{"rt":3211.7999999998137,"response":{"pregunta8 likert":1},"question_order":[0],"trial_type":"survey-likert","trial_index":40,"time_elapsed":1498889,"internal_node_id":"0.0-5.0-35.0"},{"rt":53674.40000000037,"responses":"{\"pregunta7\":\"a) es una realidad discutida por algunos.\"}","question_order":"[0]","trial_type":"survey-multi-choice","trial_index":41,"time_elapsed":1552573,"internal_node_id":"0.0-5.0-36.0"},{"rt":1153,"response":{"pregunta7 likert":1},"question_order":[0],"trial_type":"survey-likert","trial_index":42,"time_elapsed":1553732,"internal_node_id":"0.0-5.0-37.0"},{"rt":137299.7999999998,"responses":"{\"pregunta11\":\"d) Provocar el deseo de la adquisición vertiginosa.\"}","question_order":"[0]","trial_type":"survey-multi-choice","trial_index":43,"time_elapsed":1691037,"internal_node_id":"0.0-5.0-38.0"},{"rt":4531.200000000186,"response":{"pregunta11 likert":1},"question_order":[0],"trial_type":"survey-likert","trial_index":44,"time_elapsed":1695568,"internal_node_id":"0.0-5.0-39.0"},{"rt":92563.8999999999,"responses":"{\"pregunta6\":\"d) Presentar positivamente las diversas tendencias del diseño de interiores a través de un comentario.\"}","question_order":"[0]","trial_type":"survey-multi-choice","trial_index":45,"time_elapsed":1788140,"internal_node_id":"0.0-5.0-40.0"},{"rt":1844.3000000002794,"response":{"pregunta6 likert":1},"question_order":[0],"trial_type":"survey-likert","trial_index":46,"time_elapsed":1789989,"internal_node_id":"0.0-5.0-41.0"},{"rt":56515,"responses":"{\"pregunta9\":\"b) la persistencia de la melancolía y la desesperanza.\"}","question_order":"[0]","trial_type":"survey-multi-choice","trial_index":47,"time_elapsed":1846509,"internal_node_id":"0.0-5.0-42.0"},{"rt":1354.5,"response":{"pregunta9 likert":1},"question_order":[0],"trial_type":"survey-likert","trial_index":48,"time_elapsed":1847869,"internal_node_id":"0.0-5.0-43.0"},{"rt":57107.200000000186,"responses":"{\"pregunta5\":\"c) La escritura plasma los mejores momentos de los viajes.\"}","question_order":"[0]","trial_type":"survey-multi-choice","trial_index":49,"time_elapsed":1904980,"internal_node_id":"0.0-5.0-44.0"},{"rt":4084.2000000001863,"response":{"pregunta5 likert":1},"question_order":[0],"trial_type":"survey-likert","trial_index":50,"time_elapsed":1909069,"internal_node_id":"0.0-5.0-45.0"},{"rt":13528.899999999907,"responses":"{\"pregunta17\":\"a) A la temática satánica de las canciones del grupo.\"}","question_order":"[0]","trial_type":"survey-multi-choice","trial_index":51,"time_elapsed":1922603,"internal_node_id":"0.0-5.0-46.0"},{"rt":1780.1999999997206,"response":{"pregunta17 likert":2},"question_order":[0],"trial_type":"survey-likert","trial_index":52,"time_elapsed":1924389,"internal_node_id":"0.0-5.0-47.0"},{"rt":2701.5,"stimulus":"<p style=\"font-size: 120%\">Gracias por completar esta etapa del estudio. Ahora te invitamos a responder el cuestionario.<br><br></p>","response":0,"trial_type":"html-button-response","trial_index":53,"time_elapsed":1927157,"internal_node_id":"0.0-6.0"},{"rt":18923.5,"stimulus":"<h1 style=\"margin-top: 5%\">Cuestionario para la Evaluación de Metas Académicas</h1><p style=\"font-size: 120%; margin-left: 3%; margin-top: 5%\">Este es un cuestionario que permite conocer cuáles son los principales motivos por los que los estudiantes se esfuerzan en su trabajo académico. A continuación, se te presentarán una serie de afirmaciones acerca de los motivos que puedes tener para estudiar.<br>Te pedimos que contestes a dichas afirmaciones reflexionando sobre el contenido de cada una de ellas, que, aunque te parezcan semejantes, en realidad, no lo son.<br>NO HAY RESPUESTAS CORRECTAS o INCORRECTAS, sólo queremos que respondas con la mayor precisión y sinceridad posible a las preguntas que se plantean.","response":0,"trial_type":"html-button-response","trial_index":54,"time_elapsed":1946084,"internal_node_id":"0.0-7.0"},{"rt":93704.5,"response":{"Metas cuestionario pregunta1":3,"Metas cuestionario pregunta2":4,"Metas cuestionario pregunta3":4,"Metas cuestionario pregunta4":3,"Metas cuestionario pregunta5":3,"Metas cuestionario pregunta6":2,"Metas cuestionario pregunta7":2,"Metas cuestionario pregunta8":4,"Metas cuestionario pregunta9":2,"Metas cuestionario pregunta10":0,"Metas cuestionario pregunta11":0,"Metas cuestionario pregunta12":0,"Metas cuestionario pregunta13":0,"Metas cuestionario pregunta14":0,"Metas cuestionario pregunta15":4,"Metas cuestionario pregunta16":4,"Metas cuestionario pregunta17":4,"Metas cuestionario pregunta18":4,"Metas cuestionario pregunta19":4,"Metas cuestionario pregunta20":4},"question_order":[0,1,2,3,4,5,6,7,8,9,10,11,12,13,14,15,16,17,18,19],"trial_type":"survey-likert","trial_index":55,"time_elapsed":2039809,"internal_node_id":"0.0-8.0"},{"rt":2284.2999999998137,"stimulus":"<p style=\"font-size: 120%\">Gracias por responder el cuestionario. Ahora te invitamos a seguir con el juego, que es muy breve.<br><br></p>","response":0,"trial_type":"html-button-response","trial_index":56,"time_elapsed":2042104,"internal_node_id":"0.0-9.0"},{"rt":10290.700000000186,"stimulus":"<h1>Juego</h1><p style=\"font-size: 120%;\">A continuación se te presentarán 16 pequeñas historias.<br>Por favor lee el texto presentado en cada una de ellas y luego haz click en el objeto de tu elección.<br>Si estás listo(a),<span style=\"color:red;\"> haz click en \"comenzar\"</span>.</p>","response":0,"trial_type":"html-button-response","trial_index":57,"time_elapsed":2052398,"internal_node_id":"0.0-10.0"},{"rt":12021.799999999814,"grid":[[1,1,1,1],[1,1,1,1],[1,1,1,1],[1,1,1,1],[1,1,1,1],[1,1,1,1],[1,1,1,1],[1,1,1,1],[1,1,1,1]],"target":[0,0],"response":[5,2],"correct":false,"juego":15,"trial_type":"serial-reaction-time-mouse","trial_index":58,"time_elapsed":2064428,"internal_node_id":"0.0-11.0-0.0"},{"rt":11737.5,"grid":[[1,1,1,1]],"target":[0,0],"response":[0,1],"correct":false,"juego":12,"trial_type":"serial-reaction-time-mouse","trial_index":59,"time_elapsed":2076169,"internal_node_id":"0.0-11.0-1.0"},{"rt":12445.19999999972,"grid":[[1,1,1,1]],"target":[0,0],"response":[0,2],"correct":false,"juego":11,"trial_type":"serial-reaction-time-mouse","trial_index":60,"time_elapsed":2088613,"internal_node_id":"0.0-11.0-2.0"},{"rt":10473.69999999972,"grid":[[1,1,1],[1,1,1],[1,1,1],[1,1,1],[1,1,1],[1,1,1],[1,1,1],[1,1,1],[1,1,1]],"target":[0,0],"response":[3,1],"correct":false,"juego":13,"trial_type":"serial-reaction-time-mouse","trial_index":61,"time_elapsed":2099093,"internal_node_id":"0.0-11.0-3.0"},{"rt":10002.100000000093,"grid":[[1,1,1],[1,1,1],[1,1,1],[1,1,1],[1,1,1],[1,1,1],[1,1,1],[1,1,1],[1,1,1]],"target":[0,0],"response":[1,1],"correct":false,"juego":5,"trial_type":"serial-reaction-time-mouse","trial_index":62,"time_elapsed":2109101,"internal_node_id":"0.0-11.0-4.0"},{"rt":9589.399999999907,"grid":[[1,1,1,1]],"target":[0,0],"response":[0,1],"correct":false,"juego":8,"trial_type":"serial-reaction-time-mouse","trial_index":63,"time_elapsed":2118694,"internal_node_id":"0.0-11.0-5.0"},{"rt":12394.399999999907,"grid":[[1],[1],[1],[1]],"target":[0,0],"response":[1,0],"correct":false,"juego":4,"trial_type":"serial-reaction-time-mouse","trial_index":64,"time_elapsed":2131093,"internal_node_id":"0.0-11.0-6.0"},{"rt":4202.899999999907,"grid":[[1,1,1,1]],"target":[0,0],"response":[0,3],"correct":false,"juego":2,"trial_type":"serial-reaction-time-mouse","trial_index":65,"time_elapsed":2135300,"internal_node_id":"0.0-11.0-7.0"},{"rt":5210.5,"grid":[[1,1,1],[1,1,1],[1,1,1],[1,1,1],[1,1,1],[1,1,1],[1,1,1],[1,1,1],[1,1,1]],"target":[0,0],"response":[1,1],"correct":false,"juego":6,"trial_type":"serial-reaction-time-mouse","trial_index":66,"time_elapsed":2140516,"internal_node_id":"0.0-11.0-8.0"},{"rt":9165.19999999972,"grid":[[1,1,1,1]],"target":[0,0],"response":[0,2],"correct":false,"juego":7,"trial_type":"serial-reaction-time-mouse","trial_index":67,"time_elapsed":2149683,"internal_node_id":"0.0-11.0-9.0"},{"rt":2707.6999999997206,"grid":[[1,1,1,1]],"target":[0,0],"response":[0,0],"correct":true,"juego":1,"trial_type":"serial-reaction-time-mouse","trial_index":68,"time_elapsed":2152394,"internal_node_id":"0.0-11.0-10.0"},{"rt":9203,"grid":[[1,1,1],[1,1,1],[1,1,1],[1,1,1],[1,1,1],[1,1,1],[1,1,1],[1,1,1],[1,1,1]],"target":[0,0],"response":[7,0],"correct":false,"juego":10,"trial_type":"serial-reaction-time-mouse","trial_index":69,"time_elapsed":2161603,"internal_node_id":"0.0-11.0-11.0"},{"rt":10972.899999999907,"grid":[[1,1,1,1]],"target":[0,0],"response":[0,0],"correct":true,"juego":3,"trial_type":"serial-reaction-time-mouse","trial_index":70,"time_elapsed":2172580,"internal_node_id":"0.0-11.0-12.0"},{"rt":10316.299999999814,"grid":[[1,1,1,1]],"target":[0,0],"response":[0,2],"correct":false,"juego":9,"trial_type":"serial-reaction-time-mouse","trial_index":71,"time_elapsed":2182900,"internal_node_id":"0.0-11.0-13.0"},{"rt":8438.200000000186,"grid":[[1,1,1,1],[1,1,1,1],[1,1,1,1],[1,1,1,1],[1,1,1,1],[1,1,1,1],[1,1,1,1],[1,1,1,1],[1,1,1,1]],"target":[0,0],"response":[1,2],"correct":false,"juego":14,"trial_type":"serial-reaction-time-mouse","trial_index":72,"time_elapsed":2191346,"internal_node_id":"0.0-11.0-14.0"},{"rt":4446.300000000279,"stimulus":"<h1>Último juego</h1><p style=\"font-size: 130%;\">Tienes <span style=\"color:red\">25</span> segundos para recordar los pares de palabras que aparecerán a continuación. <br></p>","response":0,"trial_type":"html-button-response","trial_index":73,"time_elapsed":2195801,"internal_node_id":"0.0-12.0"},{"animation_sequence":[{"stimulus":"imagen_juego_interferencia.jpg","time":574.5},{"stimulus":"imagen_juego_interferencia.jpg","time":1005.5},{"stimulus":"imagen_juego_interferencia.jpg","time":1507.9000000003725},{"stimulus":"imagen_juego_interferencia.jpg","time":2008.4000000003725},{"stimulus":"imagen_juego_interferencia.jpg","time":2502.5},{"stimulus":"imagen_juego_interferencia.jpg","time":3008},{"stimulus":"imagen_juego_interferencia.jpg","time":3504.5},{"stimulus":"imagen_juego_interferencia.jpg","time":4005.2000000001863},{"stimulus":"imagen_juego_interferencia.jpg","time":4515.800000000279},{"stimulus":"imagen_juego_interferencia.jpg","time":5017},{"stimulus":"imagen_juego_interferencia.jpg","time":5508.700000000186},{"stimulus":"imagen_juego_interferencia.jpg","time":6014.9000000003725},{"stimulus":"imagen_juego_interferencia.jpg","time":6512.600000000093},{"stimulus":"imagen_juego_interferencia.jpg","time":7006.700000000186},{"stimulus":"imagen_juego_interferencia.jpg","time":7508.800000000279},{"stimulus":"imagen_juego_interferencia.jpg","time":8008.4000000003725},{"stimulus":"imagen_juego_interferencia.jpg","time":8508.600000000093},{"stimulus":"imagen_juego_interferencia.jpg","time":9009.900000000373},{"stimulus":"imagen_juego_interferencia.jpg","time":9504.100000000093},{"stimulus":"imagen_juego_interferencia.jpg","time":10006.400000000373},{"stimulus":"imagen_juego_interferencia.jpg","time":10509.400000000373},{"stimulus":"imagen_juego_interferencia.jpg","time":11003},{"stimulus":"imagen_juego_interferencia.jpg","time":11503.400000000373},{"stimulus":"imagen_juego_interferencia.jpg","time":12002.900000000373},{"stimulus":"imagen_juego_interferencia.jpg","time":12510.5},{"stimulus":"imagen_juego_interferencia.jpg","time":13005.100000000093},{"stimulus":"imagen_juego_interferencia.jpg","time":13503.900000000373},{"stimulus":"imagen_juego_interferencia.jpg","time":14005},{"stimulus":"imagen_juego_interferencia.jpg","time":14506.5},{"stimulus":"imagen_juego_interferencia.jpg","time":15006.900000000373},{"stimulus":"imagen_juego_interferencia.jpg","time":15508},{"stimulus":"imagen_juego_interferencia.jpg","time":16015.600000000093},{"stimulus":"imagen_juego_interferencia.jpg","time":16503},{"stimulus":"imagen_juego_interferencia.jpg","time":17004.600000000093},{"stimulus":"imagen_juego_interferencia.jpg","time":17503.600000000093},{"stimulus":"imagen_juego_interferencia.jpg","time":18008.30000000028},{"stimulus":"imagen_juego_interferencia.jpg","time":18502.700000000186},{"stimulus":"imagen_juego_interferencia.jpg","time":19009.100000000093},{"stimulus":"imagen_juego_interferencia.jpg","time":19503.100000000093},{"stimulus":"imagen_juego_interferencia.jpg","time":20005.100000000093},{"stimulus":"imagen_juego_interferencia.jpg","time":20506.80000000028},{"stimulus":"imagen_juego_interferencia.jpg","time":21008.700000000186},{"stimulus":"imagen_juego_interferencia.jpg","time":21505.200000000186},{"stimulus":"imagen_juego_interferencia.jpg","time":22006.900000000373},{"stimulus":"imagen_juego_interferencia.jpg","time":22506.900000000373},{"stimulus":"imagen_juego_interferencia.jpg","time":23008.900000000373},{"stimulus":"imagen_juego_interferencia.jpg","time":23509.100000000093},{"stimulus":"imagen_juego_interferencia.jpg","time":24010},{"stimulus":"imagen_juego_interferencia.jpg","time":24502.80000000028},{"stimulus":"imagen_juego_interferencia.jpg","time":25011.30000000028}],"response":[],"trial_type":"animation","trial_index":74,"time_elapsed":2221312,"internal_node_id":"0.0-13.0"},{"rt":6872.699999999721,"responses":"{\"pregunta interferencia4\":\"contador\"}","question_order":"[0]","trial_type":"survey-multi-choice-cuest","trial_index":75,"time_elapsed":2228190,"internal_node_id":"0.0-14.0-0.0"},{"rt":5738.299999999814,"responses":"{\"pregunta interferencia1\":\"naranja\"}","question_order":"[0]","trial_type":"survey-multi-choice-cuest","trial_index":76,"time_elapsed":2233933,"internal_node_id":"0.0-14.0-1.0"},{"rt":7371.5999999996275,"responses":"{\"pregunta interferencia2\":\"saltamontes\"}","question_order":"[0]","trial_type":"survey-multi-choice-cuest","trial_index":77,"time_elapsed":2241310,"internal_node_id":"0.0-14.0-2.0"},{"rt":5387,"responses":"{\"pregunta interferencia3\":\"aluminio\"}","question_order":"[0]","trial_type":"survey-multi-choice-cuest","trial_index":78,"time_elapsed":2246701,"internal_node_id":"0.0-14.0-3.0"},{"success":true,"trial_type":"fullscreen","trial_index":79,"time_elapsed":2247712,"internal_node_id":"0.0-15.0"},{"rt":37777.200000000186,"responses":"{\"Telefono\":\"+569 90593393\"}","trial_type":"survey-text","trial_index":80,"time_elapsed":2285503,"internal_node_id":"0.0-16.0"}]