[{"rt":49895.699999928474,"stimulus":"<h1 style=\"color:red; margin-top: 3%;\">¡Bienvenido(a)!</h1><p style=\"text-align:left; justify-content:space-between; margin-right: 5%; margin-left: 5%; margin-top: 5%\"> Antes de empezar el estudio, necesitamos que nos confirmes que estás de acuerdo con participar. Recuerda que tu participación es 100% voluntaria y que lo único que te pedimos es responder lo mejor que puedas. Recuerda también que el estudio incluye:</p><ol style=\"text-align:left; justify-content:space-between; margin-right: 5%; margin-left: 5%;\"><li> un ejercicio de resolución de preguntas de selección múltiple (30’),</li><li>un cuestionario breve (5’),</li><li>un juego muy breve (3’),</li></ol><p style=\"text-align:left; justify-content:space-between; margin-right: 5%; margin-left: 5%;\">Si quieres participar, haz clic en “Acepto” luego de leer lo siguiente:<br></p><p style=\"text-align:left; justify-content:space-between; margin-right: 5%; margin-left: 5%;\">Acepto participar en el estudio “Estrategias de lectura y resolución de preguntas de selección múltiple”, en los términos aquí señalados:<br></p><p style=\"text-align:left; justify-content:space-between; margin-right: 5%; margin-left: 5%;\"><a href=\"http://ciae.uchile.cl/download.php?file=noticias/Asentimiento.pdf\" target=\"_blank\">Link a la hoja de información del Consentimiento.</a></p><p style=\"text-align:left; justify-content:space-between; margin-right: 5%; margin-left: 5%;\">Declaro que he leído (o se me ha leído) y (he) comprendido, las condiciones de mi participación en este estudio. He tenido la oportunidad de hacer preguntas y éstas han sido respondidas. No tengo dudas al respecto.</p>","response":0,"condicion_MCQ":2,"condicion_JUEGO":2,"condicion_INTER":2,"numero_participante":98,"numero_version":1,"dimx":1366,"dimy":768,"color_profundidad":24,"pixel_profundidad":24,"Browser":"Google Chrome","dia":23,"mes":5,"hora":19,"minuto":6,"segundo":52,"trial_type":"html-button-response","trial_index":0,"time_elapsed":49901,"internal_node_id":"0.0-0.0"},{"success":true,"trial_type":"fullscreen","trial_index":1,"time_elapsed":58422,"internal_node_id":"0.0-1.0"},{"rt":41072.199999928474,"responses":"{\"Nombres\":\"Bárbara Fernanda Valentina\",\"Apellidos\":\"Maldonado Aracena\",\"Edad\":\"18\",\"Sexo\":\"mujer\",\"Curso\":\"Sección 204\",\"Colegio\":\"Universidad Andrés Bello\",\"Contacto\":\"barbarafv.maldo@gmail.com\"}","trial_type":"survey-text","trial_index":2,"time_elapsed":99543,"internal_node_id":"0.0-2.0"},{"success":true,"timeout":false,"failed_images":[],"failed_audio":[],"failed_video":[],"trial_type":"preload","trial_index":3,"time_elapsed":101749,"internal_node_id":"0.0-3.0"},{"rt":42216.5,"stimulus":"<h1 style:\"margin-top: 5%;\">Ejercicios de Comprensión de Lectura de la Universidad de Chile</h1><p style=\"font-size: 120%;\">En esta actividad, debes responder 24 preguntas de selección múltiple. Cada pregunta presenta 4 respuestas alternativas, pero sólo una de ellas es correcta. Por lo tanto, debes escoger una sola alternativa para cada pregunta. Además, debes reportar qué tan seguro(a) estás de la respuesta que das, con un:</p><ol style=\"font-size: 120%;text-align:left;margin-left: 40%;\"><li>No estoy seguro(a) para nada</li><li>No estoy muy seguro(a)</li><li>Estoy bastante seguro(a)</li><li>Estoy totalmente seguro(a)</li></ol><p style=\"font-size: 120%;\">Por favor lee bien los enunciados antes de responder. ¡Éxito!</p>","response":0,"trial_type":"html-button-response","trial_index":4,"time_elapsed":143970,"internal_node_id":"0.0-4.0"},{"rt":104106.39999997616,"responses":"{\"pregunta7\":\"a) es un concepto introducido en la cultura por Platón.\"}","question_order":"[0]","trial_type":"survey-multi-choice","trial_index":5,"time_elapsed":248089,"internal_node_id":"0.0-5.0-0.0"},{"rt":4040.9000000953674,"response":{"pregunta7 likert":1},"question_order":[0],"trial_type":"survey-likert","trial_index":6,"time_elapsed":252137,"internal_node_id":"0.0-5.0-1.0"},{"rt":70395.39999997616,"responses":"{\"pregunta15\":\"c) a partir de la manipulación del núcleo se han creado elementos químicos naturales.\"}","question_order":"[0]","trial_type":"survey-multi-choice","trial_index":7,"time_elapsed":322536,"internal_node_id":"0.0-5.0-2.0"},{"rt":3160.899999976158,"response":{"pregunta15 likert":1},"question_order":[0],"trial_type":"survey-likert","trial_index":8,"time_elapsed":325702,"internal_node_id":"0.0-5.0-3.0"},{"rt":69815.29999995232,"responses":"{\"pregunta23\":\"d) el jardinero estará muerto al día siguiente.\"}","question_order":"[0]","trial_type":"survey-multi-choice","trial_index":9,"time_elapsed":395522,"internal_node_id":"0.0-5.0-4.0"},{"rt":2942.1999999284744,"response":{"pregunta23 likert":3},"question_order":[0],"trial_type":"survey-likert","trial_index":10,"time_elapsed":398470,"internal_node_id":"0.0-5.0-5.0"},{"rt":47828.199999928474,"responses":"{\"pregunta16\":\"c) Por el riesgo que corren diariamente, los bomberos deberían tener mejores condiciones de seguridad.\"}","question_order":"[0]","trial_type":"survey-multi-choice","trial_index":11,"time_elapsed":446306,"internal_node_id":"0.0-5.0-6.0"},{"rt":2113.9000000953674,"response":{"pregunta16 likert":3},"question_order":[0],"trial_type":"survey-likert","trial_index":12,"time_elapsed":448425,"internal_node_id":"0.0-5.0-7.0"},{"rt":164351.90000009537,"responses":"{\"pregunta3\":\"d) Las grandes civilizaciones autóctonas.\"}","question_order":"[0]","trial_type":"survey-multi-choice","trial_index":13,"time_elapsed":612782,"internal_node_id":"0.0-5.0-8.0"},{"rt":1671.1000000238419,"response":{"pregunta3 likert":0},"question_order":[0],"trial_type":"survey-likert","trial_index":14,"time_elapsed":614458,"internal_node_id":"0.0-5.0-9.0"},{"rt":3827.100000023842,"responses":"{\"pregunta22\":\"b) El derecho a informar y el derecho a la privacidad son inconciliables.\"}","question_order":"[0]","trial_type":"survey-multi-choice","trial_index":15,"time_elapsed":618291,"internal_node_id":"0.0-5.0-10.0"},{"rt":1486.6000000238419,"response":{"pregunta22 likert":0},"question_order":[0],"trial_type":"survey-likert","trial_index":16,"time_elapsed":619782,"internal_node_id":"0.0-5.0-11.0"},{"rt":2909.600000023842,"responses":"{\"pregunta14\":\"b) el Primer Ministro debía morir por ambicioso.\"}","question_order":"[0]","trial_type":"survey-multi-choice","trial_index":17,"time_elapsed":622696,"internal_node_id":"0.0-5.0-12.0"},{"rt":1820.6000000238419,"response":{"pregunta14 likert":2},"question_order":[0],"trial_type":"survey-likert","trial_index":18,"time_elapsed":624522,"internal_node_id":"0.0-5.0-13.0"},{"rt":5161.100000023842,"responses":"{\"pregunta4\":\"c) En la literatura como en la vida, todo es metáfora.\"}","question_order":"[0]","trial_type":"survey-multi-choice","trial_index":19,"time_elapsed":629691,"internal_node_id":"0.0-5.0-14.0"},{"rt":1803.8000000715256,"response":{"pregunta4 likert":3},"question_order":[0],"trial_type":"survey-likert","trial_index":20,"time_elapsed":631500,"internal_node_id":"0.0-5.0-15.0"},{"rt":2438.899999976158,"responses":"{\"pregunta8\":\"d) El concepto de normalidad es diferente para un psiquiatra que para nosotros.\"}","question_order":"[0]","trial_type":"survey-multi-choice","trial_index":21,"time_elapsed":633944,"internal_node_id":"0.0-5.0-16.0"},{"rt":3069.9000000953674,"response":{"pregunta8 likert":1},"question_order":[0],"trial_type":"survey-likert","trial_index":22,"time_elapsed":637018,"internal_node_id":"0.0-5.0-17.0"},{"rt":3904.2000000476837,"responses":"{\"pregunta1\":\"a) Aportan informaciones con las que se reconstruye el personaje dentro de un relato.\"}","question_order":"[0]","trial_type":"survey-multi-choice","trial_index":23,"time_elapsed":640927,"internal_node_id":"0.0-5.0-18.0"},{"rt":1913.7999999523163,"response":{"pregunta1 likert":1},"question_order":[0],"trial_type":"survey-likert","trial_index":24,"time_elapsed":642845,"internal_node_id":"0.0-5.0-19.0"},{"rt":38866.200000047684,"responses":"{\"pregunta20\":\"b) el hombre excesivo es inmoral.\"}","question_order":"[0]","trial_type":"survey-multi-choice","trial_index":25,"time_elapsed":681715,"internal_node_id":"0.0-5.0-20.0"},{"rt":2579.399999976158,"response":{"pregunta20 likert":3},"question_order":[0],"trial_type":"survey-likert","trial_index":26,"time_elapsed":684297,"internal_node_id":"0.0-5.0-21.0"},{"rt":8889.100000023842,"responses":"{\"pregunta11\":\"a) Mostrar personajes bellos y poderosos.\"}","question_order":"[0]","trial_type":"survey-multi-choice","trial_index":27,"time_elapsed":693191,"internal_node_id":"0.0-5.0-22.0"},{"rt":1572.3999999761581,"response":{"pregunta11 likert":1},"question_order":[0],"trial_type":"survey-likert","trial_index":28,"time_elapsed":694768,"internal_node_id":"0.0-5.0-23.0"},{"rt":1294.6000000238419,"responses":"{\"pregunta17\":\"b) A la influencia de grupos que rechazaban su música.\"}","question_order":"[0]","trial_type":"survey-multi-choice","trial_index":29,"time_elapsed":696067,"internal_node_id":"0.0-5.0-24.0"},{"rt":1453.6000000238419,"response":{"pregunta17 likert":2},"question_order":[0],"trial_type":"survey-likert","trial_index":30,"time_elapsed":697525,"internal_node_id":"0.0-5.0-25.0"},{"rt":2457.8000000715256,"responses":"{\"pregunta9\":\"d) preparar los recuerdos del mañana.\"}","question_order":"[0]","trial_type":"survey-multi-choice","trial_index":31,"time_elapsed":699987,"internal_node_id":"0.0-5.0-26.0"},{"rt":1167.6999999284744,"response":{"pregunta9 likert":2},"question_order":[0],"trial_type":"survey-likert","trial_index":32,"time_elapsed":701162,"internal_node_id":"0.0-5.0-27.0"},{"rt":3615.7999999523163,"responses":"{\"pregunta12\":\"d) Construir un museo.\"}","question_order":"[0]","trial_type":"survey-multi-choice","trial_index":33,"time_elapsed":704784,"internal_node_id":"0.0-5.0-28.0"},{"rt":2436.600000023842,"response":{"pregunta12 likert":2},"question_order":[0],"trial_type":"survey-likert","trial_index":34,"time_elapsed":707226,"internal_node_id":"0.0-5.0-29.0"},{"rt":1835.8000000715256,"responses":"{\"pregunta13\":\"b) A la conveniencia de no postergar el descanso personal.\"}","question_order":"[0]","trial_type":"survey-multi-choice","trial_index":35,"time_elapsed":709066,"internal_node_id":"0.0-5.0-30.0"},{"rt":1941,"response":{"pregunta13 likert":2},"question_order":[0],"trial_type":"survey-likert","trial_index":36,"time_elapsed":711014,"internal_node_id":"0.0-5.0-31.0"},{"rt":2257,"responses":"{\"pregunta5\":\"a) La escritura olvida los momentos insignificantes de los viajes.\"}","question_order":"[0]","trial_type":"survey-multi-choice","trial_index":37,"time_elapsed":713277,"internal_node_id":"0.0-5.0-32.0"},{"rt":2162.399999976158,"response":{"pregunta5 likert":1},"question_order":[0],"trial_type":"survey-likert","trial_index":38,"time_elapsed":715443,"internal_node_id":"0.0-5.0-33.0"},{"rt":27539.600000023842,"responses":"{\"pregunta24\":\"c) el mexicano ama morir.\"}","question_order":"[0]","trial_type":"survey-multi-choice","trial_index":39,"time_elapsed":742987,"internal_node_id":"0.0-5.0-34.0"},{"rt":1644.3999999761581,"response":{"pregunta24 likert":1},"question_order":[0],"trial_type":"survey-likert","trial_index":40,"time_elapsed":744637,"internal_node_id":"0.0-5.0-35.0"},{"rt":1739,"responses":"{\"pregunta18\":\"a) La publicidad es dañina para sus receptores.\"}","question_order":"[0]","trial_type":"survey-multi-choice","trial_index":41,"time_elapsed":746379,"internal_node_id":"0.0-5.0-36.0"},{"rt":3180.7999999523163,"response":{"pregunta18 likert":1},"question_order":[0],"trial_type":"survey-likert","trial_index":42,"time_elapsed":749564,"internal_node_id":"0.0-5.0-37.0"},{"rt":1909.2000000476837,"responses":"{\"pregunta2\":\"d) A la relación entre sociedad y constitución social.\"}","question_order":"[0]","trial_type":"survey-multi-choice","trial_index":43,"time_elapsed":751476,"internal_node_id":"0.0-5.0-38.0"},{"rt":1172.2000000476837,"response":{"pregunta2 likert":2},"question_order":[0],"trial_type":"survey-likert","trial_index":44,"time_elapsed":752654,"internal_node_id":"0.0-5.0-39.0"},{"rt":1877.1000000238419,"responses":"{\"pregunta19\":\"a) tienen dificultades durante el parto.\"}","question_order":"[0]","trial_type":"survey-multi-choice","trial_index":45,"time_elapsed":754538,"internal_node_id":"0.0-5.0-40.0"},{"rt":2070.5,"response":{"pregunta19 likert":1},"question_order":[0],"trial_type":"survey-likert","trial_index":46,"time_elapsed":756613,"internal_node_id":"0.0-5.0-41.0"},{"rt":2170.8000000715256,"responses":"{\"pregunta21\":\"a) El TLC causará una completa transformación de la economía chilena.\"}","question_order":"[0]","trial_type":"survey-multi-choice","trial_index":47,"time_elapsed":758789,"internal_node_id":"0.0-5.0-42.0"},{"rt":1588.5,"response":{"pregunta21 likert":1},"question_order":[0],"trial_type":"survey-likert","trial_index":48,"time_elapsed":760382,"internal_node_id":"0.0-5.0-43.0"},{"rt":2539.7000000476837,"responses":"{\"pregunta6\":\"c) Promover la asistencia a un evento específico de decoración a través de una atractiva descripción.\"}","question_order":"[0]","trial_type":"survey-multi-choice","trial_index":49,"time_elapsed":762926,"internal_node_id":"0.0-5.0-44.0"},{"rt":1367.5,"response":{"pregunta6 likert":2},"question_order":[0],"trial_type":"survey-likert","trial_index":50,"time_elapsed":764298,"internal_node_id":"0.0-5.0-45.0"},{"rt":3687.399999976158,"responses":"{\"pregunta10\":\"a) pacientes y misteriosos.\"}","question_order":"[0]","trial_type":"survey-multi-choice","trial_index":51,"time_elapsed":767990,"internal_node_id":"0.0-5.0-46.0"},{"rt":1445.3999999761581,"response":{"pregunta10 likert":2},"question_order":[0],"trial_type":"survey-likert","trial_index":52,"time_elapsed":769440,"internal_node_id":"0.0-5.0-47.0"},{"rt":2449.6999999284744,"stimulus":"<p style=\"font-size: 120%\">Gracias por completar esta etapa del estudio. Ahora te invitamos a responder el cuestionario.<br><br></p>","response":0,"trial_type":"html-button-response","trial_index":53,"time_elapsed":771901,"internal_node_id":"0.0-6.0"},{"rt":5402.800000071526,"stimulus":"<h1 style=\"margin-top: 5%\">Cuestionario para la Evaluación de Metas Académicas</h1><p style=\"font-size: 120%; margin-left: 3%; margin-top: 5%\">Este es un cuestionario que permite conocer cuáles son los principales motivos por los que los estudiantes se esfuerzan en su trabajo académico. A continuación, se te presentarán una serie de afirmaciones acerca de los motivos que puedes tener para estudiar.<br>Te pedimos que contestes a dichas afirmaciones reflexionando sobre el contenido de cada una de ellas, que, aunque te parezcan semejantes, en realidad, no lo son.<br>NO HAY RESPUESTAS CORRECTAS o INCORRECTAS, sólo queremos que respondas con la mayor precisión y sinceridad posible a las preguntas que se plantean.","response":0,"trial_type":"html-button-response","trial_index":54,"time_elapsed":777308,"internal_node_id":"0.0-7.0"},{"rt":74372.10000002384,"response":{"Metas cuestionario pregunta1":4,"Metas cuestionario pregunta2":4,"Metas cuestionario pregunta3":4,"Metas cuestionario pregunta4":3,"Metas cuestionario pregunta5":4,"Metas cuestionario pregunta6":4,"Metas cuestionario pregunta7":4,"Metas cuestionario pregunta8":4,"Metas cuestionario pregunta9":4,"Metas cuestionario pregunta10":4,"Metas cuestionario pregunta11":3,"Metas cuestionario pregunta12":4,"Metas cuestionario pregunta13":4,"Metas cuestionario pregunta14":2,"Metas cuestionario pregunta15":4,"Metas cuestionario pregunta16":4,"Metas cuestionario pregunta17":4,"Metas cuestionario pregunta18":4,"Metas cuestionario pregunta19":4,"Metas cuestionario pregunta20":4},"question_order":[0,1,2,3,4,5,6,7,8,9,10,11,12,13,14,15,16,17,18,19],"trial_type":"survey-likert","trial_index":55,"time_elapsed":851700,"internal_node_id":"0.0-8.0"},{"rt":1644.6999999284744,"stimulus":"<p style=\"font-size: 120%\">Gracias por responder el cuestionario. Ahora te invitamos a seguir con el juego, que es muy breve.<br><br></p>","response":0,"trial_type":"html-button-response","trial_index":56,"time_elapsed":853357,"internal_node_id":"0.0-9.0"},{"rt":5891,"stimulus":"<h1>Juego</h1><p style=\"font-size: 120%;\">A continuación se te presentarán 16 pequeñas historias.<br>Por favor lee el texto presentado en cada una de ellas y luego haz click en el objeto de tu elección.<br>Si estás listo(a),<span style=\"color:red;\"> haz click en \"comenzar\"</span>.</p>","response":0,"trial_type":"html-button-response","trial_index":57,"time_elapsed":859253,"internal_node_id":"0.0-10.0"},{"rt":10629.600000023842,"grid":[[1,1,1,1]],"target":[0,0],"response":[0,1],"correct":false,"juego":2,"trial_type":"serial-reaction-time-mouse","trial_index":58,"time_elapsed":869889,"internal_node_id":"0.0-11.0-0.0"},{"rt":3620.7000000476837,"grid":[[1,1,1,1]],"target":[0,0],"response":[0,3],"correct":false,"juego":1,"trial_type":"serial-reaction-time-mouse","trial_index":59,"time_elapsed":873516,"internal_node_id":"0.0-11.0-1.0"},{"rt":18018.399999976158,"grid":[[1,1,1,1]],"target":[0,0],"response":[0,2],"correct":false,"juego":11,"trial_type":"serial-reaction-time-mouse","trial_index":60,"time_elapsed":891540,"internal_node_id":"0.0-11.0-2.0"},{"rt":14776.399999976158,"grid":[[1,1,1,1]],"target":[0,0],"response":[0,3],"correct":false,"juego":7,"trial_type":"serial-reaction-time-mouse","trial_index":61,"time_elapsed":906322,"internal_node_id":"0.0-11.0-3.0"},{"rt":4497.200000047684,"grid":[[1],[1],[1],[1]],"target":[0,0],"response":[2,0],"correct":false,"juego":4,"trial_type":"serial-reaction-time-mouse","trial_index":62,"time_elapsed":910824,"internal_node_id":"0.0-11.0-4.0"},{"rt":11879.099999904633,"grid":[[1,1,1],[1,1,1],[1,1,1],[1,1,1],[1,1,1],[1,1,1],[1,1,1],[1,1,1],[1,1,1]],"target":[0,0],"response":[5,1],"correct":false,"juego":5,"trial_type":"serial-reaction-time-mouse","trial_index":63,"time_elapsed":922711,"internal_node_id":"0.0-11.0-5.0"},{"rt":14491.699999928474,"grid":[[1,1,1,1]],"target":[0,0],"response":[0,1],"correct":false,"juego":12,"trial_type":"serial-reaction-time-mouse","trial_index":64,"time_elapsed":937208,"internal_node_id":"0.0-11.0-6.0"},{"rt":7616.699999928474,"grid":[[1,1,1,1],[1,1,1,1],[1,1,1,1],[1,1,1,1],[1,1,1,1],[1,1,1,1],[1,1,1,1],[1,1,1,1],[1,1,1,1]],"target":[0,0],"response":[7,2],"correct":false,"juego":15,"trial_type":"serial-reaction-time-mouse","trial_index":65,"time_elapsed":944833,"internal_node_id":"0.0-11.0-7.0"},{"rt":5987.899999976158,"grid":[[1,1,1],[1,1,1],[1,1,1],[1,1,1],[1,1,1],[1,1,1],[1,1,1],[1,1,1],[1,1,1]],"target":[0,0],"response":[1,1],"correct":false,"juego":6,"trial_type":"serial-reaction-time-mouse","trial_index":66,"time_elapsed":950829,"internal_node_id":"0.0-11.0-8.0"},{"rt":15487.399999976158,"grid":[[1,1,1,1]],"target":[0,0],"response":[0,0],"correct":true,"juego":3,"trial_type":"serial-reaction-time-mouse","trial_index":67,"time_elapsed":966321,"internal_node_id":"0.0-11.0-9.0"},{"rt":10130.200000047684,"grid":[[1,1,1,1],[1,1,1,1],[1,1,1,1],[1,1,1,1],[1,1,1,1],[1,1,1,1],[1,1,1,1],[1,1,1,1],[1,1,1,1]],"target":[0,0],"response":[5,2],"correct":false,"juego":14,"trial_type":"serial-reaction-time-mouse","trial_index":68,"time_elapsed":976461,"internal_node_id":"0.0-11.0-10.0"},{"rt":12264.799999952316,"grid":[[1,1,1,1]],"target":[0,0],"response":[0,1],"correct":false,"juego":8,"trial_type":"serial-reaction-time-mouse","trial_index":69,"time_elapsed":988731,"internal_node_id":"0.0-11.0-11.0"},{"rt":9758.400000095367,"grid":[[1,1,1,1]],"target":[0,0],"response":[0,3],"correct":false,"juego":9,"trial_type":"serial-reaction-time-mouse","trial_index":70,"time_elapsed":998495,"internal_node_id":"0.0-11.0-12.0"},{"rt":6963.600000023842,"grid":[[1,1,1],[1,1,1],[1,1,1],[1,1,1],[1,1,1],[1,1,1],[1,1,1],[1,1,1],[1,1,1]],"target":[0,0],"response":[7,2],"correct":false,"juego":10,"trial_type":"serial-reaction-time-mouse","trial_index":71,"time_elapsed":1005466,"internal_node_id":"0.0-11.0-13.0"},{"rt":9513.200000047684,"grid":[[1,1,1],[1,1,1],[1,1,1],[1,1,1],[1,1,1],[1,1,1],[1,1,1],[1,1,1],[1,1,1]],"target":[0,0],"response":[3,1],"correct":false,"juego":13,"trial_type":"serial-reaction-time-mouse","trial_index":72,"time_elapsed":1014987,"internal_node_id":"0.0-11.0-14.0"},{"rt":4180.399999976158,"stimulus":"<h1>Último juego</h1><p style=\"font-size: 130%;\">Tienes <span style=\"color:red\">25</span> segundos para recordar los pares de palabras que aparecerán a continuación. <br></p>","response":0,"trial_type":"html-button-response","trial_index":73,"time_elapsed":1019176,"internal_node_id":"0.0-12.0"},{"animation_sequence":[{"stimulus":"imagen_juego_interferencia.jpg","time":505},{"stimulus":"imagen_juego_interferencia.jpg","time":1003.6000000238419},{"stimulus":"imagen_juego_interferencia.jpg","time":1502.6000000238419},{"stimulus":"imagen_juego_interferencia.jpg","time":2002.6000000238419},{"stimulus":"imagen_juego_interferencia.jpg","time":2504.2000000476837},{"stimulus":"imagen_juego_interferencia.jpg","time":3004.100000023842},{"stimulus":"imagen_juego_interferencia.jpg","time":3504.5},{"stimulus":"imagen_juego_interferencia.jpg","time":4003.899999976158},{"stimulus":"imagen_juego_interferencia.jpg","time":4502.899999976158},{"stimulus":"imagen_juego_interferencia.jpg","time":5003.899999976158},{"stimulus":"imagen_juego_interferencia.jpg","time":5503.300000071526},{"stimulus":"imagen_juego_interferencia.jpg","time":6006.200000047684},{"stimulus":"imagen_juego_interferencia.jpg","time":6502.5},{"stimulus":"imagen_juego_interferencia.jpg","time":7004.200000047684},{"stimulus":"imagen_juego_interferencia.jpg","time":7501.700000047684},{"stimulus":"imagen_juego_interferencia.jpg","time":8001.300000071526},{"stimulus":"imagen_juego_interferencia.jpg","time":8501.700000047684},{"stimulus":"imagen_juego_interferencia.jpg","time":9004.399999976158},{"stimulus":"imagen_juego_interferencia.jpg","time":9501.899999976158},{"stimulus":"imagen_juego_interferencia.jpg","time":10003.899999976158},{"stimulus":"imagen_juego_interferencia.jpg","time":10505.600000023842},{"stimulus":"imagen_juego_interferencia.jpg","time":11006.300000071526},{"stimulus":"imagen_juego_interferencia.jpg","time":11503.700000047684},{"stimulus":"imagen_juego_interferencia.jpg","time":12002.300000071526},{"stimulus":"imagen_juego_interferencia.jpg","time":12503.800000071526},{"stimulus":"imagen_juego_interferencia.jpg","time":13004},{"stimulus":"imagen_juego_interferencia.jpg","time":13502.300000071526},{"stimulus":"imagen_juego_interferencia.jpg","time":14004.800000071526},{"stimulus":"imagen_juego_interferencia.jpg","time":14502.100000023842},{"stimulus":"imagen_juego_interferencia.jpg","time":15012},{"stimulus":"imagen_juego_interferencia.jpg","time":15501.5},{"stimulus":"imagen_juego_interferencia.jpg","time":16002.300000071526},{"stimulus":"imagen_juego_interferencia.jpg","time":16504},{"stimulus":"imagen_juego_interferencia.jpg","time":17002.5},{"stimulus":"imagen_juego_interferencia.jpg","time":17502},{"stimulus":"imagen_juego_interferencia.jpg","time":18002.100000023842},{"stimulus":"imagen_juego_interferencia.jpg","time":18503.800000071526},{"stimulus":"imagen_juego_interferencia.jpg","time":19003.300000071526},{"stimulus":"imagen_juego_interferencia.jpg","time":19502.899999976158},{"stimulus":"imagen_juego_interferencia.jpg","time":20002.5},{"stimulus":"imagen_juego_interferencia.jpg","time":20502.399999976158},{"stimulus":"imagen_juego_interferencia.jpg","time":21002.800000071526},{"stimulus":"imagen_juego_interferencia.jpg","time":21502.5},{"stimulus":"imagen_juego_interferencia.jpg","time":22002.200000047684},{"stimulus":"imagen_juego_interferencia.jpg","time":22502.200000047684},{"stimulus":"imagen_juego_interferencia.jpg","time":23001.899999976158},{"stimulus":"imagen_juego_interferencia.jpg","time":23502.100000023842},{"stimulus":"imagen_juego_interferencia.jpg","time":24002.200000047684},{"stimulus":"imagen_juego_interferencia.jpg","time":24514.100000023842},{"stimulus":"imagen_juego_interferencia.jpg","time":25003}],"response":[],"trial_type":"animation","trial_index":74,"time_elapsed":1044681,"internal_node_id":"0.0-13.0"},{"rt":4910.199999928474,"responses":"{\"pregunta interferencia3\":\"aluminio\"}","question_order":"[0]","trial_type":"survey-multi-choice-cuest","trial_index":75,"time_elapsed":1049601,"internal_node_id":"0.0-14.0-0.0"},{"rt":3806.6999999284744,"responses":"{\"pregunta interferencia2\":\"saltamontes\"}","question_order":"[0]","trial_type":"survey-multi-choice-cuest","trial_index":76,"time_elapsed":1053413,"internal_node_id":"0.0-14.0-1.0"},{"rt":2578.9000000953674,"responses":"{\"pregunta interferencia4\":\"contador\"}","question_order":"[0]","trial_type":"survey-multi-choice-cuest","trial_index":77,"time_elapsed":1055998,"internal_node_id":"0.0-14.0-2.0"},{"rt":1861.6000000238419,"responses":"{\"pregunta interferencia1\":\"naranja\"}","question_order":"[0]","trial_type":"survey-multi-choice-cuest","trial_index":78,"time_elapsed":1057865,"internal_node_id":"0.0-14.0-3.0"},{"success":true,"trial_type":"fullscreen","trial_index":79,"time_elapsed":1058871,"internal_node_id":"0.0-15.0"}]