[{"rt":93692.10000014305,"stimulus":"<h1 style=\"color:red; margin-top: 3%;\">¡Bienvenido(a)!</h1><p style=\"text-align:left; justify-content:space-between; margin-right: 5%; margin-left: 5%; margin-top: 5%\"> Antes de empezar el estudio, necesitamos que nos confirmes que estás de acuerdo con participar. Recuerda que tu participación es 100% voluntaria y que lo único que te pedimos es responder lo mejor que puedas. Recuerda también que el estudio incluye:</p><ol style=\"text-align:left; justify-content:space-between; margin-right: 5%; margin-left: 5%;\"><li> un ejercicio de resolución de preguntas de selección múltiple (30’),</li><li>un cuestionario breve (5’),</li><li>un juego muy breve (3’),</li></ol><p style=\"text-align:left; justify-content:space-between; margin-right: 5%; margin-left: 5%;\">Si quieres participar, haz clic en “Acepto” luego de leer lo siguiente:<br></p><p style=\"text-align:left; justify-content:space-between; margin-right: 5%; margin-left: 5%;\">Acepto participar en el estudio “Estrategias de lectura y resolución de preguntas de selección múltiple”, en los términos aquí señalados:<br></p><p style=\"text-align:left; justify-content:space-between; margin-right: 5%; margin-left: 5%;\"><a href=\"http://ciae.uchile.cl/download.php?file=noticias/Asentimiento.pdf\" target=\"_blank\">Link a la hoja de información del Consentimiento.</a></p><p style=\"text-align:left; justify-content:space-between; margin-right: 5%; margin-left: 5%;\">Declaro que he leído (o se me ha leído) y (he) comprendido, las condiciones de mi participación en este estudio. He tenido la oportunidad de hacer preguntas y éstas han sido respondidas. No tengo dudas al respecto.</p>","response":0,"condicion_MCQ":5,"condicion_JUEGO":5,"condicion_INTER":5,"numero_participante":77,"numero_version":1,"dimx":1366,"dimy":768,"color_profundidad":24,"pixel_profundidad":24,"Browser":"Google Chrome","dia":10,"mes":5,"hora":9,"minuto":51,"segundo":47,"trial_type":"html-button-response","trial_index":0,"time_elapsed":93700,"internal_node_id":"0.0-0.0"},{"success":true,"trial_type":"fullscreen","trial_index":1,"time_elapsed":216566,"internal_node_id":"0.0-1.0"},{"rt":303634.89999985695,"responses":"{\"Nombres\":\"Daniella Victoria\",\"Apellidos\":\"Dekovic Herrera\",\"Edad\":\"20\",\"Sexo\":\"Mujer\",\"Curso\":\"Sección 218\",\"Colegio\":\"Universidad Andres Bello\",\"Contacto\":\"danielladekovic@gmail.com\"}","trial_type":"survey-text","trial_index":2,"time_elapsed":520219,"internal_node_id":"0.0-2.0"},{"success":true,"timeout":false,"failed_images":[],"failed_audio":[],"failed_video":[],"trial_type":"preload","trial_index":3,"time_elapsed":521242,"internal_node_id":"0.0-3.0"},{"rt":9458.699999809265,"stimulus":"<h1 style:\"margin-top: 5%;\">Ejercicios de Comprensión de Lectura de la Universidad de Chile</h1><p style=\"font-size: 120%;\">En esta actividad, debes responder 24 preguntas de selección múltiple. Cada pregunta presenta 4 respuestas alternativas, pero sólo una de ellas es correcta. Por lo tanto, debes escoger una sola alternativa para cada pregunta. Además, debes reportar qué tan seguro(a) estás de la respuesta que das, con un:</p><ol style=\"font-size: 120%;text-align:left;margin-left: 40%;\"><li>No estoy seguro(a) para nada</li><li>No estoy muy seguro(a)</li><li>Estoy bastante seguro(a)</li><li>Estoy totalmente seguro(a)</li></ol><p style=\"font-size: 120%;\">Por favor lee bien los enunciados antes de responder. ¡Éxito!</p>","response":0,"trial_type":"html-button-response","trial_index":4,"time_elapsed":530702,"internal_node_id":"0.0-4.0"},{"rt":275465.2999999523,"responses":"{\"pregunta14\":\"c) sólo las leyes bastan para gobernarse.\"}","question_order":"[0]","trial_type":"survey-multi-choice","trial_index":5,"time_elapsed":806171,"internal_node_id":"0.0-5.0-0.0"},{"rt":4248.700000047684,"response":{"pregunta14 likert":1},"question_order":[0],"trial_type":"survey-likert","trial_index":6,"time_elapsed":810423,"internal_node_id":"0.0-5.0-1.0"},{"rt":108907.29999995232,"responses":"{\"pregunta22\":\"a) Se necesita un marco legal para delimitar lo público y lo privado en materia informativa.\"}","question_order":"[0]","trial_type":"survey-multi-choice","trial_index":7,"time_elapsed":919332,"internal_node_id":"0.0-5.0-2.0"},{"rt":4169.599999904633,"response":{"pregunta22 likert":3},"question_order":[0],"trial_type":"survey-likert","trial_index":8,"time_elapsed":923505,"internal_node_id":"0.0-5.0-3.0"},{"rt":85062.09999990463,"responses":"{\"pregunta17\":\"c) A la influencia de grupos que rechazaban su música.\"}","question_order":"[0]","trial_type":"survey-multi-choice","trial_index":9,"time_elapsed":1008569,"internal_node_id":"0.0-5.0-4.0"},{"rt":3035.699999809265,"response":{"pregunta17 likert":3},"question_order":[0],"trial_type":"survey-likert","trial_index":10,"time_elapsed":1011607,"internal_node_id":"0.0-5.0-5.0"},{"rt":65359,"responses":"{\"pregunta9\":\"a) preparar los recuerdos del mañana.\"}","question_order":"[0]","trial_type":"survey-multi-choice","trial_index":11,"time_elapsed":1076969,"internal_node_id":"0.0-5.0-6.0"},{"rt":2723.0999999046326,"response":{"pregunta9 likert":3},"question_order":[0],"trial_type":"survey-likert","trial_index":12,"time_elapsed":1079695,"internal_node_id":"0.0-5.0-7.0"},{"rt":78927.70000004768,"responses":"{\"pregunta2\":\"b) A la relación entre pensamiento y estructura social.\"}","question_order":"[0]","trial_type":"survey-multi-choice","trial_index":13,"time_elapsed":1158625,"internal_node_id":"0.0-5.0-8.0"},{"rt":3900.5,"response":{"pregunta2 likert":3},"question_order":[0],"trial_type":"survey-likert","trial_index":14,"time_elapsed":1162528,"internal_node_id":"0.0-5.0-9.0"},{"rt":58640.5,"responses":"{\"pregunta10\":\"a) ritualistas y obsesivos.\"}","question_order":"[0]","trial_type":"survey-multi-choice","trial_index":15,"time_elapsed":1221171,"internal_node_id":"0.0-5.0-10.0"},{"rt":3921,"response":{"pregunta10 likert":3},"question_order":[0],"trial_type":"survey-likert","trial_index":16,"time_elapsed":1225095,"internal_node_id":"0.0-5.0-11.0"},{"rt":86870.70000004768,"responses":"{\"pregunta5\":\"c) Los momentos triviales de los viajes, en la escritura se vuelven significativos.\"}","question_order":"[0]","trial_type":"survey-multi-choice","trial_index":17,"time_elapsed":1311969,"internal_node_id":"0.0-5.0-12.0"},{"rt":2451.9000000953674,"response":{"pregunta5 likert":3},"question_order":[0],"trial_type":"survey-likert","trial_index":18,"time_elapsed":1314423,"internal_node_id":"0.0-5.0-13.0"},{"rt":69404.10000014305,"responses":"{\"pregunta11\":\"a) Provocar el deseo de la adquisición vertiginosa.\"}","question_order":"[0]","trial_type":"survey-multi-choice","trial_index":19,"time_elapsed":1383830,"internal_node_id":"0.0-5.0-14.0"},{"rt":4037.2999999523163,"response":{"pregunta11 likert":3},"question_order":[0],"trial_type":"survey-likert","trial_index":20,"time_elapsed":1387871,"internal_node_id":"0.0-5.0-15.0"},{"rt":75000.10000014305,"responses":"{\"pregunta16\":\"b) Por el riesgo que corren diariamente, los bomberos deberían tener mejores condiciones de seguridad.\"}","question_order":"[0]","trial_type":"survey-multi-choice","trial_index":21,"time_elapsed":1462874,"internal_node_id":"0.0-5.0-16.0"},{"rt":2276.2999999523163,"response":{"pregunta16 likert":3},"question_order":[0],"trial_type":"survey-likert","trial_index":22,"time_elapsed":1465154,"internal_node_id":"0.0-5.0-17.0"},{"rt":63578.90000009537,"responses":"{\"pregunta15\":\"a) la creación de elementos químicos artificiales ha resultado de la manipulación del uranio.\"}","question_order":"[0]","trial_type":"survey-multi-choice","trial_index":23,"time_elapsed":1528737,"internal_node_id":"0.0-5.0-18.0"},{"rt":2267.7999999523163,"response":{"pregunta15 likert":3},"question_order":[0],"trial_type":"survey-likert","trial_index":24,"time_elapsed":1531008,"internal_node_id":"0.0-5.0-19.0"},{"rt":60426.59999990463,"responses":"{\"pregunta1\":\"c) Muestran las opiniones expuestas por los personajes en un relato.\"}","question_order":"[0]","trial_type":"survey-multi-choice","trial_index":25,"time_elapsed":1591438,"internal_node_id":"0.0-5.0-20.0"},{"rt":3094.2999999523163,"response":{"pregunta1 likert":3},"question_order":[0],"trial_type":"survey-likert","trial_index":26,"time_elapsed":1594535,"internal_node_id":"0.0-5.0-21.0"},{"rt":102196.5,"responses":"{\"pregunta12\":\"b) Homenajear a quienes murieron.\"}","question_order":"[0]","trial_type":"survey-multi-choice","trial_index":27,"time_elapsed":1696734,"internal_node_id":"0.0-5.0-22.0"},{"rt":2552.7999999523163,"response":{"pregunta12 likert":3},"question_order":[0],"trial_type":"survey-likert","trial_index":28,"time_elapsed":1699290,"internal_node_id":"0.0-5.0-23.0"},{"rt":31670.700000047684,"responses":"{\"pregunta24\":\"a) la muerte es distinta en las grandes ciudades.\"}","question_order":"[0]","trial_type":"survey-multi-choice","trial_index":29,"time_elapsed":1730963,"internal_node_id":"0.0-5.0-24.0"},{"rt":2060.9000000953674,"response":{"pregunta24 likert":3},"question_order":[0],"trial_type":"survey-likert","trial_index":30,"time_elapsed":1733027,"internal_node_id":"0.0-5.0-25.0"},{"rt":61263.90000009537,"responses":"{\"pregunta13\":\"c) A la inutilidad de tanto esfuerzo si el objetivo es el reposo.\"}","question_order":"[0]","trial_type":"survey-multi-choice","trial_index":31,"time_elapsed":1794293,"internal_node_id":"0.0-5.0-26.0"},{"rt":2121,"response":{"pregunta13 likert":3},"question_order":[0],"trial_type":"survey-likert","trial_index":32,"time_elapsed":1796416,"internal_node_id":"0.0-5.0-27.0"},{"rt":206687.79999995232,"responses":"{\"pregunta19\":\"d) sufren dolores de espalda.\"}","question_order":"[0]","trial_type":"survey-multi-choice","trial_index":33,"time_elapsed":2003107,"internal_node_id":"0.0-5.0-28.0"},{"rt":4455.299999952316,"response":{"pregunta19 likert":3},"question_order":[0],"trial_type":"survey-likert","trial_index":34,"time_elapsed":2007566,"internal_node_id":"0.0-5.0-29.0"},{"rt":79766.39999985695,"responses":"{\"pregunta6\":\"a) Presentar positivamente las diversas tendencias del diseño de interiores a través de un comentario.\"}","question_order":"[0]","trial_type":"survey-multi-choice","trial_index":35,"time_elapsed":2087335,"internal_node_id":"0.0-5.0-30.0"},{"rt":4751.700000047684,"response":{"pregunta6 likert":3},"question_order":[0],"trial_type":"survey-likert","trial_index":36,"time_elapsed":2092090,"internal_node_id":"0.0-5.0-31.0"},{"rt":72397.90000009537,"responses":"{\"pregunta4\":\"b) En la literatura como en la vida, todo es metáfora.\"}","question_order":"[0]","trial_type":"survey-multi-choice","trial_index":37,"time_elapsed":2164490,"internal_node_id":"0.0-5.0-32.0"},{"rt":4440.899999856949,"response":{"pregunta4 likert":3},"question_order":[0],"trial_type":"survey-likert","trial_index":38,"time_elapsed":2168933,"internal_node_id":"0.0-5.0-33.0"},{"rt":113817.80000019073,"responses":"{\"pregunta20\":\"c) el sujeto sufre con su modo de vida.\"}","question_order":"[0]","trial_type":"survey-multi-choice","trial_index":39,"time_elapsed":2282753,"internal_node_id":"0.0-5.0-34.0"},{"rt":2248.899999856949,"response":{"pregunta20 likert":3},"question_order":[0],"trial_type":"survey-likert","trial_index":40,"time_elapsed":2285004,"internal_node_id":"0.0-5.0-35.0"},{"rt":16973.700000047684,"responses":"{\"pregunta23\":\"a) el jardinero estará muerto al día siguiente.\"}","question_order":"[0]","trial_type":"survey-multi-choice","trial_index":41,"time_elapsed":2301980,"internal_node_id":"0.0-5.0-36.0"},{"rt":1988.7000000476837,"response":{"pregunta23 likert":3},"question_order":[0],"trial_type":"survey-likert","trial_index":42,"time_elapsed":2303971,"internal_node_id":"0.0-5.0-37.0"},{"rt":5948.699999809265,"responses":"{\"pregunta3\":\"b) El origen de las grandes civilizaciones.\"}","question_order":"[0]","trial_type":"survey-multi-choice","trial_index":43,"time_elapsed":2309922,"internal_node_id":"0.0-5.0-38.0"},{"rt":1665.2999999523163,"response":{"pregunta3 likert":3},"question_order":[0],"trial_type":"survey-likert","trial_index":44,"time_elapsed":2311590,"internal_node_id":"0.0-5.0-39.0"},{"rt":4812.400000095367,"responses":"{\"pregunta7\":\"c) es una noción que obedece a una visión pesimista de la vida.\"}","question_order":"[0]","trial_type":"survey-multi-choice","trial_index":45,"time_elapsed":2316405,"internal_node_id":"0.0-5.0-40.0"},{"rt":1612.7000000476837,"response":{"pregunta7 likert":3},"question_order":[0],"trial_type":"survey-likert","trial_index":46,"time_elapsed":2318021,"internal_node_id":"0.0-5.0-41.0"},{"rt":3071.100000143051,"responses":"{\"pregunta8\":\"a) Un asilo y un campo de concentración son instituciones similares.\"}","question_order":"[0]","trial_type":"survey-multi-choice","trial_index":47,"time_elapsed":2321094,"internal_node_id":"0.0-5.0-42.0"},{"rt":1465.7000000476837,"response":{"pregunta8 likert":3},"question_order":[0],"trial_type":"survey-likert","trial_index":48,"time_elapsed":2322561,"internal_node_id":"0.0-5.0-43.0"},{"rt":7906.599999904633,"responses":"{\"pregunta18\":\"b) La publicidad ejerce una influencia positiva sobre la sociedad.\"}","question_order":"[0]","trial_type":"survey-multi-choice","trial_index":49,"time_elapsed":2330470,"internal_node_id":"0.0-5.0-44.0"},{"rt":1610.1999998092651,"response":{"pregunta18 likert":3},"question_order":[0],"trial_type":"survey-likert","trial_index":50,"time_elapsed":2332083,"internal_node_id":"0.0-5.0-45.0"},{"rt":2250.2999999523163,"responses":"{\"pregunta21\":\"c) El TLC puede traer más dificultades que progresos.\"}","question_order":"[0]","trial_type":"survey-multi-choice","trial_index":51,"time_elapsed":2334337,"internal_node_id":"0.0-5.0-46.0"},{"rt":1312.2999999523163,"response":{"pregunta21 likert":3},"question_order":[0],"trial_type":"survey-likert","trial_index":52,"time_elapsed":2335653,"internal_node_id":"0.0-5.0-47.0"},{"rt":2363.2999999523163,"stimulus":"<p style=\"font-size: 120%\">Gracias por completar esta etapa del estudio. Ahora te invitamos a responder el cuestionario.<br><br></p>","response":0,"trial_type":"html-button-response","trial_index":53,"time_elapsed":2338023,"internal_node_id":"0.0-6.0"},{"rt":11581.899999856949,"stimulus":"<h1 style=\"margin-top: 5%\">Cuestionario para la Evaluación de Metas Académicas</h1><p style=\"font-size: 120%; margin-left: 3%; margin-top: 5%\">Este es un cuestionario que permite conocer cuáles son los principales motivos por los que los estudiantes se esfuerzan en su trabajo académico. A continuación, se te presentarán una serie de afirmaciones acerca de los motivos que puedes tener para estudiar.<br>Te pedimos que contestes a dichas afirmaciones reflexionando sobre el contenido de cada una de ellas, que, aunque te parezcan semejantes, en realidad, no lo son.<br>NO HAY RESPUESTAS CORRECTAS o INCORRECTAS, sólo queremos que respondas con la mayor precisión y sinceridad posible a las preguntas que se plantean.","response":0,"trial_type":"html-button-response","trial_index":54,"time_elapsed":2349607,"internal_node_id":"0.0-7.0"},{"rt":115644.29999995232,"response":{"Metas cuestionario pregunta1":4,"Metas cuestionario pregunta2":4,"Metas cuestionario pregunta3":4,"Metas cuestionario pregunta4":4,"Metas cuestionario pregunta5":4,"Metas cuestionario pregunta6":4,"Metas cuestionario pregunta7":4,"Metas cuestionario pregunta8":4,"Metas cuestionario pregunta9":1,"Metas cuestionario pregunta10":1,"Metas cuestionario pregunta11":0,"Metas cuestionario pregunta12":0,"Metas cuestionario pregunta13":1,"Metas cuestionario pregunta14":0,"Metas cuestionario pregunta15":4,"Metas cuestionario pregunta16":4,"Metas cuestionario pregunta17":0,"Metas cuestionario pregunta18":4,"Metas cuestionario pregunta19":0,"Metas cuestionario pregunta20":0},"question_order":[0,1,2,3,4,5,6,7,8,9,10,11,12,13,14,15,16,17,18,19],"trial_type":"survey-likert","trial_index":55,"time_elapsed":2465258,"internal_node_id":"0.0-8.0"},{"rt":1275.9000000953674,"stimulus":"<p style=\"font-size: 120%\">Gracias por responder el cuestionario. Ahora te invitamos a seguir con el juego, que es muy breve.<br><br></p>","response":0,"trial_type":"html-button-response","trial_index":56,"time_elapsed":2466537,"internal_node_id":"0.0-9.0"},{"rt":1890.6000001430511,"stimulus":"<h1>Juego</h1><p style=\"font-size: 120%;\">A continuación se te presentarán 16 pequeñas historias.<br>Por favor lee el texto presentado en cada una de ellas y luego haz click en el objeto de tu elección.<br>Si estás listo(a),<span style=\"color:red;\"> haz click en \"comenzar\"</span>.</p>","response":0,"trial_type":"html-button-response","trial_index":57,"time_elapsed":2468430,"internal_node_id":"0.0-10.0"},{"rt":20651.599999904633,"grid":[[1,1,1,1]],"target":[0,0],"response":[0,2],"correct":false,"juego":3,"trial_type":"serial-reaction-time-mouse","trial_index":58,"time_elapsed":2489084,"internal_node_id":"0.0-11.0-0.0"},{"rt":10615.400000095367,"grid":[[1,1,1],[1,1,1],[1,1,1],[1,1,1],[1,1,1],[1,1,1],[1,1,1],[1,1,1],[1,1,1]],"target":[0,0],"response":[5,1],"correct":false,"juego":13,"trial_type":"serial-reaction-time-mouse","trial_index":59,"time_elapsed":2499702,"internal_node_id":"0.0-11.0-1.0"},{"rt":9157,"grid":[[1,1,1,1]],"target":[0,0],"response":[0,1],"correct":false,"juego":12,"trial_type":"serial-reaction-time-mouse","trial_index":60,"time_elapsed":2508861,"internal_node_id":"0.0-11.0-2.0"},{"rt":9267.599999904633,"grid":[[1],[1],[1],[1]],"target":[0,0],"response":[1,0],"correct":false,"juego":4,"trial_type":"serial-reaction-time-mouse","trial_index":61,"time_elapsed":2518131,"internal_node_id":"0.0-11.0-3.0"},{"rt":9292.900000095367,"grid":[[1,1,1],[1,1,1],[1,1,1],[1,1,1],[1,1,1],[1,1,1],[1,1,1],[1,1,1],[1,1,1]],"target":[0,0],"response":[1,1],"correct":false,"juego":5,"trial_type":"serial-reaction-time-mouse","trial_index":62,"time_elapsed":2527427,"internal_node_id":"0.0-11.0-4.0"},{"rt":5473.599999904633,"grid":[[1,1,1,1]],"target":[0,0],"response":[0,1],"correct":false,"juego":9,"trial_type":"serial-reaction-time-mouse","trial_index":63,"time_elapsed":2532904,"internal_node_id":"0.0-11.0-5.0"},{"rt":19776.299999952316,"grid":[[1,1,1,1],[1,1,1,1],[1,1,1,1],[1,1,1,1],[1,1,1,1],[1,1,1,1],[1,1,1,1],[1,1,1,1],[1,1,1,1]],"target":[0,0],"response":[7,2],"correct":false,"juego":15,"trial_type":"serial-reaction-time-mouse","trial_index":64,"time_elapsed":2552685,"internal_node_id":"0.0-11.0-6.0"},{"rt":19991.799999952316,"grid":[[1,1,1],[1,1,1],[1,1,1],[1,1,1],[1,1,1],[1,1,1],[1,1,1],[1,1,1],[1,1,1]],"target":[0,0],"response":[3,2],"correct":false,"juego":10,"trial_type":"serial-reaction-time-mouse","trial_index":65,"time_elapsed":2572679,"internal_node_id":"0.0-11.0-7.0"},{"rt":6088.5,"grid":[[1,1,1,1]],"target":[0,0],"response":[0,0],"correct":true,"juego":1,"trial_type":"serial-reaction-time-mouse","trial_index":66,"time_elapsed":2578769,"internal_node_id":"0.0-11.0-8.0"},{"rt":12319.299999952316,"grid":[[1,1,1,1]],"target":[0,0],"response":[0,0],"correct":true,"juego":2,"trial_type":"serial-reaction-time-mouse","trial_index":67,"time_elapsed":2591090,"internal_node_id":"0.0-11.0-9.0"},{"rt":7221.299999952316,"grid":[[1,1,1,1],[1,1,1,1],[1,1,1,1],[1,1,1,1],[1,1,1,1],[1,1,1,1],[1,1,1,1],[1,1,1,1],[1,1,1,1]],"target":[0,0],"response":[3,2],"correct":false,"juego":14,"trial_type":"serial-reaction-time-mouse","trial_index":68,"time_elapsed":2598315,"internal_node_id":"0.0-11.0-10.0"},{"rt":12798.700000047684,"grid":[[1,1,1],[1,1,1],[1,1,1],[1,1,1],[1,1,1],[1,1,1],[1,1,1],[1,1,1],[1,1,1]],"target":[0,0],"response":[1,1],"correct":false,"juego":6,"trial_type":"serial-reaction-time-mouse","trial_index":69,"time_elapsed":2611119,"internal_node_id":"0.0-11.0-11.0"},{"rt":12955.300000190735,"grid":[[1,1,1,1]],"target":[0,0],"response":[0,3],"correct":false,"juego":7,"trial_type":"serial-reaction-time-mouse","trial_index":70,"time_elapsed":2624077,"internal_node_id":"0.0-11.0-12.0"},{"rt":2950.100000143051,"grid":[[1,1,1,1]],"target":[0,0],"response":[0,3],"correct":false,"juego":8,"trial_type":"serial-reaction-time-mouse","trial_index":71,"time_elapsed":2627030,"internal_node_id":"0.0-11.0-13.0"},{"rt":6174.799999952316,"grid":[[1,1,1,1]],"target":[0,0],"response":[0,1],"correct":false,"juego":11,"trial_type":"serial-reaction-time-mouse","trial_index":72,"time_elapsed":2633208,"internal_node_id":"0.0-11.0-14.0"},{"rt":3379.9000000953674,"stimulus":"<h1>Último juego</h1><p style=\"font-size: 130%;\">Tienes <span style=\"color:red\">25</span> segundos para recordar los pares de palabras que aparecerán a continuación. <br></p>","response":0,"trial_type":"html-button-response","trial_index":73,"time_elapsed":2636593,"internal_node_id":"0.0-12.0"},{"animation_sequence":[{"stimulus":"imagen_juego_interferencia.jpg","time":527.6000001430511},{"stimulus":"imagen_juego_interferencia.jpg","time":1007.2999999523163},{"stimulus":"imagen_juego_interferencia.jpg","time":1501.2999999523163},{"stimulus":"imagen_juego_interferencia.jpg","time":2003.1000001430511},{"stimulus":"imagen_juego_interferencia.jpg","time":2502.5},{"stimulus":"imagen_juego_interferencia.jpg","time":3013.7999999523163},{"stimulus":"imagen_juego_interferencia.jpg","time":3501.7999999523163},{"stimulus":"imagen_juego_interferencia.jpg","time":4001.9000000953674},{"stimulus":"imagen_juego_interferencia.jpg","time":4511.400000095367},{"stimulus":"imagen_juego_interferencia.jpg","time":5001.400000095367},{"stimulus":"imagen_juego_interferencia.jpg","time":5503.400000095367},{"stimulus":"imagen_juego_interferencia.jpg","time":6001.600000143051},{"stimulus":"imagen_juego_interferencia.jpg","time":6501.900000095367},{"stimulus":"imagen_juego_interferencia.jpg","time":7004.600000143051},{"stimulus":"imagen_juego_interferencia.jpg","time":7501.400000095367},{"stimulus":"imagen_juego_interferencia.jpg","time":8001.200000047684},{"stimulus":"imagen_juego_interferencia.jpg","time":8501.5},{"stimulus":"imagen_juego_interferencia.jpg","time":9001.200000047684},{"stimulus":"imagen_juego_interferencia.jpg","time":9502.200000047684},{"stimulus":"imagen_juego_interferencia.jpg","time":10002},{"stimulus":"imagen_juego_interferencia.jpg","time":10501.799999952316},{"stimulus":"imagen_juego_interferencia.jpg","time":11002.400000095367},{"stimulus":"imagen_juego_interferencia.jpg","time":11505.100000143051},{"stimulus":"imagen_juego_interferencia.jpg","time":12009.900000095367},{"stimulus":"imagen_juego_interferencia.jpg","time":12501.600000143051},{"stimulus":"imagen_juego_interferencia.jpg","time":13002.5},{"stimulus":"imagen_juego_interferencia.jpg","time":13502},{"stimulus":"imagen_juego_interferencia.jpg","time":14002.100000143051},{"stimulus":"imagen_juego_interferencia.jpg","time":14501.299999952316},{"stimulus":"imagen_juego_interferencia.jpg","time":15002.200000047684},{"stimulus":"imagen_juego_interferencia.jpg","time":15501.100000143051},{"stimulus":"imagen_juego_interferencia.jpg","time":16001.900000095367},{"stimulus":"imagen_juego_interferencia.jpg","time":16501},{"stimulus":"imagen_juego_interferencia.jpg","time":17002},{"stimulus":"imagen_juego_interferencia.jpg","time":17501.299999952316},{"stimulus":"imagen_juego_interferencia.jpg","time":18001},{"stimulus":"imagen_juego_interferencia.jpg","time":18502.299999952316},{"stimulus":"imagen_juego_interferencia.jpg","time":19002.299999952316},{"stimulus":"imagen_juego_interferencia.jpg","time":19501.5},{"stimulus":"imagen_juego_interferencia.jpg","time":20002.10000014305},{"stimulus":"imagen_juego_interferencia.jpg","time":20504.799999952316},{"stimulus":"imagen_juego_interferencia.jpg","time":21001.299999952316},{"stimulus":"imagen_juego_interferencia.jpg","time":21502},{"stimulus":"imagen_juego_interferencia.jpg","time":22002},{"stimulus":"imagen_juego_interferencia.jpg","time":22502.700000047684},{"stimulus":"imagen_juego_interferencia.jpg","time":23001.900000095367},{"stimulus":"imagen_juego_interferencia.jpg","time":23501.299999952316},{"stimulus":"imagen_juego_interferencia.jpg","time":24002.5},{"stimulus":"imagen_juego_interferencia.jpg","time":24502},{"stimulus":"imagen_juego_interferencia.jpg","time":25001.200000047684}],"response":[],"trial_type":"animation","trial_index":74,"time_elapsed":2662096,"internal_node_id":"0.0-13.0"},{"rt":4816.800000190735,"responses":"{\"pregunta interferencia3\":\"aluminio\"}","question_order":"[0]","trial_type":"survey-multi-choice-cuest","trial_index":75,"time_elapsed":2666917,"internal_node_id":"0.0-14.0-0.0"},{"rt":2610.5,"responses":"{\"pregunta interferencia1\":\"naranja\"}","question_order":"[0]","trial_type":"survey-multi-choice-cuest","trial_index":76,"time_elapsed":2669530,"internal_node_id":"0.0-14.0-1.0"},{"rt":3047.2999999523163,"responses":"{\"pregunta interferencia2\":\"saltamontes\"}","question_order":"[0]","trial_type":"survey-multi-choice-cuest","trial_index":77,"time_elapsed":2672580,"internal_node_id":"0.0-14.0-2.0"},{"rt":7909.399999856949,"responses":"{\"pregunta interferencia4\":\"contador\"}","question_order":"[0]","trial_type":"survey-multi-choice-cuest","trial_index":78,"time_elapsed":2680492,"internal_node_id":"0.0-14.0-3.0"},{"success":true,"trial_type":"fullscreen","trial_index":79,"time_elapsed":2681502,"internal_node_id":"0.0-15.0"}]