[{"rt":8543.700000047684,"stimulus":"<h1 style=\"color:red; margin-top: 3%;\">¡Bienvenido(a)!</h1><p style=\"text-align:left; justify-content:space-between; margin-right: 5%; margin-left: 5%; margin-top: 5%\"> Antes de empezar el estudio, necesitamos que nos confirmes que estás de acuerdo con participar. Recuerda que tu participación es 100% voluntaria y que lo único que te pedimos es responder lo mejor que puedas. Recuerda también que el estudio incluye:</p><ol style=\"text-align:left; justify-content:space-between; margin-right: 5%; margin-left: 5%;\"><li> un ejercicio de resolución de preguntas de selección múltiple (30’),</li><li>un cuestionario breve (5’),</li><li>un juego muy breve (3’),</li></ol><p style=\"text-align:left; justify-content:space-between; margin-right: 5%; margin-left: 5%;\">Si quieres participar, haz clic en “Acepto” luego de leer lo siguiente:<br></p><p style=\"text-align:left; justify-content:space-between; margin-right: 5%; margin-left: 5%;\">Acepto participar en el estudio “Estrategias de lectura y resolución de preguntas de selección múltiple”, en los términos aquí señalados:<br></p><p style=\"text-align:left; justify-content:space-between; margin-right: 5%; margin-left: 5%;\"><a href=\"http://ciae.uchile.cl/download.php?file=noticias/Asentimiento.pdf\" target=\"_blank\">Link a la hoja de información del Consentimiento.</a></p><p style=\"text-align:left; justify-content:space-between; margin-right: 5%; margin-left: 5%;\">Declaro que he leído (o se me ha leído) y (he) comprendido, las condiciones de mi participación en este estudio. He tenido la oportunidad de hacer preguntas y éstas han sido respondidas. No tengo dudas al respecto.</p>","response":0,"condicion_MCQ":1,"condicion_JUEGO":1,"condicion_INTER":1,"numero_participante":73,"numero_version":1,"dimx":1366,"dimy":768,"color_profundidad":24,"pixel_profundidad":24,"Browser":"Google Chrome","dia":9,"mes":5,"hora":13,"minuto":19,"segundo":10,"trial_type":"html-button-response","trial_index":0,"time_elapsed":8548,"internal_node_id":"0.0-0.0"},{"success":true,"trial_type":"fullscreen","trial_index":1,"time_elapsed":13205,"internal_node_id":"0.0-1.0"},{"rt":164382.80000007153,"responses":"{\"Nombres\":\"Rodrigo Ignacio\",\"Apellidos\":\"Madariaga Garrido\",\"Edad\":\"18\",\"Sexo\":\"hombre\",\"Curso\":\"218\",\"Colegio\":\"Universidad Andrés Bello\",\"Contacto\":\"rodrigo.rex1@gmail.com\"}","trial_type":"survey-text","trial_index":2,"time_elapsed":177594,"internal_node_id":"0.0-2.0"},{"success":true,"timeout":false,"failed_images":[],"failed_audio":[],"failed_video":[],"trial_type":"preload","trial_index":3,"time_elapsed":178566,"internal_node_id":"0.0-3.0"},{"rt":18602.200000047684,"stimulus":"<h1 style:\"margin-top: 5%;\">Ejercicios de Comprensión de Lectura de la Universidad de Chile</h1><p style=\"font-size: 120%;\">En esta actividad, debes responder 24 preguntas de selección múltiple. Cada pregunta presenta 4 respuestas alternativas, pero sólo una de ellas es correcta. Por lo tanto, debes escoger una sola alternativa para cada pregunta. Además, debes reportar qué tan seguro(a) estás de la respuesta que das, con un:</p><ol style=\"font-size: 120%;text-align:left;margin-left: 40%;\"><li>No estoy seguro(a) para nada</li><li>No estoy muy seguro(a)</li><li>Estoy bastante seguro(a)</li><li>Estoy totalmente seguro(a)</li></ol><p style=\"font-size: 120%;\">Por favor lee bien los enunciados antes de responder. ¡Éxito!</p>","response":0,"trial_type":"html-button-response","trial_index":4,"time_elapsed":197169,"internal_node_id":"0.0-4.0"},{"rt":32621.700000047684,"responses":"{\"pregunta21\":\"c) Nuestra economía vivirá un proceso de ajuste a la nueva realidad.\"}","question_order":"[0]","trial_type":"survey-multi-choice","trial_index":5,"time_elapsed":229794,"internal_node_id":"0.0-5.0-0.0"},{"rt":7436.799999952316,"response":{"pregunta21 likert":1},"question_order":[0],"trial_type":"survey-likert","trial_index":6,"time_elapsed":237234,"internal_node_id":"0.0-5.0-1.0"},{"rt":91969.10000002384,"responses":"{\"pregunta15\":\"d) la creación de elementos químicos artificiales ha resultado de la manipulación del uranio.\"}","question_order":"[0]","trial_type":"survey-multi-choice","trial_index":7,"time_elapsed":329205,"internal_node_id":"0.0-5.0-2.0"},{"rt":1569.2000000476837,"response":{"pregunta15 likert":0},"question_order":[0],"trial_type":"survey-likert","trial_index":8,"time_elapsed":330776,"internal_node_id":"0.0-5.0-3.0"},{"rt":41874.09999990463,"responses":"{\"pregunta4\":\"c) En la literatura, el narrador expresa su voluntad de libertad.\"}","question_order":"[0]","trial_type":"survey-multi-choice","trial_index":9,"time_elapsed":372652,"internal_node_id":"0.0-5.0-4.0"},{"rt":1883.4000000953674,"response":{"pregunta4 likert":3},"question_order":[0],"trial_type":"survey-likert","trial_index":10,"time_elapsed":374537,"internal_node_id":"0.0-5.0-5.0"},{"rt":93389.80000007153,"responses":"{\"pregunta11\":\"a) Mostrar personajes bellos y poderosos.\"}","question_order":"[0]","trial_type":"survey-multi-choice","trial_index":11,"time_elapsed":467928,"internal_node_id":"0.0-5.0-6.0"},{"rt":1786,"response":{"pregunta11 likert":2},"question_order":[0],"trial_type":"survey-likert","trial_index":12,"time_elapsed":469717,"internal_node_id":"0.0-5.0-7.0"},{"rt":27587.799999952316,"responses":"{\"pregunta7\":\"c) se da como existente, y sólo se discute su relación con el cuerpo.\"}","question_order":"[0]","trial_type":"survey-multi-choice","trial_index":13,"time_elapsed":497307,"internal_node_id":"0.0-5.0-8.0"},{"rt":3093.4000000953674,"response":{"pregunta7 likert":3},"question_order":[0],"trial_type":"survey-likert","trial_index":14,"time_elapsed":500403,"internal_node_id":"0.0-5.0-9.0"},{"rt":66501,"responses":"{\"pregunta3\":\"a) El inicio de la civilización china.\"}","question_order":"[0]","trial_type":"survey-multi-choice","trial_index":15,"time_elapsed":566905,"internal_node_id":"0.0-5.0-10.0"},{"rt":1937.3000000715256,"response":{"pregunta3 likert":3},"question_order":[0],"trial_type":"survey-likert","trial_index":16,"time_elapsed":568845,"internal_node_id":"0.0-5.0-11.0"},{"rt":141044.80000007153,"responses":"{\"pregunta5\":\"c) La escritura plasma los mejores momentos de los viajes.\"}","question_order":"[0]","trial_type":"survey-multi-choice","trial_index":17,"time_elapsed":709891,"internal_node_id":"0.0-5.0-12.0"},{"rt":1812.1000000238419,"response":{"pregunta5 likert":3},"question_order":[0],"trial_type":"survey-likert","trial_index":18,"time_elapsed":711706,"internal_node_id":"0.0-5.0-13.0"},{"rt":121812.39999997616,"responses":"{\"pregunta20\":\"d) el hombre excesivo es inmoral.\"}","question_order":"[0]","trial_type":"survey-multi-choice","trial_index":19,"time_elapsed":833521,"internal_node_id":"0.0-5.0-14.0"},{"rt":2360.2999999523163,"response":{"pregunta20 likert":3},"question_order":[0],"trial_type":"survey-likert","trial_index":20,"time_elapsed":835883,"internal_node_id":"0.0-5.0-15.0"},{"rt":115942.20000004768,"responses":"{\"pregunta1\":\"c) Entregan una característica detallada del personaje, a través de la voz narrativa.\"}","question_order":"[0]","trial_type":"survey-multi-choice","trial_index":21,"time_elapsed":951827,"internal_node_id":"0.0-5.0-16.0"},{"rt":2834.2999999523163,"response":{"pregunta1 likert":3},"question_order":[0],"trial_type":"survey-likert","trial_index":22,"time_elapsed":954664,"internal_node_id":"0.0-5.0-17.0"},{"rt":30129.800000071526,"responses":"{\"pregunta2\":\"a) A la relación entre pensamiento y estructura social.\"}","question_order":"[0]","trial_type":"survey-multi-choice","trial_index":23,"time_elapsed":984796,"internal_node_id":"0.0-5.0-18.0"},{"rt":1172.7999999523163,"response":{"pregunta2 likert":2},"question_order":[0],"trial_type":"survey-likert","trial_index":24,"time_elapsed":985972,"internal_node_id":"0.0-5.0-19.0"},{"rt":72581.5,"responses":"{\"pregunta9\":\"b) la persistencia de la melancolía y la desesperanza.\"}","question_order":"[0]","trial_type":"survey-multi-choice","trial_index":25,"time_elapsed":1058556,"internal_node_id":"0.0-5.0-20.0"},{"rt":2728.2000000476837,"response":{"pregunta9 likert":1},"question_order":[0],"trial_type":"survey-likert","trial_index":26,"time_elapsed":1061286,"internal_node_id":"0.0-5.0-21.0"},{"rt":51933.199999928474,"responses":"{\"pregunta17\":\"b) A la influencia de grupos que rechazaban su música.\"}","question_order":"[0]","trial_type":"survey-multi-choice","trial_index":27,"time_elapsed":1113220,"internal_node_id":"0.0-5.0-22.0"},{"rt":1919.3999999761581,"response":{"pregunta17 likert":3},"question_order":[0],"trial_type":"survey-likert","trial_index":28,"time_elapsed":1115141,"internal_node_id":"0.0-5.0-23.0"},{"rt":171916.70000004768,"responses":"{\"pregunta18\":\"b) El receptor es habitualmente pasivo frente a la publicidad.\"}","question_order":"[0]","trial_type":"survey-multi-choice","trial_index":29,"time_elapsed":1287060,"internal_node_id":"0.0-5.0-24.0"},{"rt":1963.1000000238419,"response":{"pregunta18 likert":3},"question_order":[0],"trial_type":"survey-likert","trial_index":30,"time_elapsed":1289025,"internal_node_id":"0.0-5.0-25.0"},{"rt":79604.20000004768,"responses":"{\"pregunta8\":\"c) El ser humano se comporta de acuerdo con las circunstancias.\"}","question_order":"[0]","trial_type":"survey-multi-choice","trial_index":31,"time_elapsed":1368632,"internal_node_id":"0.0-5.0-26.0"},{"rt":1819.4000000953674,"response":{"pregunta8 likert":1},"question_order":[0],"trial_type":"survey-likert","trial_index":32,"time_elapsed":1370453,"internal_node_id":"0.0-5.0-27.0"},{"rt":76352.79999995232,"responses":"{\"pregunta12\":\"d) Homenajear a quienes murieron.\"}","question_order":"[0]","trial_type":"survey-multi-choice","trial_index":33,"time_elapsed":1446808,"internal_node_id":"0.0-5.0-28.0"},{"rt":1603.1000000238419,"response":{"pregunta12 likert":3},"question_order":[0],"trial_type":"survey-likert","trial_index":34,"time_elapsed":1448414,"internal_node_id":"0.0-5.0-29.0"},{"rt":167823.60000002384,"responses":"{\"pregunta13\":\"b) A la inutilidad de tanto esfuerzo si el objetivo es el reposo.\"}","question_order":"[0]","trial_type":"survey-multi-choice","trial_index":35,"time_elapsed":1616239,"internal_node_id":"0.0-5.0-30.0"},{"rt":1781.8999999761581,"response":{"pregunta13 likert":3},"question_order":[0],"trial_type":"survey-likert","trial_index":36,"time_elapsed":1618023,"internal_node_id":"0.0-5.0-31.0"},{"rt":50678.59999990463,"responses":"{\"pregunta10\":\"d) ritualistas y obsesivos.\"}","question_order":"[0]","trial_type":"survey-multi-choice","trial_index":37,"time_elapsed":1668704,"internal_node_id":"0.0-5.0-32.0"},{"rt":5740.399999976158,"response":{"pregunta10 likert":2},"question_order":[0],"trial_type":"survey-likert","trial_index":38,"time_elapsed":1674446,"internal_node_id":"0.0-5.0-33.0"},{"rt":21871.399999976158,"responses":"{\"pregunta24\":\"c) la muerte es distinta en las grandes ciudades.\"}","question_order":"[0]","trial_type":"survey-multi-choice","trial_index":39,"time_elapsed":1696320,"internal_node_id":"0.0-5.0-34.0"},{"rt":3666.5,"response":{"pregunta24 likert":2},"question_order":[0],"trial_type":"survey-likert","trial_index":40,"time_elapsed":1699988,"internal_node_id":"0.0-5.0-35.0"},{"rt":44155.300000071526,"responses":"{\"pregunta19\":\"a) llevan un control grupal de su embarazo.\"}","question_order":"[0]","trial_type":"survey-multi-choice","trial_index":41,"time_elapsed":1744145,"internal_node_id":"0.0-5.0-36.0"},{"rt":3201.5,"response":{"pregunta19 likert":1},"question_order":[0],"trial_type":"survey-likert","trial_index":42,"time_elapsed":1747349,"internal_node_id":"0.0-5.0-37.0"},{"rt":65593.89999997616,"responses":"{\"pregunta23\":\"d) el jardinero estará muerto al día siguiente.\"}","question_order":"[0]","trial_type":"survey-multi-choice","trial_index":43,"time_elapsed":1812945,"internal_node_id":"0.0-5.0-38.0"},{"rt":2408.899999976158,"response":{"pregunta23 likert":2},"question_order":[0],"trial_type":"survey-likert","trial_index":44,"time_elapsed":1815356,"internal_node_id":"0.0-5.0-39.0"},{"rt":53172.799999952316,"responses":"{\"pregunta6\":\"d) Presentar positivamente las diversas tendencias del diseño de interiores a través de un comentario.\"}","question_order":"[0]","trial_type":"survey-multi-choice","trial_index":45,"time_elapsed":1868531,"internal_node_id":"0.0-5.0-40.0"},{"rt":1875.7000000476837,"response":{"pregunta6 likert":2},"question_order":[0],"trial_type":"survey-likert","trial_index":46,"time_elapsed":1870408,"internal_node_id":"0.0-5.0-41.0"},{"rt":50511.10000002384,"responses":"{\"pregunta22\":\"d) Se necesita un marco legal para delimitar lo público y lo privado en materia informativa.\"}","question_order":"[0]","trial_type":"survey-multi-choice","trial_index":47,"time_elapsed":1920922,"internal_node_id":"0.0-5.0-42.0"},{"rt":2465.9000000953674,"response":{"pregunta22 likert":3},"question_order":[0],"trial_type":"survey-likert","trial_index":48,"time_elapsed":1923390,"internal_node_id":"0.0-5.0-43.0"},{"rt":219826.89999997616,"responses":"{\"pregunta14\":\"d) sólo las leyes bastan para gobernarse.\"}","question_order":"[0]","trial_type":"survey-multi-choice","trial_index":49,"time_elapsed":2143218,"internal_node_id":"0.0-5.0-44.0"},{"rt":2970.399999976158,"response":{"pregunta14 likert":3},"question_order":[0],"trial_type":"survey-likert","trial_index":50,"time_elapsed":2146191,"internal_node_id":"0.0-5.0-45.0"},{"rt":84412.19999992847,"responses":"{\"pregunta16\":\"b) Bomberos debería tener acceso a un seguro médico, al que pueda recurrir en caso de accidente.\"}","question_order":"[0]","trial_type":"survey-multi-choice","trial_index":51,"time_elapsed":2230605,"internal_node_id":"0.0-5.0-46.0"},{"rt":2216.100000023842,"response":{"pregunta16 likert":3},"question_order":[0],"trial_type":"survey-likert","trial_index":52,"time_elapsed":2232823,"internal_node_id":"0.0-5.0-47.0"},{"rt":4010.8000000715256,"stimulus":"<p style=\"font-size: 120%\">Gracias por completar esta etapa del estudio. Ahora te invitamos a responder el cuestionario.<br><br></p>","response":0,"trial_type":"html-button-response","trial_index":53,"time_elapsed":2236839,"internal_node_id":"0.0-6.0"},{"rt":15586.800000071526,"stimulus":"<h1 style=\"margin-top: 5%\">Cuestionario para la Evaluación de Metas Académicas</h1><p style=\"font-size: 120%; margin-left: 3%; margin-top: 5%\">Este es un cuestionario que permite conocer cuáles son los principales motivos por los que los estudiantes se esfuerzan en su trabajo académico. A continuación, se te presentarán una serie de afirmaciones acerca de los motivos que puedes tener para estudiar.<br>Te pedimos que contestes a dichas afirmaciones reflexionando sobre el contenido de cada una de ellas, que, aunque te parezcan semejantes, en realidad, no lo son.<br>NO HAY RESPUESTAS CORRECTAS o INCORRECTAS, sólo queremos que respondas con la mayor precisión y sinceridad posible a las preguntas que se plantean.","response":0,"trial_type":"html-button-response","trial_index":54,"time_elapsed":2252428,"internal_node_id":"0.0-7.0"},{"rt":97931.5,"response":{"Metas cuestionario pregunta1":4,"Metas cuestionario pregunta2":4,"Metas cuestionario pregunta3":4,"Metas cuestionario pregunta4":2,"Metas cuestionario pregunta5":4,"Metas cuestionario pregunta6":3,"Metas cuestionario pregunta7":4,"Metas cuestionario pregunta8":4,"Metas cuestionario pregunta9":1,"Metas cuestionario pregunta10":0,"Metas cuestionario pregunta11":0,"Metas cuestionario pregunta12":0,"Metas cuestionario pregunta13":0,"Metas cuestionario pregunta14":0,"Metas cuestionario pregunta15":4,"Metas cuestionario pregunta16":4,"Metas cuestionario pregunta17":4,"Metas cuestionario pregunta18":4,"Metas cuestionario pregunta19":4,"Metas cuestionario pregunta20":4},"question_order":[0,1,2,3,4,5,6,7,8,9,10,11,12,13,14,15,16,17,18,19],"trial_type":"survey-likert","trial_index":55,"time_elapsed":2350365,"internal_node_id":"0.0-8.0"},{"rt":2491.899999976158,"stimulus":"<p style=\"font-size: 120%\">Gracias por responder el cuestionario. Ahora te invitamos a seguir con el juego, que es muy breve.<br><br></p>","response":0,"trial_type":"html-button-response","trial_index":56,"time_elapsed":2352860,"internal_node_id":"0.0-9.0"},{"rt":9146,"stimulus":"<h1>Juego</h1><p style=\"font-size: 120%;\">A continuación se te presentarán 16 pequeñas historias.<br>Por favor lee el texto presentado en cada una de ellas y luego haz click en el objeto de tu elección.<br>Si estás listo(a),<span style=\"color:red;\"> haz click en \"comenzar\"</span>.</p>","response":0,"trial_type":"html-button-response","trial_index":57,"time_elapsed":2362008,"internal_node_id":"0.0-10.0"},{"rt":8534.399999976158,"grid":[[1,1,1,1]],"target":[0,0],"response":[0,3],"correct":false,"juego":8,"trial_type":"serial-reaction-time-mouse","trial_index":58,"time_elapsed":2370545,"internal_node_id":"0.0-11.0-0.0"},{"rt":12043.899999976158,"grid":[[1,1,1,1],[1,1,1,1],[1,1,1,1],[1,1,1,1],[1,1,1,1],[1,1,1,1],[1,1,1,1],[1,1,1,1],[1,1,1,1]],"target":[0,0],"response":[5,2],"correct":false,"juego":15,"trial_type":"serial-reaction-time-mouse","trial_index":59,"time_elapsed":2382589,"internal_node_id":"0.0-11.0-1.0"},{"rt":4797.100000023842,"grid":[[1,1,1,1]],"target":[0,0],"response":[0,1],"correct":false,"juego":1,"trial_type":"serial-reaction-time-mouse","trial_index":60,"time_elapsed":2387387,"internal_node_id":"0.0-11.0-2.0"},{"rt":5947,"grid":[[1,1,1],[1,1,1],[1,1,1],[1,1,1],[1,1,1],[1,1,1],[1,1,1],[1,1,1],[1,1,1]],"target":[0,0],"response":[7,1],"correct":false,"juego":5,"trial_type":"serial-reaction-time-mouse","trial_index":61,"time_elapsed":2393335,"internal_node_id":"0.0-11.0-3.0"},{"rt":1808.3999999761581,"grid":[[1],[1],[1],[1]],"target":[0,0],"response":[1,0],"correct":false,"juego":4,"trial_type":"serial-reaction-time-mouse","trial_index":62,"time_elapsed":2395145,"internal_node_id":"0.0-11.0-4.0"},{"rt":3587.1999999284744,"grid":[[1,1,1],[1,1,1],[1,1,1],[1,1,1],[1,1,1],[1,1,1],[1,1,1],[1,1,1],[1,1,1]],"target":[0,0],"response":[1,1],"correct":false,"juego":6,"trial_type":"serial-reaction-time-mouse","trial_index":63,"time_elapsed":2398734,"internal_node_id":"0.0-11.0-5.0"},{"rt":14906.600000023842,"grid":[[1,1,1],[1,1,1],[1,1,1],[1,1,1],[1,1,1],[1,1,1],[1,1,1],[1,1,1],[1,1,1]],"target":[0,0],"response":[1,2],"correct":false,"juego":10,"trial_type":"serial-reaction-time-mouse","trial_index":64,"time_elapsed":2413643,"internal_node_id":"0.0-11.0-6.0"},{"rt":3064.5,"grid":[[1,1,1,1]],"target":[0,0],"response":[0,0],"correct":true,"juego":9,"trial_type":"serial-reaction-time-mouse","trial_index":65,"time_elapsed":2416708,"internal_node_id":"0.0-11.0-7.0"},{"rt":5446.699999928474,"grid":[[1,1,1,1]],"target":[0,0],"response":[0,0],"correct":true,"juego":11,"trial_type":"serial-reaction-time-mouse","trial_index":66,"time_elapsed":2422155,"internal_node_id":"0.0-11.0-8.0"},{"rt":6427.399999976158,"grid":[[1,1,1,1],[1,1,1,1],[1,1,1,1],[1,1,1,1],[1,1,1,1],[1,1,1,1],[1,1,1,1],[1,1,1,1],[1,1,1,1]],"target":[0,0],"response":[5,2],"correct":false,"juego":14,"trial_type":"serial-reaction-time-mouse","trial_index":67,"time_elapsed":2428584,"internal_node_id":"0.0-11.0-9.0"},{"rt":6704.799999952316,"grid":[[1,1,1],[1,1,1],[1,1,1],[1,1,1],[1,1,1],[1,1,1],[1,1,1],[1,1,1],[1,1,1]],"target":[0,0],"response":[7,1],"correct":false,"juego":13,"trial_type":"serial-reaction-time-mouse","trial_index":68,"time_elapsed":2435291,"internal_node_id":"0.0-11.0-10.0"},{"rt":6100.799999952316,"grid":[[1,1,1,1]],"target":[0,0],"response":[0,3],"correct":false,"juego":12,"trial_type":"serial-reaction-time-mouse","trial_index":69,"time_elapsed":2441392,"internal_node_id":"0.0-11.0-11.0"},{"rt":5601.800000071526,"grid":[[1,1,1,1]],"target":[0,0],"response":[0,1],"correct":false,"juego":7,"trial_type":"serial-reaction-time-mouse","trial_index":70,"time_elapsed":2446995,"internal_node_id":"0.0-11.0-12.0"},{"rt":23775.200000047684,"grid":[[1,1,1,1]],"target":[0,0],"response":[0,3],"correct":false,"juego":3,"trial_type":"serial-reaction-time-mouse","trial_index":71,"time_elapsed":2470771,"internal_node_id":"0.0-11.0-13.0"},{"rt":6155.900000095367,"grid":[[1,1,1,1]],"target":[0,0],"response":[0,0],"correct":true,"juego":2,"trial_type":"serial-reaction-time-mouse","trial_index":72,"time_elapsed":2476928,"internal_node_id":"0.0-11.0-14.0"}]