[{"rt":8625.729999999749,"stimulus":"<h1 style=\"color:red; margin-top: 3%;\">¡Bienvenido(a)!</h1><p style=\"text-align:left; justify-content:space-between; margin-right: 5%; margin-left: 5%; margin-top: 5%\"> Antes de empezar el estudio, necesitamos que nos confirmes que estás de acuerdo con participar. Recuerda que tu participación es 100% voluntaria y que lo único que te pedimos es responder lo mejor que puedas. Recuerda también que el estudio incluye:</p><ol style=\"text-align:left; justify-content:space-between; margin-right: 5%; margin-left: 5%;\"><li> un ejercicio de resolución de preguntas de selección múltiple (30’),</li><li>un cuestionario breve (5’),</li><li>un juego muy breve (3’),</li></ol><p style=\"text-align:left; justify-content:space-between; margin-right: 5%; margin-left: 5%;\">Si quieres participar, haz clic en “Acepto” luego de leer lo siguiente:<br></p><p style=\"text-align:left; justify-content:space-between; margin-right: 5%; margin-left: 5%;\">Acepto participar en el estudio “Estrategias de lectura y resolución de preguntas de selección múltiple”, en los términos aquí señalados:<br></p><p style=\"text-align:left; justify-content:space-between; margin-right: 5%; margin-left: 5%;\"><a href=\"http://ciae.uchile.cl/download.php?file=noticias/Asentimiento.pdf\" target=\"_blank\">Link a la hoja de información del Consentimiento.</a></p><p style=\"text-align:left; justify-content:space-between; margin-right: 5%; margin-left: 5%;\">Declaro que he leído (o se me ha leído) y (he) comprendido, las condiciones de mi participación en este estudio. He tenido la oportunidad de hacer preguntas y éstas han sido respondidas. No tengo dudas al respecto.</p>","response":0,"condicion_MCQ":12,"condicion_JUEGO":24,"condicion_INTER":24,"numero_participante":48,"numero_version":1,"dimx":1440,"dimy":900,"color_profundidad":24,"pixel_profundidad":24,"Browser":"Google Chrome","dia":4,"mes":5,"hora":20,"minuto":59,"segundo":17,"trial_type":"html-button-response","trial_index":0,"time_elapsed":8630,"internal_node_id":"0.0-0.0"},{"success":true,"trial_type":"fullscreen","trial_index":1,"time_elapsed":17618,"internal_node_id":"0.0-1.0"},{"rt":28844.08500000427,"responses":"{\"Nombres\":\"Francisca\",\"Apellidos\":\"Moroso Vellasco\",\"Edad\":\"28\",\"Sexo\":\"mujer\",\"Curso\":\"seccion 204\",\"Colegio\":\"UNAB\",\"Contacto\":\"franmorosov@gmail.com\"}","trial_type":"survey-text","trial_index":2,"time_elapsed":46470,"internal_node_id":"0.0-2.0"},{"success":true,"timeout":false,"failed_images":[],"failed_audio":[],"failed_video":[],"trial_type":"preload","trial_index":3,"time_elapsed":47801,"internal_node_id":"0.0-3.0"},{"rt":9546.855000007781,"stimulus":"<h1 style:\"margin-top: 5%;\">Ejercicios de Comprensión de Lectura de la Universidad de Chile</h1><p style=\"font-size: 120%;\">En esta actividad, debes responder 24 preguntas de selección múltiple. Cada pregunta presenta 4 respuestas alternativas, pero sólo una de ellas es correcta. Por lo tanto, debes escoger una sola alternativa para cada pregunta. Además, debes reportar qué tan seguro(a) estás de la respuesta que das, con un:</p><ol style=\"font-size: 120%;text-align:left;margin-left: 40%;\"><li>No estoy seguro(a) para nada</li><li>No estoy muy seguro(a)</li><li>Estoy bastante seguro(a)</li><li>Estoy totalmente seguro(a)</li></ol><p style=\"font-size: 120%;\">Por favor lee bien los enunciados antes de responder. ¡Éxito!</p>","response":0,"trial_type":"html-button-response","trial_index":4,"time_elapsed":57349,"internal_node_id":"0.0-4.0"},{"rt":52824.55999999365,"responses":"{\"pregunta18\":\"c) La publicidad es dañina para sus receptores.\"}","question_order":"[0]","trial_type":"survey-multi-choice","trial_index":5,"time_elapsed":110178,"internal_node_id":"0.0-5.0-0.0"},{"rt":3846.1549999919953,"response":{"pregunta18 likert":2},"question_order":[0],"trial_type":"survey-likert","trial_index":6,"time_elapsed":114027,"internal_node_id":"0.0-5.0-1.0"},{"rt":52719.379999995,"responses":"{\"pregunta14\":\"d) sólo las leyes bastan para gobernarse.\"}","question_order":"[0]","trial_type":"survey-multi-choice","trial_index":7,"time_elapsed":166750,"internal_node_id":"0.0-5.0-2.0"},{"rt":4078.8400000019465,"response":{"pregunta14 likert":2},"question_order":[0],"trial_type":"survey-likert","trial_index":8,"time_elapsed":170831,"internal_node_id":"0.0-5.0-3.0"},{"rt":69713.5949999938,"responses":"{\"pregunta4\":\"d) En la literatura como en la vida, todo es metáfora.\"}","question_order":"[0]","trial_type":"survey-multi-choice","trial_index":9,"time_elapsed":240549,"internal_node_id":"0.0-5.0-4.0"},{"rt":1873.8249999878462,"response":{"pregunta4 likert":1},"question_order":[0],"trial_type":"survey-likert","trial_index":10,"time_elapsed":242425,"internal_node_id":"0.0-5.0-5.0"},{"rt":75738.4549999988,"responses":"{\"pregunta19\":\"b) sufren dolores de espalda.\"}","question_order":"[0]","trial_type":"survey-multi-choice","trial_index":11,"time_elapsed":318168,"internal_node_id":"0.0-5.0-6.0"},{"rt":2379.3149999983143,"response":{"pregunta19 likert":2},"question_order":[0],"trial_type":"survey-likert","trial_index":12,"time_elapsed":320550,"internal_node_id":"0.0-5.0-7.0"},{"rt":39500.069999994594,"responses":"{\"pregunta17\":\"b) A la influencia de grupos que rechazaban su música.\"}","question_order":"[0]","trial_type":"survey-multi-choice","trial_index":13,"time_elapsed":360053,"internal_node_id":"0.0-5.0-8.0"},{"rt":1805.4899999988265,"response":{"pregunta17 likert":3},"question_order":[0],"trial_type":"survey-likert","trial_index":14,"time_elapsed":361861,"internal_node_id":"0.0-5.0-9.0"},{"rt":34429.790000009234,"responses":"{\"pregunta16\":\"a) Bomberos debería tener acceso a un seguro médico, al que pueda recurrir en caso de accidente.\"}","question_order":"[0]","trial_type":"survey-multi-choice","trial_index":15,"time_elapsed":396294,"internal_node_id":"0.0-5.0-10.0"},{"rt":1569.984999994631,"response":{"pregunta16 likert":3},"question_order":[0],"trial_type":"survey-likert","trial_index":16,"time_elapsed":397866,"internal_node_id":"0.0-5.0-11.0"},{"rt":59233.04500000086,"responses":"{\"pregunta6\":\"c) Presentar positivamente las diversas tendencias del diseño de interiores a través de un comentario.\"}","question_order":"[0]","trial_type":"survey-multi-choice","trial_index":17,"time_elapsed":457103,"internal_node_id":"0.0-5.0-12.0"},{"rt":1906.684999994468,"response":{"pregunta6 likert":2},"question_order":[0],"trial_type":"survey-likert","trial_index":18,"time_elapsed":459012,"internal_node_id":"0.0-5.0-13.0"},{"rt":85386.61000000138,"responses":"{\"pregunta9\":\"c) preparar los recuerdos del mañana.\"}","question_order":"[0]","trial_type":"survey-multi-choice","trial_index":19,"time_elapsed":544403,"internal_node_id":"0.0-5.0-14.0"},{"rt":1425.2850000048056,"response":{"pregunta9 likert":2},"question_order":[0],"trial_type":"survey-likert","trial_index":20,"time_elapsed":545831,"internal_node_id":"0.0-5.0-15.0"},{"rt":56672.2049999953,"responses":"{\"pregunta7\":\"b) se da como existente, y sólo se discute su relación con el cuerpo.\"}","question_order":"[0]","trial_type":"survey-multi-choice","trial_index":21,"time_elapsed":602507,"internal_node_id":"0.0-5.0-16.0"},{"rt":2146.9450000004144,"response":{"pregunta7 likert":2},"question_order":[0],"trial_type":"survey-likert","trial_index":22,"time_elapsed":604656,"internal_node_id":"0.0-5.0-17.0"},{"rt":38836.96999998938,"responses":"{\"pregunta3\":\"a) El inicio de la civilización china.\"}","question_order":"[0]","trial_type":"survey-multi-choice","trial_index":23,"time_elapsed":643496,"internal_node_id":"0.0-5.0-18.0"},{"rt":2059.189999999944,"response":{"pregunta3 likert":2},"question_order":[0],"trial_type":"survey-likert","trial_index":24,"time_elapsed":645557,"internal_node_id":"0.0-5.0-19.0"},{"rt":45523.58500000264,"responses":"{\"pregunta21\":\"c) Nuestra economía vivirá un proceso de ajuste a la nueva realidad.\"}","question_order":"[0]","trial_type":"survey-multi-choice","trial_index":25,"time_elapsed":691084,"internal_node_id":"0.0-5.0-20.0"},{"rt":2788.8499999971827,"response":{"pregunta21 likert":2},"question_order":[0],"trial_type":"survey-likert","trial_index":26,"time_elapsed":693875,"internal_node_id":"0.0-5.0-21.0"},{"rt":91001.774999997,"responses":"{\"pregunta11\":\"d) Provocar el deseo de la adquisición vertiginosa.\"}","question_order":"[0]","trial_type":"survey-multi-choice","trial_index":27,"time_elapsed":784881,"internal_node_id":"0.0-5.0-22.0"},{"rt":1442.074999999022,"response":{"pregunta11 likert":2},"question_order":[0],"trial_type":"survey-likert","trial_index":28,"time_elapsed":786326,"internal_node_id":"0.0-5.0-23.0"},{"rt":47061.6699999955,"responses":"{\"pregunta10\":\"c) ritualistas y obsesivos.\"}","question_order":"[0]","trial_type":"survey-multi-choice","trial_index":29,"time_elapsed":833391,"internal_node_id":"0.0-5.0-24.0"},{"rt":1569.6400000015274,"response":{"pregunta10 likert":2},"question_order":[0],"trial_type":"survey-likert","trial_index":30,"time_elapsed":834962,"internal_node_id":"0.0-5.0-25.0"},{"rt":53175.96500000218,"responses":"{\"pregunta5\":\"b) Los momentos triviales de los viajes, en la escritura se vuelven significativos.\"}","question_order":"[0]","trial_type":"survey-multi-choice","trial_index":31,"time_elapsed":888149,"internal_node_id":"0.0-5.0-26.0"},{"rt":1681.8499999935739,"response":{"pregunta5 likert":1},"question_order":[0],"trial_type":"survey-likert","trial_index":32,"time_elapsed":889833,"internal_node_id":"0.0-5.0-27.0"},{"rt":33606.145000012475,"responses":"{\"pregunta22\":\"c) Se necesita un marco legal para delimitar lo público y lo privado en materia informativa.\"}","question_order":"[0]","trial_type":"survey-multi-choice","trial_index":33,"time_elapsed":923443,"internal_node_id":"0.0-5.0-28.0"},{"rt":2243.275000000722,"response":{"pregunta22 likert":2},"question_order":[0],"trial_type":"survey-likert","trial_index":34,"time_elapsed":925689,"internal_node_id":"0.0-5.0-29.0"},{"rt":52839.91500000411,"responses":"{\"pregunta1\":\"c) Muestran las opiniones expuestas por los personajes en un relato.\"}","question_order":"[0]","trial_type":"survey-multi-choice","trial_index":35,"time_elapsed":978533,"internal_node_id":"0.0-5.0-30.0"},{"rt":1642.8200000082143,"response":{"pregunta1 likert":2},"question_order":[0],"trial_type":"survey-likert","trial_index":36,"time_elapsed":980178,"internal_node_id":"0.0-5.0-31.0"},{"rt":84880.09999999485,"responses":"{\"pregunta13\":\"c) A la inutilidad de tanto esfuerzo si el objetivo es el reposo.\"}","question_order":"[0]","trial_type":"survey-multi-choice","trial_index":37,"time_elapsed":1065062,"internal_node_id":"0.0-5.0-32.0"},{"rt":2581.229999996256,"response":{"pregunta13 likert":2},"question_order":[0],"trial_type":"survey-likert","trial_index":38,"time_elapsed":1067646,"internal_node_id":"0.0-5.0-33.0"},{"rt":110120.93499999912,"responses":"{\"pregunta23\":\"d) el jardinero estará muerto al día siguiente.\"}","question_order":"[0]","trial_type":"survey-multi-choice","trial_index":39,"time_elapsed":1177772,"internal_node_id":"0.0-5.0-34.0"},{"rt":5395.245000007097,"response":{"pregunta23 likert":1},"question_order":[0],"trial_type":"survey-likert","trial_index":40,"time_elapsed":1183169,"internal_node_id":"0.0-5.0-35.0"},{"rt":41825.8050000004,"responses":"{\"pregunta8\":\"c) El ser humano se comporta de acuerdo con las circunstancias.\"}","question_order":"[0]","trial_type":"survey-multi-choice","trial_index":41,"time_elapsed":1224998,"internal_node_id":"0.0-5.0-36.0"},{"rt":2002.625000008149,"response":{"pregunta8 likert":2},"question_order":[0],"trial_type":"survey-likert","trial_index":42,"time_elapsed":1227003,"internal_node_id":"0.0-5.0-37.0"},{"rt":104272.76999999583,"responses":"{\"pregunta15\":\"a) el uranio es el elemento natural con el mayor número de protones en el núcleo.\"}","question_order":"[0]","trial_type":"survey-multi-choice","trial_index":43,"time_elapsed":1331281,"internal_node_id":"0.0-5.0-38.0"},{"rt":1521.8599999935832,"response":{"pregunta15 likert":1},"question_order":[0],"trial_type":"survey-likert","trial_index":44,"time_elapsed":1332805,"internal_node_id":"0.0-5.0-39.0"},{"rt":72724.88999999757,"responses":"{\"pregunta12\":\"a) Generar polémica entre distintos críticos.\"}","question_order":"[0]","trial_type":"survey-multi-choice","trial_index":45,"time_elapsed":1405534,"internal_node_id":"0.0-5.0-40.0"},{"rt":2484.219999998575,"response":{"pregunta12 likert":3},"question_order":[0],"trial_type":"survey-likert","trial_index":46,"time_elapsed":1408020,"internal_node_id":"0.0-5.0-41.0"},{"rt":22067.569999999367,"responses":"{\"pregunta24\":\"d) para el mexicano, la muerte es cotidiana.\"}","question_order":"[0]","trial_type":"survey-multi-choice","trial_index":47,"time_elapsed":1430091,"internal_node_id":"0.0-5.0-42.0"},{"rt":1834.0000000025611,"response":{"pregunta24 likert":2},"question_order":[0],"trial_type":"survey-likert","trial_index":48,"time_elapsed":1431927,"internal_node_id":"0.0-5.0-43.0"},{"rt":68641.53000000818,"responses":"{\"pregunta20\":\"c) para Aristóteles la virtud estaba en el justo equilibrio.\"}","question_order":"[0]","trial_type":"survey-multi-choice","trial_index":49,"time_elapsed":1500573,"internal_node_id":"0.0-5.0-44.0"},{"rt":1883.2249999977648,"response":{"pregunta20 likert":2},"question_order":[0],"trial_type":"survey-likert","trial_index":50,"time_elapsed":1502458,"internal_node_id":"0.0-5.0-45.0"},{"rt":38442.584999996936,"responses":"{\"pregunta2\":\"b) A la relación entre sociedad y constitución social.\"}","question_order":"[0]","trial_type":"survey-multi-choice","trial_index":51,"time_elapsed":1540903,"internal_node_id":"0.0-5.0-46.0"},{"rt":2179.1999999985565,"response":{"pregunta2 likert":2},"question_order":[0],"trial_type":"survey-likert","trial_index":52,"time_elapsed":1543085,"internal_node_id":"0.0-5.0-47.0"},{"rt":2943.5499999963213,"stimulus":"<p style=\"font-size: 120%\">Gracias por completar esta etapa del estudio. Ahora te invitamos a responder el cuestionario.<br><br></p>","response":0,"trial_type":"html-button-response","trial_index":53,"time_elapsed":1546033,"internal_node_id":"0.0-6.0"},{"rt":16965.945000003558,"stimulus":"<h1 style=\"margin-top: 5%\">Cuestionario para la Evaluación de Metas Académicas</h1><p style=\"font-size: 120%; margin-left: 3%; margin-top: 5%\">Este es un cuestionario que permite conocer cuáles son los principales motivos por los que los estudiantes se esfuerzan en su trabajo académico. A continuación, se te presentarán una serie de afirmaciones acerca de los motivos que puedes tener para estudiar.<br>Te pedimos que contestes a dichas afirmaciones reflexionando sobre el contenido de cada una de ellas, que, aunque te parezcan semejantes, en realidad, no lo son.<br>NO HAY RESPUESTAS CORRECTAS o INCORRECTAS, sólo queremos que respondas con la mayor precisión y sinceridad posible a las preguntas que se plantean.","response":0,"trial_type":"html-button-response","trial_index":54,"time_elapsed":1563000,"internal_node_id":"0.0-7.0"},{"rt":91511.43499999307,"response":{"Metas cuestionario pregunta1":3,"Metas cuestionario pregunta2":2,"Metas cuestionario pregunta3":3,"Metas cuestionario pregunta4":2,"Metas cuestionario pregunta5":2,"Metas cuestionario pregunta6":3,"Metas cuestionario pregunta7":3,"Metas cuestionario pregunta8":3,"Metas cuestionario pregunta9":2,"Metas cuestionario pregunta10":2,"Metas cuestionario pregunta11":0,"Metas cuestionario pregunta12":3,"Metas cuestionario pregunta13":2,"Metas cuestionario pregunta14":3,"Metas cuestionario pregunta15":4,"Metas cuestionario pregunta16":2,"Metas cuestionario pregunta17":4,"Metas cuestionario pregunta18":4,"Metas cuestionario pregunta19":3,"Metas cuestionario pregunta20":4},"question_order":[0,1,2,3,4,5,6,7,8,9,10,11,12,13,14,15,16,17,18,19],"trial_type":"survey-likert","trial_index":55,"time_elapsed":1654523,"internal_node_id":"0.0-8.0"},{"rt":3267.9700000006706,"stimulus":"<p style=\"font-size: 120%\">Gracias por responder el cuestionario. Ahora te invitamos a seguir con el juego, que es muy breve.<br><br></p>","response":0,"trial_type":"html-button-response","trial_index":56,"time_elapsed":1657795,"internal_node_id":"0.0-9.0"},{"rt":8279.929999989923,"stimulus":"<h1>Juego</h1><p style=\"font-size: 120%;\">A continuación se te presentarán 16 pequeñas historias.<br>Por favor lee el texto presentado en cada una de ellas y luego haz click en el objeto de tu elección.<br>Si estás listo(a),<span style=\"color:red;\"> haz click en \"comenzar\"</span>.</p>","response":0,"trial_type":"html-button-response","trial_index":57,"time_elapsed":1666076,"internal_node_id":"0.0-10.0"},{"rt":5538.224999996601,"grid":[[1,1,1,1]],"target":[0,0],"response":[0,2],"correct":false,"juego":7,"trial_type":"serial-reaction-time-mouse","trial_index":58,"time_elapsed":1671617,"internal_node_id":"0.0-11.0-0.0"},{"rt":7009.789999996312,"grid":[[1,1,1,1]],"target":[0,0],"response":[0,1],"correct":false,"juego":1,"trial_type":"serial-reaction-time-mouse","trial_index":59,"time_elapsed":1678628,"internal_node_id":"0.0-11.0-1.0"},{"rt":10356.320000006352,"grid":[[1,1,1,1]],"target":[0,0],"response":[0,2],"correct":false,"juego":3,"trial_type":"serial-reaction-time-mouse","trial_index":60,"time_elapsed":1688986,"internal_node_id":"0.0-11.0-2.0"},{"rt":10163.084999992745,"grid":[[1,1,1,1]],"target":[0,0],"response":[0,1],"correct":false,"juego":11,"trial_type":"serial-reaction-time-mouse","trial_index":61,"time_elapsed":1699151,"internal_node_id":"0.0-11.0-3.0"},{"rt":13287.369999991031,"grid":[[1,1,1,1]],"target":[0,0],"response":[0,0],"correct":true,"juego":12,"trial_type":"serial-reaction-time-mouse","trial_index":62,"time_elapsed":1712440,"internal_node_id":"0.0-11.0-4.0"},{"rt":7500.17499999376,"grid":[[1,1,1,1]],"target":[0,0],"response":[0,2],"correct":false,"juego":8,"trial_type":"serial-reaction-time-mouse","trial_index":63,"time_elapsed":1719942,"internal_node_id":"0.0-11.0-5.0"},{"rt":17401.825000008103,"grid":[[1,1,1],[1,1,1],[1,1,1],[1,1,1],[1,1,1],[1,1,1],[1,1,1],[1,1,1],[1,1,1]],"target":[0,0],"response":[1,0],"correct":false,"juego":10,"trial_type":"serial-reaction-time-mouse","trial_index":64,"time_elapsed":1737347,"internal_node_id":"0.0-11.0-6.0"},{"rt":11611.269999993965,"grid":[[1,1,1],[1,1,1],[1,1,1],[1,1,1],[1,1,1],[1,1,1],[1,1,1],[1,1,1],[1,1,1]],"target":[0,0],"response":[7,1],"correct":false,"juego":5,"trial_type":"serial-reaction-time-mouse","trial_index":65,"time_elapsed":1748960,"internal_node_id":"0.0-11.0-7.0"},{"rt":11185.305000006454,"grid":[[1,1,1,1]],"target":[0,0],"response":[0,1],"correct":false,"juego":9,"trial_type":"serial-reaction-time-mouse","trial_index":66,"time_elapsed":1760147,"internal_node_id":"0.0-11.0-8.0"},{"rt":7912.179999999469,"grid":[[1],[1],[1],[1]],"target":[0,0],"response":[2,0],"correct":false,"juego":4,"trial_type":"serial-reaction-time-mouse","trial_index":67,"time_elapsed":1768066,"internal_node_id":"0.0-11.0-9.0"},{"rt":6091.440000003669,"grid":[[1,1,1],[1,1,1],[1,1,1],[1,1,1],[1,1,1],[1,1,1],[1,1,1],[1,1,1],[1,1,1]],"target":[0,0],"response":[5,1],"correct":false,"juego":6,"trial_type":"serial-reaction-time-mouse","trial_index":68,"time_elapsed":1774165,"internal_node_id":"0.0-11.0-10.0"},{"rt":11851.064999995288,"grid":[[1,1,1,1],[1,1,1,1],[1,1,1,1],[1,1,1,1],[1,1,1,1],[1,1,1,1],[1,1,1,1],[1,1,1,1],[1,1,1,1]],"target":[0,0],"response":[3,2],"correct":false,"juego":15,"trial_type":"serial-reaction-time-mouse","trial_index":69,"time_elapsed":1786025,"internal_node_id":"0.0-11.0-11.0"},{"rt":14381.500000003027,"grid":[[1,1,1],[1,1,1],[1,1,1],[1,1,1],[1,1,1],[1,1,1],[1,1,1],[1,1,1],[1,1,1]],"target":[0,0],"response":[1,1],"correct":false,"juego":13,"trial_type":"serial-reaction-time-mouse","trial_index":70,"time_elapsed":1800413,"internal_node_id":"0.0-11.0-12.0"},{"rt":11926.565000001574,"grid":[[1,1,1,1],[1,1,1,1],[1,1,1,1],[1,1,1,1],[1,1,1,1],[1,1,1,1],[1,1,1,1],[1,1,1,1],[1,1,1,1]],"target":[0,0],"response":[7,2],"correct":false,"juego":14,"trial_type":"serial-reaction-time-mouse","trial_index":71,"time_elapsed":1812343,"internal_node_id":"0.0-11.0-13.0"},{"rt":8332.609999997541,"grid":[[1,1,1,1]],"target":[0,0],"response":[0,3],"correct":false,"juego":2,"trial_type":"serial-reaction-time-mouse","trial_index":72,"time_elapsed":1820678,"internal_node_id":"0.0-11.0-14.0"}]