[{"rt":22491.799999952316,"stimulus":"<h1 style=\"color:red; margin-top: 3%;\">¡Bienvenido(a)!</h1><p style=\"text-align:left; justify-content:space-between; margin-right: 5%; margin-left: 5%; margin-top: 5%\"> Antes de empezar el estudio, necesitamos que nos confirmes que estás de acuerdo con participar. Recuerda que tu participación es 100% voluntaria y que lo único que te pedimos es responder lo mejor que puedas. Recuerda también que el estudio incluye:</p><ol style=\"text-align:left; justify-content:space-between; margin-right: 5%; margin-left: 5%;\"><li> un ejercicio de resolución de preguntas de selección múltiple (30’),</li><li>un cuestionario breve (5’),</li><li>un juego muy breve (3’),</li></ol><p style=\"text-align:left; justify-content:space-between; margin-right: 5%; margin-left: 5%;\">Si quieres participar, haz clic en “Acepto” luego de leer lo siguiente:<br></p><p style=\"text-align:left; justify-content:space-between; margin-right: 5%; margin-left: 5%;\">Acepto participar en el estudio “Estrategias de lectura y resolución de preguntas de selección múltiple”, en los términos aquí señalados:<br></p><p style=\"text-align:left; justify-content:space-between; margin-right: 5%; margin-left: 5%;\"><a href=\"http://ciae.uchile.cl/download.php?file=noticias/Asentimiento.pdf\" target=\"_blank\">Link a la hoja de información del Consentimiento.</a></p><p style=\"text-align:left; justify-content:space-between; margin-right: 5%; margin-left: 5%;\">Declaro que he leído (o se me ha leído) y (he) comprendido, las condiciones de mi participación en este estudio. He tenido la oportunidad de hacer preguntas y éstas han sido respondidas. No tengo dudas al respecto.</p>","response":0,"condicion_MCQ":7,"condicion_JUEGO":19,"condicion_INTER":19,"numero_participante":67,"numero_version":1,"dimx":1366,"dimy":768,"color_profundidad":24,"pixel_profundidad":24,"Browser":"Google Chrome","dia":9,"mes":5,"hora":2,"minuto":19,"segundo":10,"trial_type":"html-button-response","trial_index":0,"time_elapsed":22496,"internal_node_id":"0.0-0.0"},{"success":true,"trial_type":"fullscreen","trial_index":1,"time_elapsed":31693,"internal_node_id":"0.0-1.0"},{"rt":121236.90000009537,"responses":"{\"Nombres\":\"Catalina de los Ángeles \",\"Apellidos\":\"Cortes Valdes \",\"Edad\":\"18\",\"Sexo\":\"Mujer\",\"Curso\":\"sección 204\",\"Colegio\":\"Universidad Andrés Bello \",\"Contacto\":\"cata.dlacv031@gmail.com\"}","trial_type":"survey-text","trial_index":2,"time_elapsed":152932,"internal_node_id":"0.0-2.0"},{"success":true,"timeout":false,"failed_images":[],"failed_audio":[],"failed_video":[],"trial_type":"preload","trial_index":3,"time_elapsed":153973,"internal_node_id":"0.0-3.0"},{"rt":9604.400000095367,"stimulus":"<h1 style:\"margin-top: 5%;\">Ejercicios de Comprensión de Lectura de la Universidad de Chile</h1><p style=\"font-size: 120%;\">En esta actividad, debes responder 24 preguntas de selección múltiple. Cada pregunta presenta 4 respuestas alternativas, pero sólo una de ellas es correcta. Por lo tanto, debes escoger una sola alternativa para cada pregunta. Además, debes reportar qué tan seguro(a) estás de la respuesta que das, con un:</p><ol style=\"font-size: 120%;text-align:left;margin-left: 40%;\"><li>No estoy seguro(a) para nada</li><li>No estoy muy seguro(a)</li><li>Estoy bastante seguro(a)</li><li>Estoy totalmente seguro(a)</li></ol><p style=\"font-size: 120%;\">Por favor lee bien los enunciados antes de responder. ¡Éxito!</p>","response":0,"trial_type":"html-button-response","trial_index":4,"time_elapsed":163579,"internal_node_id":"0.0-4.0"},{"rt":115948.69999992847,"responses":"{\"pregunta12\":\"b) Homenajear a quienes murieron.\"}","question_order":"[0]","trial_type":"survey-multi-choice","trial_index":5,"time_elapsed":279538,"internal_node_id":"0.0-5.0-0.0"},{"rt":4969.5,"response":{"pregunta12 likert":3},"question_order":[0],"trial_type":"survey-likert","trial_index":6,"time_elapsed":284513,"internal_node_id":"0.0-5.0-1.0"},{"rt":75745,"responses":"{\"pregunta13\":\"a) A la inutilidad de tanto esfuerzo si el objetivo es el reposo.\"}","question_order":"[0]","trial_type":"survey-multi-choice","trial_index":7,"time_elapsed":360263,"internal_node_id":"0.0-5.0-2.0"},{"rt":2850.8000000715256,"response":{"pregunta13 likert":1},"question_order":[0],"trial_type":"survey-likert","trial_index":8,"time_elapsed":363120,"internal_node_id":"0.0-5.0-3.0"},{"rt":302082.7999999523,"responses":"{\"pregunta4\":\"d) En la literatura como en la vida, lo importante son las preguntas.\"}","question_order":"[0]","trial_type":"survey-multi-choice","trial_index":9,"time_elapsed":665210,"internal_node_id":"0.0-5.0-4.0"},{"rt":4518.100000023842,"response":{"pregunta4 likert":2},"question_order":[0],"trial_type":"survey-likert","trial_index":10,"time_elapsed":669734,"internal_node_id":"0.0-5.0-5.0"},{"rt":39537.299999952316,"responses":"{\"pregunta22\":\"b) Se necesita un marco legal para delimitar lo público y lo privado en materia informativa.\"}","question_order":"[0]","trial_type":"survey-multi-choice","trial_index":11,"time_elapsed":709278,"internal_node_id":"0.0-5.0-6.0"},{"rt":6052.799999952316,"response":{"pregunta22 likert":2},"question_order":[0],"trial_type":"survey-likert","trial_index":12,"time_elapsed":715337,"internal_node_id":"0.0-5.0-7.0"},{"rt":43338.200000047684,"responses":"{\"pregunta11\":\"b) Provocar el deseo de la adquisición vertiginosa.\"}","question_order":"[0]","trial_type":"survey-multi-choice","trial_index":13,"time_elapsed":758681,"internal_node_id":"0.0-5.0-8.0"},{"rt":3544.899999976158,"response":{"pregunta11 likert":3},"question_order":[0],"trial_type":"survey-likert","trial_index":14,"time_elapsed":762232,"internal_node_id":"0.0-5.0-9.0"},{"rt":54609.200000047684,"responses":"{\"pregunta9\":\"a) preparar los recuerdos del mañana.\"}","question_order":"[0]","trial_type":"survey-multi-choice","trial_index":15,"time_elapsed":816847,"internal_node_id":"0.0-5.0-10.0"},{"rt":2794.1999999284744,"response":{"pregunta9 likert":3},"question_order":[0],"trial_type":"survey-likert","trial_index":16,"time_elapsed":819647,"internal_node_id":"0.0-5.0-11.0"},{"rt":81681.30000007153,"responses":"{\"pregunta19\":\"b) llevan un control grupal de su embarazo.\"}","question_order":"[0]","trial_type":"survey-multi-choice","trial_index":17,"time_elapsed":901334,"internal_node_id":"0.0-5.0-12.0"},{"rt":4463.5,"response":{"pregunta19 likert":1},"question_order":[0],"trial_type":"survey-likert","trial_index":18,"time_elapsed":905804,"internal_node_id":"0.0-5.0-13.0"},{"rt":78496.20000004768,"responses":"{\"pregunta10\":\"b) ritualistas y obsesivos.\"}","question_order":"[0]","trial_type":"survey-multi-choice","trial_index":19,"time_elapsed":984306,"internal_node_id":"0.0-5.0-14.0"},{"rt":3439,"response":{"pregunta10 likert":2},"question_order":[0],"trial_type":"survey-likert","trial_index":20,"time_elapsed":987751,"internal_node_id":"0.0-5.0-15.0"},{"rt":108971.20000004768,"responses":"{\"pregunta7\":\"a) se da como existente, y sólo se discute su relación con el cuerpo.\"}","question_order":"[0]","trial_type":"survey-multi-choice","trial_index":21,"time_elapsed":1096729,"internal_node_id":"0.0-5.0-16.0"},{"rt":6137,"response":{"pregunta7 likert":1},"question_order":[0],"trial_type":"survey-likert","trial_index":22,"time_elapsed":1102874,"internal_node_id":"0.0-5.0-17.0"},{"rt":82388.5,"responses":"{\"pregunta8\":\"a) El ser humano se comporta de acuerdo con las circunstancias.\"}","question_order":"[0]","trial_type":"survey-multi-choice","trial_index":23,"time_elapsed":1185268,"internal_node_id":"0.0-5.0-18.0"},{"rt":4862.5,"response":{"pregunta8 likert":2},"question_order":[0],"trial_type":"survey-likert","trial_index":24,"time_elapsed":1190136,"internal_node_id":"0.0-5.0-19.0"},{"rt":89267.90000009537,"responses":"{\"pregunta15\":\"c) el uranio es el elemento natural con el mayor número de protones en el núcleo.\"}","question_order":"[0]","trial_type":"survey-multi-choice","trial_index":25,"time_elapsed":1279411,"internal_node_id":"0.0-5.0-20.0"},{"rt":2282.399999976158,"response":{"pregunta15 likert":1},"question_order":[0],"trial_type":"survey-likert","trial_index":26,"time_elapsed":1281698,"internal_node_id":"0.0-5.0-21.0"},{"rt":37554.700000047684,"responses":"{\"pregunta16\":\"a) Por el riesgo que corren diariamente, los bomberos deberían tener mejores condiciones de seguridad.\"}","question_order":"[0]","trial_type":"survey-multi-choice","trial_index":27,"time_elapsed":1319258,"internal_node_id":"0.0-5.0-22.0"},{"rt":2380.1999999284744,"response":{"pregunta16 likert":2},"question_order":[0],"trial_type":"survey-likert","trial_index":28,"time_elapsed":1321644,"internal_node_id":"0.0-5.0-23.0"},{"rt":75489.5,"responses":"{\"pregunta2\":\"d) A la relación entre hechos capitales y parámetros del pensamiento.\"}","question_order":"[0]","trial_type":"survey-multi-choice","trial_index":29,"time_elapsed":1397139,"internal_node_id":"0.0-5.0-24.0"},{"rt":2120.2999999523163,"response":{"pregunta2 likert":0},"question_order":[0],"trial_type":"survey-likert","trial_index":30,"time_elapsed":1399265,"internal_node_id":"0.0-5.0-25.0"},{"rt":71798.89999997616,"responses":"{\"pregunta18\":\"d) El receptor es habitualmente pasivo frente a la publicidad.\"}","question_order":"[0]","trial_type":"survey-multi-choice","trial_index":31,"time_elapsed":1471069,"internal_node_id":"0.0-5.0-26.0"},{"rt":3776.399999976158,"response":{"pregunta18 likert":2},"question_order":[0],"trial_type":"survey-likert","trial_index":32,"time_elapsed":1474852,"internal_node_id":"0.0-5.0-27.0"},{"rt":53045.200000047684,"responses":"{\"pregunta23\":\"b) el jardinero estará muerto al día siguiente.\"}","question_order":"[0]","trial_type":"survey-multi-choice","trial_index":33,"time_elapsed":1527905,"internal_node_id":"0.0-5.0-28.0"},{"rt":3970.2000000476837,"response":{"pregunta23 likert":3},"question_order":[0],"trial_type":"survey-likert","trial_index":34,"time_elapsed":1531881,"internal_node_id":"0.0-5.0-29.0"},{"rt":82951.29999995232,"responses":"{\"pregunta1\":\"a) Muestran las opiniones expuestas por los personajes en un relato.\"}","question_order":"[0]","trial_type":"survey-multi-choice","trial_index":35,"time_elapsed":1614839,"internal_node_id":"0.0-5.0-30.0"},{"rt":3018.5,"response":{"pregunta1 likert":2},"question_order":[0],"trial_type":"survey-likert","trial_index":36,"time_elapsed":1617863,"internal_node_id":"0.0-5.0-31.0"},{"rt":65107.5,"responses":"{\"pregunta17\":\"d) A la influencia de grupos que rechazaban su música.\"}","question_order":"[0]","trial_type":"survey-multi-choice","trial_index":37,"time_elapsed":1682976,"internal_node_id":"0.0-5.0-32.0"},{"rt":3339.7000000476837,"response":{"pregunta17 likert":2},"question_order":[0],"trial_type":"survey-likert","trial_index":38,"time_elapsed":1686323,"internal_node_id":"0.0-5.0-33.0"},{"rt":30653.800000071526,"responses":"{\"pregunta24\":\"b) para el mexicano, la muerte es cotidiana.\"}","question_order":"[0]","trial_type":"survey-multi-choice","trial_index":39,"time_elapsed":1716983,"internal_node_id":"0.0-5.0-34.0"},{"rt":5839.399999976158,"response":{"pregunta24 likert":1},"question_order":[0],"trial_type":"survey-likert","trial_index":40,"time_elapsed":1722828,"internal_node_id":"0.0-5.0-35.0"},{"rt":49402.5,"responses":"{\"pregunta21\":\"b) El TLC puede traer más dificultades que progresos.\"}","question_order":"[0]","trial_type":"survey-multi-choice","trial_index":41,"time_elapsed":1772236,"internal_node_id":"0.0-5.0-36.0"},{"rt":2723.2999999523163,"response":{"pregunta21 likert":1},"question_order":[0],"trial_type":"survey-likert","trial_index":42,"time_elapsed":1774965,"internal_node_id":"0.0-5.0-37.0"},{"rt":44266,"responses":"{\"pregunta14\":\"a) el Primer Ministro debía morir por ambicioso.\"}","question_order":"[0]","trial_type":"survey-multi-choice","trial_index":43,"time_elapsed":1819237,"internal_node_id":"0.0-5.0-38.0"},{"rt":3421.2000000476837,"response":{"pregunta14 likert":1},"question_order":[0],"trial_type":"survey-likert","trial_index":44,"time_elapsed":1822664,"internal_node_id":"0.0-5.0-39.0"},{"rt":106251.29999995232,"responses":"{\"pregunta20\":\"c) el sujeto sufre con su modo de vida.\"}","question_order":"[0]","trial_type":"survey-multi-choice","trial_index":45,"time_elapsed":1928922,"internal_node_id":"0.0-5.0-40.0"},{"rt":1952.2000000476837,"response":{"pregunta20 likert":0},"question_order":[0],"trial_type":"survey-likert","trial_index":46,"time_elapsed":1930880,"internal_node_id":"0.0-5.0-41.0"},{"rt":90713.79999995232,"responses":"{\"pregunta5\":\"d) Los momentos triviales de los viajes, en la escritura se vuelven significativos.\"}","question_order":"[0]","trial_type":"survey-multi-choice","trial_index":47,"time_elapsed":2021600,"internal_node_id":"0.0-5.0-42.0"},{"rt":2743.5,"response":{"pregunta5 likert":0},"question_order":[0],"trial_type":"survey-likert","trial_index":48,"time_elapsed":2024349,"internal_node_id":"0.0-5.0-43.0"},{"rt":66922.30000007153,"responses":"{\"pregunta3\":\"c) El inicio de la civilización china.\"}","question_order":"[0]","trial_type":"survey-multi-choice","trial_index":49,"time_elapsed":2091277,"internal_node_id":"0.0-5.0-44.0"},{"rt":29304.600000023842,"response":{"pregunta3 likert":2},"question_order":[0],"trial_type":"survey-likert","trial_index":50,"time_elapsed":2120587,"internal_node_id":"0.0-5.0-45.0"},{"rt":163730.89999997616,"responses":"{\"pregunta6\":\"d) Promover la asistencia a un evento específico de decoración a través de una atractiva descripción.\"}","question_order":"[0]","trial_type":"survey-multi-choice","trial_index":51,"time_elapsed":2284324,"internal_node_id":"0.0-5.0-46.0"},{"rt":4137.399999976158,"response":{"pregunta6 likert":2},"question_order":[0],"trial_type":"survey-likert","trial_index":52,"time_elapsed":2288468,"internal_node_id":"0.0-5.0-47.0"},{"rt":3255,"stimulus":"<p style=\"font-size: 120%\">Gracias por completar esta etapa del estudio. Ahora te invitamos a responder el cuestionario.<br><br></p>","response":0,"trial_type":"html-button-response","trial_index":53,"time_elapsed":2291731,"internal_node_id":"0.0-6.0"},{"rt":12929.100000023842,"stimulus":"<h1 style=\"margin-top: 5%\">Cuestionario para la Evaluación de Metas Académicas</h1><p style=\"font-size: 120%; margin-left: 3%; margin-top: 5%\">Este es un cuestionario que permite conocer cuáles son los principales motivos por los que los estudiantes se esfuerzan en su trabajo académico. A continuación, se te presentarán una serie de afirmaciones acerca de los motivos que puedes tener para estudiar.<br>Te pedimos que contestes a dichas afirmaciones reflexionando sobre el contenido de cada una de ellas, que, aunque te parezcan semejantes, en realidad, no lo son.<br>NO HAY RESPUESTAS CORRECTAS o INCORRECTAS, sólo queremos que respondas con la mayor precisión y sinceridad posible a las preguntas que se plantean.","response":0,"trial_type":"html-button-response","trial_index":54,"time_elapsed":2304662,"internal_node_id":"0.0-7.0"},{"rt":156605.69999992847,"response":{"Metas cuestionario pregunta1":2,"Metas cuestionario pregunta2":1,"Metas cuestionario pregunta3":2,"Metas cuestionario pregunta4":1,"Metas cuestionario pregunta5":2,"Metas cuestionario pregunta6":3,"Metas cuestionario pregunta7":2,"Metas cuestionario pregunta8":2,"Metas cuestionario pregunta9":1,"Metas cuestionario pregunta10":0,"Metas cuestionario pregunta11":0,"Metas cuestionario pregunta12":2,"Metas cuestionario pregunta13":0,"Metas cuestionario pregunta14":1,"Metas cuestionario pregunta15":4,"Metas cuestionario pregunta16":2,"Metas cuestionario pregunta17":4,"Metas cuestionario pregunta18":3,"Metas cuestionario pregunta19":4,"Metas cuestionario pregunta20":3},"question_order":[0,1,2,3,4,5,6,7,8,9,10,11,12,13,14,15,16,17,18,19],"trial_type":"survey-likert","trial_index":55,"time_elapsed":2461275,"internal_node_id":"0.0-8.0"},{"rt":3078.7000000476837,"stimulus":"<p style=\"font-size: 120%\">Gracias por responder el cuestionario. Ahora te invitamos a seguir con el juego, que es muy breve.<br><br></p>","response":0,"trial_type":"html-button-response","trial_index":56,"time_elapsed":2464360,"internal_node_id":"0.0-9.0"},{"rt":6747.100000023842,"stimulus":"<h1>Juego</h1><p style=\"font-size: 120%;\">A continuación se te presentarán 16 pequeñas historias.<br>Por favor lee el texto presentado en cada una de ellas y luego haz click en el objeto de tu elección.<br>Si estás listo(a),<span style=\"color:red;\"> haz click en \"comenzar\"</span>.</p>","response":0,"trial_type":"html-button-response","trial_index":57,"time_elapsed":2471108,"internal_node_id":"0.0-10.0"},{"rt":15900,"grid":[[1,1,1,1],[1,1,1,1],[1,1,1,1],[1,1,1,1],[1,1,1,1],[1,1,1,1],[1,1,1,1],[1,1,1,1],[1,1,1,1]],"target":[0,0],"response":[5,2],"correct":false,"juego":15,"trial_type":"serial-reaction-time-mouse","trial_index":58,"time_elapsed":2487012,"internal_node_id":"0.0-11.0-0.0"},{"rt":8376.700000047684,"grid":[[1,1,1],[1,1,1],[1,1,1],[1,1,1],[1,1,1],[1,1,1],[1,1,1],[1,1,1],[1,1,1]],"target":[0,0],"response":[7,1],"correct":false,"juego":5,"trial_type":"serial-reaction-time-mouse","trial_index":59,"time_elapsed":2495391,"internal_node_id":"0.0-11.0-1.0"},{"rt":14326.299999952316,"grid":[[1,1,1],[1,1,1],[1,1,1],[1,1,1],[1,1,1],[1,1,1],[1,1,1],[1,1,1],[1,1,1]],"target":[0,0],"response":[5,1],"correct":false,"juego":13,"trial_type":"serial-reaction-time-mouse","trial_index":60,"time_elapsed":2509720,"internal_node_id":"0.0-11.0-2.0"},{"rt":8743.299999952316,"grid":[[1,1,1,1]],"target":[0,0],"response":[0,3],"correct":false,"juego":2,"trial_type":"serial-reaction-time-mouse","trial_index":61,"time_elapsed":2518465,"internal_node_id":"0.0-11.0-3.0"},{"rt":11916.799999952316,"grid":[[1,1,1,1],[1,1,1,1],[1,1,1,1],[1,1,1,1],[1,1,1,1],[1,1,1,1],[1,1,1,1],[1,1,1,1],[1,1,1,1]],"target":[0,0],"response":[7,2],"correct":false,"juego":14,"trial_type":"serial-reaction-time-mouse","trial_index":62,"time_elapsed":2530384,"internal_node_id":"0.0-11.0-4.0"},{"rt":5288.099999904633,"grid":[[1],[1],[1],[1]],"target":[0,0],"response":[1,0],"correct":false,"juego":4,"trial_type":"serial-reaction-time-mouse","trial_index":63,"time_elapsed":2535674,"internal_node_id":"0.0-11.0-5.0"},{"rt":14820.899999976158,"grid":[[1,1,1,1]],"target":[0,0],"response":[0,1],"correct":false,"juego":12,"trial_type":"serial-reaction-time-mouse","trial_index":64,"time_elapsed":2550496,"internal_node_id":"0.0-11.0-6.0"},{"rt":5607.100000023842,"grid":[[1,1,1,1]],"target":[0,0],"response":[0,2],"correct":false,"juego":8,"trial_type":"serial-reaction-time-mouse","trial_index":65,"time_elapsed":2556105,"internal_node_id":"0.0-11.0-7.0"},{"rt":8956.699999928474,"grid":[[1,1,1,1]],"target":[0,0],"response":[0,2],"correct":false,"juego":9,"trial_type":"serial-reaction-time-mouse","trial_index":66,"time_elapsed":2565064,"internal_node_id":"0.0-11.0-8.0"},{"rt":4290.899999976158,"grid":[[1,1,1,1]],"target":[0,0],"response":[0,1],"correct":false,"juego":1,"trial_type":"serial-reaction-time-mouse","trial_index":67,"time_elapsed":2569355,"internal_node_id":"0.0-11.0-9.0"},{"rt":5824.600000023842,"grid":[[1,1,1],[1,1,1],[1,1,1],[1,1,1],[1,1,1],[1,1,1],[1,1,1],[1,1,1],[1,1,1]],"target":[0,0],"response":[7,1],"correct":false,"juego":6,"trial_type":"serial-reaction-time-mouse","trial_index":68,"time_elapsed":2575182,"internal_node_id":"0.0-11.0-10.0"},{"rt":12529.399999976158,"grid":[[1,1,1,1]],"target":[0,0],"response":[0,0],"correct":true,"juego":3,"trial_type":"serial-reaction-time-mouse","trial_index":69,"time_elapsed":2587714,"internal_node_id":"0.0-11.0-11.0"},{"rt":7250.699999928474,"grid":[[1,1,1,1]],"target":[0,0],"response":[0,1],"correct":false,"juego":11,"trial_type":"serial-reaction-time-mouse","trial_index":70,"time_elapsed":2594966,"internal_node_id":"0.0-11.0-12.0"},{"rt":8069.399999976158,"grid":[[1,1,1],[1,1,1],[1,1,1],[1,1,1],[1,1,1],[1,1,1],[1,1,1],[1,1,1],[1,1,1]],"target":[0,0],"response":[1,2],"correct":false,"juego":10,"trial_type":"serial-reaction-time-mouse","trial_index":71,"time_elapsed":2603039,"internal_node_id":"0.0-11.0-13.0"},{"rt":7152.399999976158,"grid":[[1,1,1,1]],"target":[0,0],"response":[0,3],"correct":false,"juego":7,"trial_type":"serial-reaction-time-mouse","trial_index":72,"time_elapsed":2610193,"internal_node_id":"0.0-11.0-14.0"},{"rt":5332.099999904633,"stimulus":"<h1>Último juego</h1><p style=\"font-size: 130%;\">Tienes <span style=\"color:red\">25</span> segundos para recordar los pares de palabras que aparecerán a continuación. <br></p>","response":0,"trial_type":"html-button-response","trial_index":73,"time_elapsed":2615529,"internal_node_id":"0.0-12.0"},{"animation_sequence":[{"stimulus":"imagen_juego_interferencia.jpg","time":521},{"stimulus":"imagen_juego_interferencia.jpg","time":1004.6000000238419},{"stimulus":"imagen_juego_interferencia.jpg","time":1508.5},{"stimulus":"imagen_juego_interferencia.jpg","time":2004.8999999761581},{"stimulus":"imagen_juego_interferencia.jpg","time":2507.7999999523163},{"stimulus":"imagen_juego_interferencia.jpg","time":3014.1999999284744},{"stimulus":"imagen_juego_interferencia.jpg","time":3508.7999999523163},{"stimulus":"imagen_juego_interferencia.jpg","time":4015},{"stimulus":"imagen_juego_interferencia.jpg","time":4502.299999952316},{"stimulus":"imagen_juego_interferencia.jpg","time":5013.600000023842},{"stimulus":"imagen_juego_interferencia.jpg","time":5516.5},{"stimulus":"imagen_juego_interferencia.jpg","time":6012.100000023842},{"stimulus":"imagen_juego_interferencia.jpg","time":6514.600000023842},{"stimulus":"imagen_juego_interferencia.jpg","time":7013.100000023842},{"stimulus":"imagen_juego_interferencia.jpg","time":7510.5},{"stimulus":"imagen_juego_interferencia.jpg","time":8015.5},{"stimulus":"imagen_juego_interferencia.jpg","time":8510.5},{"stimulus":"imagen_juego_interferencia.jpg","time":9014},{"stimulus":"imagen_juego_interferencia.jpg","time":9510.899999976158},{"stimulus":"imagen_juego_interferencia.jpg","time":10015.699999928474},{"stimulus":"imagen_juego_interferencia.jpg","time":10510.600000023842},{"stimulus":"imagen_juego_interferencia.jpg","time":11007.399999976158},{"stimulus":"imagen_juego_interferencia.jpg","time":11512.299999952316},{"stimulus":"imagen_juego_interferencia.jpg","time":12007.299999952316},{"stimulus":"imagen_juego_interferencia.jpg","time":12504.299999952316},{"stimulus":"imagen_juego_interferencia.jpg","time":13001.699999928474},{"stimulus":"imagen_juego_interferencia.jpg","time":13503},{"stimulus":"imagen_juego_interferencia.jpg","time":14001.600000023842},{"stimulus":"imagen_juego_interferencia.jpg","time":14507.699999928474},{"stimulus":"imagen_juego_interferencia.jpg","time":15002.699999928474},{"stimulus":"imagen_juego_interferencia.jpg","time":15505.100000023842},{"stimulus":"imagen_juego_interferencia.jpg","time":16009.699999928474},{"stimulus":"imagen_juego_interferencia.jpg","time":16515.799999952316},{"stimulus":"imagen_juego_interferencia.jpg","time":17016.5},{"stimulus":"imagen_juego_interferencia.jpg","time":17507.199999928474},{"stimulus":"imagen_juego_interferencia.jpg","time":18014.799999952316},{"stimulus":"imagen_juego_interferencia.jpg","time":18502.199999928474},{"stimulus":"imagen_juego_interferencia.jpg","time":19012.5},{"stimulus":"imagen_juego_interferencia.jpg","time":19516.399999976158},{"stimulus":"imagen_juego_interferencia.jpg","time":20017.199999928474},{"stimulus":"imagen_juego_interferencia.jpg","time":20513.5},{"stimulus":"imagen_juego_interferencia.jpg","time":21002},{"stimulus":"imagen_juego_interferencia.jpg","time":21513.399999976158},{"stimulus":"imagen_juego_interferencia.jpg","time":22001.799999952316},{"stimulus":"imagen_juego_interferencia.jpg","time":22501.100000023842},{"stimulus":"imagen_juego_interferencia.jpg","time":23007.899999976158},{"stimulus":"imagen_juego_interferencia.jpg","time":23501.399999976158},{"stimulus":"imagen_juego_interferencia.jpg","time":24007.100000023842},{"stimulus":"imagen_juego_interferencia.jpg","time":24515},{"stimulus":"imagen_juego_interferencia.jpg","time":25010.299999952316}],"response":[],"trial_type":"animation","trial_index":74,"time_elapsed":2641031,"internal_node_id":"0.0-13.0"},{"rt":7878.700000047684,"responses":"{\"pregunta interferencia3\":\"aluminio\"}","question_order":"[0]","trial_type":"survey-multi-choice-cuest","trial_index":75,"time_elapsed":2648913,"internal_node_id":"0.0-14.0-0.0"},{"rt":4238,"responses":"{\"pregunta interferencia2\":\"saltamontes\"}","question_order":"[0]","trial_type":"survey-multi-choice-cuest","trial_index":76,"time_elapsed":2653156,"internal_node_id":"0.0-14.0-1.0"},{"rt":4071.2000000476837,"responses":"{\"pregunta interferencia1\":\"naranja\"}","question_order":"[0]","trial_type":"survey-multi-choice-cuest","trial_index":77,"time_elapsed":2657233,"internal_node_id":"0.0-14.0-2.0"},{"rt":6113.299999952316,"responses":"{\"pregunta interferencia4\":\"conserje\"}","question_order":"[0]","trial_type":"survey-multi-choice-cuest","trial_index":78,"time_elapsed":2663352,"internal_node_id":"0.0-14.0-3.0"},{"success":true,"trial_type":"fullscreen","trial_index":79,"time_elapsed":2664370,"internal_node_id":"0.0-15.0"},{"rt":43988.299999952316,"responses":"{\"Telefono\":\"\"}","trial_type":"survey-text","trial_index":80,"time_elapsed":2708372,"internal_node_id":"0.0-16.0"}]