[{"rt":14419.180000084452,"stimulus":"<h1 style=\"color:red; margin-top: 3%;\">¡Bienvenido(a)!</h1><p style=\"text-align:left; justify-content:space-between; margin-right: 5%; margin-left: 5%; margin-top: 5%\"> Antes de empezar el estudio, necesitamos que nos confirmes que estás de acuerdo con participar. Recuerda que tu participación es 100% voluntaria y que lo único que te pedimos es responder lo mejor que puedas. Recuerda también que el estudio incluye:</p><ol style=\"text-align:left; justify-content:space-between; margin-right: 5%; margin-left: 5%;\"><li> un ejercicio de resolución de preguntas de selección múltiple (30’),</li><li>un cuestionario breve (5’),</li><li>un juego muy breve (3’),</li></ol><p style=\"text-align:left; justify-content:space-between; margin-right: 5%; margin-left: 5%;\">Si quieres participar, haz clic en “Acepto” luego de leer lo siguiente:<br></p><p style=\"text-align:left; justify-content:space-between; margin-right: 5%; margin-left: 5%;\">Acepto participar en el estudio “Estrategias de lectura y resolución de preguntas de selección múltiple”, en los términos aquí señalados:<br></p><p style=\"text-align:left; justify-content:space-between; margin-right: 5%; margin-left: 5%;\"><a href=\"http://ciae.uchile.cl/download.php?file=noticias/Asentimiento.pdf\" target=\"_blank\">Link a la hoja de información del Consentimiento.</a></p><p style=\"text-align:left; justify-content:space-between; margin-right: 5%; margin-left: 5%;\">Declaro que he leído (o se me ha leído) y (he) comprendido, las condiciones de mi participación en este estudio. He tenido la oportunidad de hacer preguntas y éstas han sido respondidas. No tengo dudas al respecto.</p>","response":0,"condicion_MCQ":6,"condicion_JUEGO":18,"condicion_INTER":18,"numero_participante":66,"numero_version":1,"dimx":1920,"dimy":1080,"color_profundidad":24,"pixel_profundidad":24,"Browser":"Google Chrome","dia":8,"mes":5,"hora":15,"minuto":38,"segundo":14,"trial_type":"html-button-response","trial_index":0,"time_elapsed":14426,"internal_node_id":"0.0-0.0"},{"success":true,"trial_type":"fullscreen","trial_index":1,"time_elapsed":25815,"internal_node_id":"0.0-1.0"},{"rt":160655.76500003226,"responses":"{\"Nombres\":\"Andrés Gabriel\",\"Apellidos\":\"Varas Madrid\",\"Edad\":\"17\",\"Sexo\":\"Hombre\",\"Curso\":\"Sección 218\",\"Colegio\":\"Universidad Andres Bello\",\"Contacto\":\"angavama@gmail.com\"}","trial_type":"survey-text","trial_index":2,"time_elapsed":186488,"internal_node_id":"0.0-2.0"},{"success":true,"timeout":false,"failed_images":[],"failed_audio":[],"failed_video":[],"trial_type":"preload","trial_index":3,"time_elapsed":188606,"internal_node_id":"0.0-3.0"},{"rt":8926.909999921918,"stimulus":"<h1 style:\"margin-top: 5%;\">Ejercicios de Comprensión de Lectura de la Universidad de Chile</h1><p style=\"font-size: 120%;\">En esta actividad, debes responder 24 preguntas de selección múltiple. Cada pregunta presenta 4 respuestas alternativas, pero sólo una de ellas es correcta. Por lo tanto, debes escoger una sola alternativa para cada pregunta. Además, debes reportar qué tan seguro(a) estás de la respuesta que das, con un:</p><ol style=\"font-size: 120%;text-align:left;margin-left: 40%;\"><li>No estoy seguro(a) para nada</li><li>No estoy muy seguro(a)</li><li>Estoy bastante seguro(a)</li><li>Estoy totalmente seguro(a)</li></ol><p style=\"font-size: 120%;\">Por favor lee bien los enunciados antes de responder. ¡Éxito!</p>","response":0,"trial_type":"html-button-response","trial_index":4,"time_elapsed":197534,"internal_node_id":"0.0-4.0"},{"rt":37365.0899999775,"responses":"{\"pregunta15\":\"c) el uranio es el elemento natural con el mayor número de protones en el núcleo.\"}","question_order":"[0]","trial_type":"survey-multi-choice","trial_index":5,"time_elapsed":234902,"internal_node_id":"0.0-5.0-0.0"},{"rt":3933.0949999857694,"response":{"pregunta15 likert":1},"question_order":[0],"trial_type":"survey-likert","trial_index":6,"time_elapsed":238839,"internal_node_id":"0.0-5.0-1.0"},{"rt":53020.29500005301,"responses":"{\"pregunta10\":\"a) ritualistas y obsesivos.\"}","question_order":"[0]","trial_type":"survey-multi-choice","trial_index":7,"time_elapsed":291863,"internal_node_id":"0.0-5.0-2.0"},{"rt":1909.1450000414625,"response":{"pregunta10 likert":3},"question_order":[0],"trial_type":"survey-likert","trial_index":8,"time_elapsed":293775,"internal_node_id":"0.0-5.0-3.0"},{"rt":33980.74999998789,"responses":"{\"pregunta14\":\"d) sólo las leyes bastan para gobernarse.\"}","question_order":"[0]","trial_type":"survey-multi-choice","trial_index":9,"time_elapsed":327759,"internal_node_id":"0.0-5.0-4.0"},{"rt":1509.2850000364706,"response":{"pregunta14 likert":3},"question_order":[0],"trial_type":"survey-likert","trial_index":10,"time_elapsed":329271,"internal_node_id":"0.0-5.0-5.0"},{"rt":48757.97499995679,"responses":"{\"pregunta22\":\"a) Se necesita un marco legal para delimitar lo público y lo privado en materia informativa.\"}","question_order":"[0]","trial_type":"survey-multi-choice","trial_index":11,"time_elapsed":378031,"internal_node_id":"0.0-5.0-6.0"},{"rt":2932.550000026822,"response":{"pregunta22 likert":3},"question_order":[0],"trial_type":"survey-likert","trial_index":12,"time_elapsed":380966,"internal_node_id":"0.0-5.0-7.0"},{"rt":15982.29000007268,"responses":"{\"pregunta5\":\"a) La escritura plasma los mejores momentos de los viajes.\"}","question_order":"[0]","trial_type":"survey-multi-choice","trial_index":13,"time_elapsed":396951,"internal_node_id":"0.0-5.0-8.0"},{"rt":1356.900000013411,"response":{"pregunta5 likert":3},"question_order":[0],"trial_type":"survey-likert","trial_index":14,"time_elapsed":398311,"internal_node_id":"0.0-5.0-9.0"},{"rt":17740.11499993503,"responses":"{\"pregunta2\":\"d) A la relación entre hechos capitales y parámetros del pensamiento.\"}","question_order":"[0]","trial_type":"survey-multi-choice","trial_index":15,"time_elapsed":416054,"internal_node_id":"0.0-5.0-10.0"},{"rt":2645.3600000822917,"response":{"pregunta2 likert":3},"question_order":[0],"trial_type":"survey-likert","trial_index":16,"time_elapsed":418702,"internal_node_id":"0.0-5.0-11.0"},{"rt":14045.919999945909,"responses":"{\"pregunta12\":\"b) Homenajear a quienes murieron.\"}","question_order":"[0]","trial_type":"survey-multi-choice","trial_index":17,"time_elapsed":432752,"internal_node_id":"0.0-5.0-12.0"},{"rt":1709.3350000213832,"response":{"pregunta12 likert":3},"question_order":[0],"trial_type":"survey-likert","trial_index":18,"time_elapsed":434464,"internal_node_id":"0.0-5.0-13.0"},{"rt":118893.20000004955,"responses":"{\"pregunta4\":\"d) En la literatura como en la vida, todo es metáfora.\"}","question_order":"[0]","trial_type":"survey-multi-choice","trial_index":19,"time_elapsed":553360,"internal_node_id":"0.0-5.0-14.0"},{"rt":1475.6150000030175,"response":{"pregunta4 likert":3},"question_order":[0],"trial_type":"survey-likert","trial_index":20,"time_elapsed":554838,"internal_node_id":"0.0-5.0-15.0"},{"rt":7734.389999997802,"responses":"{\"pregunta20\":\"a) para Aristóteles la virtud estaba en el justo equilibrio.\"}","question_order":"[0]","trial_type":"survey-multi-choice","trial_index":21,"time_elapsed":562576,"internal_node_id":"0.0-5.0-16.0"},{"rt":1652.254999964498,"response":{"pregunta20 likert":3},"question_order":[0],"trial_type":"survey-likert","trial_index":22,"time_elapsed":564231,"internal_node_id":"0.0-5.0-17.0"},{"rt":8452.520000049844,"responses":"{\"pregunta6\":\"d) Promover la asistencia a un evento específico de decoración a través de una atractiva descripción.\"}","question_order":"[0]","trial_type":"survey-multi-choice","trial_index":23,"time_elapsed":572686,"internal_node_id":"0.0-5.0-18.0"},{"rt":1189.2549999756739,"response":{"pregunta6 likert":1},"question_order":[0],"trial_type":"survey-likert","trial_index":24,"time_elapsed":573878,"internal_node_id":"0.0-5.0-19.0"},{"rt":31291.740000015125,"responses":"{\"pregunta16\":\"a) Se debe crear un seguro médico especial para esta institución, pues es de alto riesgo.\"}","question_order":"[0]","trial_type":"survey-multi-choice","trial_index":25,"time_elapsed":605174,"internal_node_id":"0.0-5.0-20.0"},{"rt":1407.4049999471754,"response":{"pregunta16 likert":3},"question_order":[0],"trial_type":"survey-likert","trial_index":26,"time_elapsed":606585,"internal_node_id":"0.0-5.0-21.0"},{"rt":22986.064999946393,"responses":"{\"pregunta3\":\"b) El inicio de la dinastía Chang.\"}","question_order":"[0]","trial_type":"survey-multi-choice","trial_index":27,"time_elapsed":629574,"internal_node_id":"0.0-5.0-22.0"},{"rt":1750.1400000182912,"response":{"pregunta3 likert":3},"question_order":[0],"trial_type":"survey-likert","trial_index":28,"time_elapsed":631327,"internal_node_id":"0.0-5.0-23.0"},{"rt":27587.899999925867,"responses":"{\"pregunta7\":\"c) es una realidad discutida por algunos.\"}","question_order":"[0]","trial_type":"survey-multi-choice","trial_index":29,"time_elapsed":658918,"internal_node_id":"0.0-5.0-24.0"},{"rt":1597.620000015013,"response":{"pregunta7 likert":3},"question_order":[0],"trial_type":"survey-likert","trial_index":30,"time_elapsed":660518,"internal_node_id":"0.0-5.0-25.0"},{"rt":12405.574999982491,"responses":"{\"pregunta18\":\"d) El receptor es habitualmente pasivo frente a la publicidad.\"}","question_order":"[0]","trial_type":"survey-multi-choice","trial_index":31,"time_elapsed":672926,"internal_node_id":"0.0-5.0-26.0"},{"rt":1197.9150000261143,"response":{"pregunta18 likert":3},"question_order":[0],"trial_type":"survey-likert","trial_index":32,"time_elapsed":674127,"internal_node_id":"0.0-5.0-27.0"},{"rt":20396.769999992102,"responses":"{\"pregunta9\":\"c) un recuerdo nostálgico.\"}","question_order":"[0]","trial_type":"survey-multi-choice","trial_index":33,"time_elapsed":694526,"internal_node_id":"0.0-5.0-28.0"},{"rt":3733.4999999729916,"response":{"pregunta9 likert":3},"question_order":[0],"trial_type":"survey-likert","trial_index":34,"time_elapsed":698263,"internal_node_id":"0.0-5.0-29.0"},{"rt":261389.24499996938,"responses":"{\"pregunta21\":\"c) El TLC causará una completa transformación de la economía chilena.\"}","question_order":"[0]","trial_type":"survey-multi-choice","trial_index":35,"time_elapsed":959655,"internal_node_id":"0.0-5.0-30.0"},{"rt":1491.0049999598414,"response":{"pregunta21 likert":3},"question_order":[0],"trial_type":"survey-likert","trial_index":36,"time_elapsed":961150,"internal_node_id":"0.0-5.0-31.0"},{"rt":1268.2649999624118,"responses":"{\"pregunta8\":\"a) El ser humano se comporta de acuerdo con las circunstancias.\"}","question_order":"[0]","trial_type":"survey-multi-choice","trial_index":37,"time_elapsed":962421,"internal_node_id":"0.0-5.0-32.0"},{"rt":1919.8649999452755,"response":{"pregunta8 likert":1},"question_order":[0],"trial_type":"survey-likert","trial_index":38,"time_elapsed":964345,"internal_node_id":"0.0-5.0-33.0"},{"rt":2017.9249999346212,"responses":"{\"pregunta19\":\"d) sufren dolores de espalda.\"}","question_order":"[0]","trial_type":"survey-multi-choice","trial_index":39,"time_elapsed":966366,"internal_node_id":"0.0-5.0-34.0"},{"rt":2092.674999963492,"response":{"pregunta19 likert":3},"question_order":[0],"trial_type":"survey-likert","trial_index":40,"time_elapsed":968462,"internal_node_id":"0.0-5.0-35.0"},{"rt":3356.679999968037,"responses":"{\"pregunta24\":\"b) para el mexicano, la muerte es cotidiana.\"}","question_order":"[0]","trial_type":"survey-multi-choice","trial_index":41,"time_elapsed":971822,"internal_node_id":"0.0-5.0-36.0"},{"rt":2124.424999929033,"response":{"pregunta24 likert":3},"question_order":[0],"trial_type":"survey-likert","trial_index":42,"time_elapsed":973949,"internal_node_id":"0.0-5.0-37.0"},{"rt":10230.714999954216,"responses":"{\"pregunta13\":\"c) Al deseo de privilegiar el ocio por sobre el trabajo.\"}","question_order":"[0]","trial_type":"survey-multi-choice","trial_index":43,"time_elapsed":984182,"internal_node_id":"0.0-5.0-38.0"},{"rt":1348.6549999797717,"response":{"pregunta13 likert":3},"question_order":[0],"trial_type":"survey-likert","trial_index":44,"time_elapsed":985534,"internal_node_id":"0.0-5.0-39.0"},{"rt":2933.670000056736,"responses":"{\"pregunta23\":\"a) la Muerte vaticina el futuro mediante gestos.\"}","question_order":"[0]","trial_type":"survey-multi-choice","trial_index":45,"time_elapsed":988470,"internal_node_id":"0.0-5.0-40.0"},{"rt":1429.2549999663606,"response":{"pregunta23 likert":3},"question_order":[0],"trial_type":"survey-likert","trial_index":46,"time_elapsed":989902,"internal_node_id":"0.0-5.0-41.0"},{"rt":1222.7949999505654,"responses":"{\"pregunta17\":\"a) A la inexistencia de un recinto adecuado para el recital.\"}","question_order":"[0]","trial_type":"survey-multi-choice","trial_index":47,"time_elapsed":991127,"internal_node_id":"0.0-5.0-42.0"},{"rt":1116.039999993518,"response":{"pregunta17 likert":3},"question_order":[0],"trial_type":"survey-likert","trial_index":48,"time_elapsed":992246,"internal_node_id":"0.0-5.0-43.0"},{"rt":1869.5950000546873,"responses":"{\"pregunta1\":\"c) Enjuician la acción del narrador dentro del relato.\"}","question_order":"[0]","trial_type":"survey-multi-choice","trial_index":49,"time_elapsed":994119,"internal_node_id":"0.0-5.0-44.0"},{"rt":3500.3799999831244,"response":{"pregunta1 likert":3},"question_order":[0],"trial_type":"survey-likert","trial_index":50,"time_elapsed":997622,"internal_node_id":"0.0-5.0-45.0"},{"rt":1808.2300000824034,"responses":"{\"pregunta11\":\"a) Deleitar a sus receptores por medio de la belleza y el confort\"}","question_order":"[0]","trial_type":"survey-multi-choice","trial_index":51,"time_elapsed":999433,"internal_node_id":"0.0-5.0-46.0"},{"rt":1537.1349999913946,"response":{"pregunta11 likert":3},"question_order":[0],"trial_type":"survey-likert","trial_index":52,"time_elapsed":1000973,"internal_node_id":"0.0-5.0-47.0"}]