[{"rt":241628,"stimulus":"<h1 style=\"color:red; margin-top: 3%;\">¡Bienvenido(a)!</h1><p style=\"text-align:left; justify-content:space-between; margin-right: 5%; margin-left: 5%; margin-top: 5%\"> Antes de empezar el estudio, necesitamos que nos confirmes que estás de acuerdo con participar. Recuerda que tu participación es 100% voluntaria y que lo único que te pedimos es responder lo mejor que puedas. Recuerda también que el estudio incluye:</p><ol style=\"text-align:left; justify-content:space-between; margin-right: 5%; margin-left: 5%;\"><li> un ejercicio de resolución de preguntas de selección múltiple (30’),</li><li>un cuestionario breve (5’),</li><li>un juego muy breve (3’),</li></ol><p style=\"text-align:left; justify-content:space-between; margin-right: 5%; margin-left: 5%;\">Si quieres participar, haz clic en “Acepto” luego de leer lo siguiente:<br></p><p style=\"text-align:left; justify-content:space-between; margin-right: 5%; margin-left: 5%;\">Acepto participar en el estudio “Estrategias de lectura y resolución de preguntas de selección múltiple”, en los términos aquí señalados:<br></p><p style=\"text-align:left; justify-content:space-between; margin-right: 5%; margin-left: 5%;\"><a href=\"http://ciae.uchile.cl/download.php?file=noticias/Asentimiento.pdf\" target=\"_blank\">Link a la hoja de información del Consentimiento.</a></p><p style=\"text-align:left; justify-content:space-between; margin-right: 5%; margin-left: 5%;\">Declaro que he leído (o se me ha leído) y (he) comprendido, las condiciones de mi participación en este estudio. He tenido la oportunidad de hacer preguntas y éstas han sido respondidas. No tengo dudas al respecto.</p>","response":0,"condicion_MCQ":3,"condicion_JUEGO":3,"condicion_INTER":3,"numero_participante":3,"numero_version":1,"dimx":375,"dimy":667,"color_profundidad":32,"pixel_profundidad":32,"Browser":"Apple Safari","dia":2,"mes":5,"hora":18,"minuto":31,"segundo":53,"trial_type":"html-button-response","trial_index":0,"time_elapsed":646782,"internal_node_id":"0.0-0.0"},{"success":true,"trial_type":"fullscreen","trial_index":1,"time_elapsed":653940,"internal_node_id":"0.0-1.0"},{"rt":91137,"responses":"{\"Nombres\":\"Alisson Nayareth \",\"Apellidos\":\"Osorio Patiño\",\"Edad\":\"18\",\"Sexo\":\"Mujer\",\"Curso\":\"Sección 205\",\"Colegio\":\"Universidad Andres Bello\",\"Contacto\":\"aliosorio.2014@gmail.com\"}","trial_type":"survey-text","trial_index":2,"time_elapsed":745128,"internal_node_id":"0.0-2.0"},{"success":true,"timeout":false,"failed_images":[],"failed_audio":[],"failed_video":[],"trial_type":"preload","trial_index":3,"time_elapsed":748413,"internal_node_id":"0.0-3.0"},{"rt":20350.99999999994,"stimulus":"<h1 style:\"margin-top: 5%;\">Ejercicios de Comprensión de Lectura de la Universidad de Chile</h1><p style=\"font-size: 120%;\">En esta actividad, debes responder 24 preguntas de selección múltiple. Cada pregunta presenta 4 respuestas alternativas, pero sólo una de ellas es correcta. Por lo tanto, debes escoger una sola alternativa para cada pregunta. Además, debes reportar qué tan seguro(a) estás de la respuesta que das, con un:</p><ol style=\"font-size: 120%;text-align:left;margin-left: 40%;\"><li>No estoy seguro(a) para nada</li><li>No estoy muy seguro(a)</li><li>Estoy bastante seguro(a)</li><li>Estoy totalmente seguro(a)</li></ol><p style=\"font-size: 120%;\">Por favor lee bien los enunciados antes de responder. ¡Éxito!</p>","response":0,"trial_type":"html-button-response","trial_index":4,"time_elapsed":768767,"internal_node_id":"0.0-4.0"},{"rt":85371,"responses":"{\"pregunta11\":\"a) Provocar el deseo de la adquisición vertiginosa.\"}","question_order":"[0]","trial_type":"survey-multi-choice","trial_index":5,"time_elapsed":854150,"internal_node_id":"0.0-5.0-0.0"},{"rt":11355,"response":{"pregunta11 likert":2},"question_order":[0],"trial_type":"survey-likert","trial_index":6,"time_elapsed":865516,"internal_node_id":"0.0-5.0-1.0"},{"rt":58663.00000000006,"responses":"{\"pregunta18\":\"c) El receptor es habitualmente pasivo frente a la publicidad.\"}","question_order":"[0]","trial_type":"survey-multi-choice","trial_index":7,"time_elapsed":924182,"internal_node_id":"0.0-5.0-2.0"},{"rt":3543,"response":{"pregunta18 likert":2},"question_order":[0],"trial_type":"survey-likert","trial_index":8,"time_elapsed":927730,"internal_node_id":"0.0-5.0-3.0"},{"rt":96766.99999999994,"responses":"{\"pregunta14\":\"c) el Primer Ministro debía morir por ambicioso.\"}","question_order":"[0]","trial_type":"survey-multi-choice","trial_index":9,"time_elapsed":1024500,"internal_node_id":"0.0-5.0-4.0"},{"rt":2995,"response":{"pregunta14 likert":1},"question_order":[0],"trial_type":"survey-likert","trial_index":10,"time_elapsed":1027499,"internal_node_id":"0.0-5.0-5.0"},{"rt":37346,"responses":"{\"pregunta3\":\"c) El inicio de la dinastía Chang.\"}","question_order":"[0]","trial_type":"survey-multi-choice","trial_index":11,"time_elapsed":1064850,"internal_node_id":"0.0-5.0-6.0"},{"rt":2096,"response":{"pregunta3 likert":2},"question_order":[0],"trial_type":"survey-likert","trial_index":12,"time_elapsed":1066951,"internal_node_id":"0.0-5.0-7.0"},{"rt":46798,"responses":"{\"pregunta4\":\"d) En la literatura como en la vida, todo es metáfora.\"}","question_order":"[0]","trial_type":"survey-multi-choice","trial_index":13,"time_elapsed":1113752,"internal_node_id":"0.0-5.0-8.0"},{"rt":2195.0000000001164,"response":{"pregunta4 likert":1},"question_order":[0],"trial_type":"survey-likert","trial_index":14,"time_elapsed":1115953,"internal_node_id":"0.0-5.0-9.0"},{"rt":62933,"responses":"{\"pregunta9\":\"b) un recuerdo nostálgico.\"}","question_order":"[0]","trial_type":"survey-multi-choice","trial_index":15,"time_elapsed":1178890,"internal_node_id":"0.0-5.0-10.0"},{"rt":2165.9999999998836,"response":{"pregunta9 likert":1},"question_order":[0],"trial_type":"survey-likert","trial_index":16,"time_elapsed":1181059,"internal_node_id":"0.0-5.0-11.0"},{"rt":85797,"responses":"{\"pregunta12\":\"a) Homenajear a quienes murieron.\"}","question_order":"[0]","trial_type":"survey-multi-choice","trial_index":17,"time_elapsed":1266860,"internal_node_id":"0.0-5.0-12.0"},{"rt":2512,"response":{"pregunta12 likert":2},"question_order":[0],"trial_type":"survey-likert","trial_index":18,"time_elapsed":1269377,"internal_node_id":"0.0-5.0-13.0"},{"rt":32326,"responses":"{\"pregunta24\":\"a) para el mexicano, la muerte es cotidiana.\"}","question_order":"[0]","trial_type":"survey-multi-choice","trial_index":19,"time_elapsed":1301708,"internal_node_id":"0.0-5.0-14.0"},{"rt":4312,"response":{"pregunta24 likert":1},"question_order":[0],"trial_type":"survey-likert","trial_index":20,"time_elapsed":1306024,"internal_node_id":"0.0-5.0-15.0"},{"rt":88463,"responses":"{\"pregunta15\":\"d) la creación de elementos químicos es altamente contaminante.\"}","question_order":"[0]","trial_type":"survey-multi-choice","trial_index":21,"time_elapsed":1402343,"internal_node_id":"0.0-5.0-16.0"},{"rt":12817,"response":{"pregunta15 likert":1},"question_order":[0],"trial_type":"survey-likert","trial_index":22,"time_elapsed":1415169,"internal_node_id":"0.0-5.0-17.0"},{"rt":45196,"responses":"{\"pregunta22\":\"d) Se necesita un marco legal para delimitar lo público y lo privado en materia informativa.\"}","question_order":"[0]","trial_type":"survey-multi-choice","trial_index":23,"time_elapsed":1460373,"internal_node_id":"0.0-5.0-18.0"},{"rt":2861.9999999998836,"response":{"pregunta22 likert":0},"question_order":[0],"trial_type":"survey-likert","trial_index":24,"time_elapsed":1463239,"internal_node_id":"0.0-5.0-19.0"},{"rt":23730.000000000233,"responses":"{\"pregunta21\":\"b) El TLC causará una completa transformación de la economía chilena.\"}","question_order":"[0]","trial_type":"survey-multi-choice","trial_index":25,"time_elapsed":1486974,"internal_node_id":"0.0-5.0-20.0"},{"rt":2325,"response":{"pregunta21 likert":1},"question_order":[0],"trial_type":"survey-likert","trial_index":26,"time_elapsed":1489304,"internal_node_id":"0.0-5.0-21.0"},{"rt":49882,"responses":"{\"pregunta10\":\"c) religiosos y precavidos.\"}","question_order":"[0]","trial_type":"survey-multi-choice","trial_index":27,"time_elapsed":1539190,"internal_node_id":"0.0-5.0-22.0"},{"rt":3428,"response":{"pregunta10 likert":1},"question_order":[0],"trial_type":"survey-likert","trial_index":28,"time_elapsed":1542623,"internal_node_id":"0.0-5.0-23.0"},{"rt":39469,"responses":"{\"pregunta6\":\"a) Criticar la mezcla de estilos que se puede observar en la muestra que exhibe Casa Mater.\"}","question_order":"[0]","trial_type":"survey-multi-choice","trial_index":29,"time_elapsed":1582094,"internal_node_id":"0.0-5.0-24.0"},{"rt":3762,"response":{"pregunta6 likert":2},"question_order":[0],"trial_type":"survey-likert","trial_index":30,"time_elapsed":1585860,"internal_node_id":"0.0-5.0-25.0"},{"rt":48195,"responses":"{\"pregunta7\":\"c) se da como existente, y sólo se discute su relación con el cuerpo.\"}","question_order":"[0]","trial_type":"survey-multi-choice","trial_index":31,"time_elapsed":1634060,"internal_node_id":"0.0-5.0-26.0"},{"rt":1828,"response":{"pregunta7 likert":1},"question_order":[0],"trial_type":"survey-likert","trial_index":32,"time_elapsed":1635894,"internal_node_id":"0.0-5.0-27.0"},{"rt":38980,"responses":"{\"pregunta5\":\"c) Los momentos triviales de los viajes, en la escritura se vuelven significativos.\"}","question_order":"[0]","trial_type":"survey-multi-choice","trial_index":33,"time_elapsed":1674878,"internal_node_id":"0.0-5.0-28.0"},{"rt":2379,"response":{"pregunta5 likert":2},"question_order":[0],"trial_type":"survey-likert","trial_index":34,"time_elapsed":1677262,"internal_node_id":"0.0-5.0-29.0"},{"rt":178717,"responses":"{\"pregunta2\":\"d) A la relación entre hechos capitales y parámetros del pensamiento.\"}","question_order":"[0]","trial_type":"survey-multi-choice","trial_index":35,"time_elapsed":1969566,"internal_node_id":"0.0-5.0-30.0"},{"rt":2856,"response":{"pregunta2 likert":0},"question_order":[0],"trial_type":"survey-likert","trial_index":36,"time_elapsed":1972428,"internal_node_id":"0.0-5.0-31.0"},{"rt":28697,"responses":"{\"pregunta16\":\"d) Por el riesgo que corren diariamente, los bomberos deberían tener mejores condiciones de seguridad.\"}","question_order":"[0]","trial_type":"survey-multi-choice","trial_index":37,"time_elapsed":2001130,"internal_node_id":"0.0-5.0-32.0"},{"rt":3827,"response":{"pregunta16 likert":0},"question_order":[0],"trial_type":"survey-likert","trial_index":38,"time_elapsed":2004962,"internal_node_id":"0.0-5.0-33.0"},{"rt":81716,"responses":"{\"pregunta19\":\"d) llevan un control grupal de su embarazo.\"}","question_order":"[0]","trial_type":"survey-multi-choice","trial_index":39,"time_elapsed":2086683,"internal_node_id":"0.0-5.0-34.0"},{"rt":1929,"response":{"pregunta19 likert":1},"question_order":[0],"trial_type":"survey-likert","trial_index":40,"time_elapsed":2088614,"internal_node_id":"0.0-5.0-35.0"},{"rt":38146.99999999977,"responses":"{\"pregunta23\":\"a) el jardinero estará muerto al día siguiente.\"}","question_order":"[0]","trial_type":"survey-multi-choice","trial_index":41,"time_elapsed":2126766,"internal_node_id":"0.0-5.0-36.0"},{"rt":2228,"response":{"pregunta23 likert":1},"question_order":[0],"trial_type":"survey-likert","trial_index":42,"time_elapsed":2128998,"internal_node_id":"0.0-5.0-37.0"},{"rt":136808,"responses":"{\"pregunta8\":\"d) El ser humano se comporta de acuerdo con las circunstancias.\"}","question_order":"[0]","trial_type":"survey-multi-choice","trial_index":43,"time_elapsed":2322804,"internal_node_id":"0.0-5.0-38.0"},{"rt":4720,"response":{"pregunta8 likert":0},"question_order":[0],"trial_type":"survey-likert","trial_index":44,"time_elapsed":2327531,"internal_node_id":"0.0-5.0-39.0"},{"rt":173376,"responses":"{\"pregunta20\":\"a) el sujeto sufre con su modo de vida.\"}","question_order":"[0]","trial_type":"survey-multi-choice","trial_index":45,"time_elapsed":2506416,"internal_node_id":"0.0-5.0-40.0"},{"rt":2309.000000000233,"response":{"pregunta20 likert":1},"question_order":[0],"trial_type":"survey-likert","trial_index":46,"time_elapsed":2508731,"internal_node_id":"0.0-5.0-41.0"},{"rt":35594,"responses":"{\"pregunta17\":\"c) A la influencia de grupos que rechazaban su música.\"}","question_order":"[0]","trial_type":"survey-multi-choice","trial_index":47,"time_elapsed":2544331,"internal_node_id":"0.0-5.0-42.0"},{"rt":2846,"response":{"pregunta17 likert":2},"question_order":[0],"trial_type":"survey-likert","trial_index":48,"time_elapsed":2547183,"internal_node_id":"0.0-5.0-43.0"},{"rt":40530,"responses":"{\"pregunta1\":\"d) Muestran las opiniones expuestas por los personajes en un relato.\"}","question_order":"[0]","trial_type":"survey-multi-choice","trial_index":49,"time_elapsed":2587719,"internal_node_id":"0.0-5.0-44.0"},{"rt":2408,"response":{"pregunta1 likert":1},"question_order":[0],"trial_type":"survey-likert","trial_index":50,"time_elapsed":2590132,"internal_node_id":"0.0-5.0-45.0"},{"rt":29531.999999999767,"responses":"{\"pregunta13\":\"d) A la inutilidad de tanto esfuerzo si el objetivo es el reposo.\"}","question_order":"[0]","trial_type":"survey-multi-choice","trial_index":51,"time_elapsed":2619667,"internal_node_id":"0.0-5.0-46.0"},{"rt":3246,"response":{"pregunta13 likert":1},"question_order":[0],"trial_type":"survey-likert","trial_index":52,"time_elapsed":2622919,"internal_node_id":"0.0-5.0-47.0"},{"rt":3907.999999999767,"stimulus":"<p style=\"font-size: 120%\">Gracias por completar esta etapa del estudio. Ahora te invitamos a responder el cuestionario.<br><br></p>","response":0,"trial_type":"html-button-response","trial_index":53,"time_elapsed":2626863,"internal_node_id":"0.0-6.0"},{"rt":15924,"stimulus":"<h1 style=\"margin-top: 5%\">Cuestionario para la Evaluación de Metas Académicas</h1><p style=\"font-size: 120%; margin-left: 3%; margin-top: 5%\">Este es un cuestionario que permite conocer cuáles son los principales motivos por los que los estudiantes se esfuerzan en su trabajo académico. A continuación, se te presentarán una serie de afirmaciones acerca de los motivos que puedes tener para estudiar.<br>Te pedimos que contestes a dichas afirmaciones reflexionando sobre el contenido de cada una de ellas, que, aunque te parezcan semejantes, en realidad, no lo son.<br>NO HAY RESPUESTAS CORRECTAS o INCORRECTAS, sólo queremos que respondas con la mayor precisión y sinceridad posible a las preguntas que se plantean.","response":0,"trial_type":"html-button-response","trial_index":54,"time_elapsed":2642791,"internal_node_id":"0.0-7.0"},{"rt":104963.99999999977,"response":{"Metas cuestionario pregunta1":2,"Metas cuestionario pregunta2":4,"Metas cuestionario pregunta3":3,"Metas cuestionario pregunta4":3,"Metas cuestionario pregunta5":4,"Metas cuestionario pregunta6":2,"Metas cuestionario pregunta7":2,"Metas cuestionario pregunta8":3,"Metas cuestionario pregunta9":1,"Metas cuestionario pregunta10":0,"Metas cuestionario pregunta11":1,"Metas cuestionario pregunta12":0,"Metas cuestionario pregunta13":1,"Metas cuestionario pregunta14":0,"Metas cuestionario pregunta15":4,"Metas cuestionario pregunta16":4,"Metas cuestionario pregunta17":4,"Metas cuestionario pregunta18":4,"Metas cuestionario pregunta19":4,"Metas cuestionario pregunta20":2},"question_order":[0,1,2,3,4,5,6,7,8,9,10,11,12,13,14,15,16,17,18,19],"trial_type":"survey-likert","trial_index":55,"time_elapsed":2747770,"internal_node_id":"0.0-8.0"},{"rt":3720.9999999995343,"stimulus":"<p style=\"font-size: 120%\">Gracias por responder el cuestionario. Ahora te invitamos a seguir con el juego, que es muy breve.<br><br></p>","response":0,"trial_type":"html-button-response","trial_index":56,"time_elapsed":2751496,"internal_node_id":"0.0-9.0"},{"rt":6614,"stimulus":"<h1>Juego</h1><p style=\"font-size: 120%;\">A continuación se te presentarán 16 pequeñas historias.<br>Por favor lee el texto presentado en cada una de ellas y luego haz click en el objeto de tu elección.<br>Si estás listo(a),<span style=\"color:red;\"> haz click en \"comenzar\"</span>.</p>","response":0,"trial_type":"html-button-response","trial_index":57,"time_elapsed":2758112,"internal_node_id":"0.0-10.0"},{"rt":11204,"grid":[[1,1,1,1],[1,1,1,1],[1,1,1,1],[1,1,1,1],[1,1,1,1],[1,1,1,1],[1,1,1,1],[1,1,1,1],[1,1,1,1]],"target":[0,0],"response":[7,2],"correct":false,"juego":15,"trial_type":"serial-reaction-time-mouse","trial_index":58,"time_elapsed":2769332,"internal_node_id":"0.0-11.0-0.0"},{"rt":24826,"grid":[[1,1,1,1]],"target":[0,0],"response":[0,3],"correct":false,"juego":11,"trial_type":"serial-reaction-time-mouse","trial_index":59,"time_elapsed":2794163,"internal_node_id":"0.0-11.0-1.0"},{"rt":15913,"grid":[[1,1,1,1]],"target":[0,0],"response":[0,0],"correct":true,"juego":9,"trial_type":"serial-reaction-time-mouse","trial_index":60,"time_elapsed":2810081,"internal_node_id":"0.0-11.0-2.0"},{"rt":7809,"grid":[[1,1,1],[1,1,1],[1,1,1],[1,1,1],[1,1,1],[1,1,1],[1,1,1],[1,1,1],[1,1,1]],"target":[0,0],"response":[3,1],"correct":false,"juego":5,"trial_type":"serial-reaction-time-mouse","trial_index":61,"time_elapsed":2817899,"internal_node_id":"0.0-11.0-3.0"},{"rt":19025,"grid":[[1,1,1],[1,1,1],[1,1,1],[1,1,1],[1,1,1],[1,1,1],[1,1,1],[1,1,1],[1,1,1]],"target":[0,0],"response":[1,0],"correct":false,"juego":10,"trial_type":"serial-reaction-time-mouse","trial_index":62,"time_elapsed":2836934,"internal_node_id":"0.0-11.0-4.0"},{"rt":11244,"grid":[[1,1,1,1]],"target":[0,0],"response":[0,2],"correct":false,"juego":2,"trial_type":"serial-reaction-time-mouse","trial_index":63,"time_elapsed":2848182,"internal_node_id":"0.0-11.0-5.0"},{"rt":29223,"grid":[[1,1,1],[1,1,1],[1,1,1],[1,1,1],[1,1,1],[1,1,1],[1,1,1],[1,1,1],[1,1,1]],"target":[0,0],"response":[1,1],"correct":false,"juego":13,"trial_type":"serial-reaction-time-mouse","trial_index":64,"time_elapsed":2877413,"internal_node_id":"0.0-11.0-6.0"},{"rt":6885,"grid":[[1,1,1,1],[1,1,1,1],[1,1,1,1],[1,1,1,1],[1,1,1,1],[1,1,1,1],[1,1,1,1],[1,1,1,1],[1,1,1,1]],"target":[0,0],"response":[3,2],"correct":false,"juego":14,"trial_type":"serial-reaction-time-mouse","trial_index":65,"time_elapsed":2884302,"internal_node_id":"0.0-11.0-7.0"},{"rt":7444,"grid":[[1,1,1,1]],"target":[0,0],"response":[0,1],"correct":false,"juego":8,"trial_type":"serial-reaction-time-mouse","trial_index":66,"time_elapsed":2891749,"internal_node_id":"0.0-11.0-8.0"},{"rt":35699,"grid":[[1,1,1,1]],"target":[0,0],"response":[0,3],"correct":false,"juego":3,"trial_type":"serial-reaction-time-mouse","trial_index":67,"time_elapsed":2927453,"internal_node_id":"0.0-11.0-9.0"},{"rt":46920.999999999534,"grid":[[1,1,1,1]],"target":[0,0],"response":[0,2],"correct":false,"juego":7,"trial_type":"serial-reaction-time-mouse","trial_index":68,"time_elapsed":2998201,"internal_node_id":"0.0-11.0-10.0"},{"rt":4554,"grid":[[1,1,1,1]],"target":[0,0],"response":[0,3],"correct":false,"juego":1,"trial_type":"serial-reaction-time-mouse","trial_index":69,"time_elapsed":3002768,"internal_node_id":"0.0-11.0-11.0"},{"rt":5089,"grid":[[1,1,1],[1,1,1],[1,1,1],[1,1,1],[1,1,1],[1,1,1],[1,1,1],[1,1,1],[1,1,1]],"target":[0,0],"response":[7,1],"correct":false,"juego":6,"trial_type":"serial-reaction-time-mouse","trial_index":70,"time_elapsed":3007863,"internal_node_id":"0.0-11.0-12.0"},{"rt":17462,"grid":[[1],[1],[1],[1]],"target":[0,0],"response":[1,0],"correct":false,"juego":4,"trial_type":"serial-reaction-time-mouse","trial_index":71,"time_elapsed":3025331,"internal_node_id":"0.0-11.0-13.0"},{"rt":6425,"grid":[[1,1,1,1]],"target":[0,0],"response":[0,2],"correct":false,"juego":12,"trial_type":"serial-reaction-time-mouse","trial_index":72,"time_elapsed":3031761,"internal_node_id":"0.0-11.0-14.0"},{"rt":84015,"stimulus":"<h1>Último juego</h1><p style=\"font-size: 130%;\">Tienes <span style=\"color:red\">25</span> segundos para recordar los pares de palabras que aparecerán a continuación. <br></p>","response":0,"trial_type":"html-button-response","trial_index":73,"time_elapsed":3336126,"internal_node_id":"0.0-12.0"},{"animation_sequence":[{"stimulus":"imagen_juego_interferencia.jpg","time":531.0000000004657},{"stimulus":"imagen_juego_interferencia.jpg","time":1013.0000000004657},{"stimulus":"imagen_juego_interferencia.jpg","time":1514},{"stimulus":"imagen_juego_interferencia.jpg","time":2015},{"stimulus":"imagen_juego_interferencia.jpg","time":2515},{"stimulus":"imagen_juego_interferencia.jpg","time":3016},{"stimulus":"imagen_juego_interferencia.jpg","time":3529},{"stimulus":"imagen_juego_interferencia.jpg","time":4039},{"stimulus":"imagen_juego_interferencia.jpg","time":4548},{"stimulus":"imagen_juego_interferencia.jpg","time":5059},{"stimulus":"imagen_juego_interferencia.jpg","time":5569.000000000466},{"stimulus":"imagen_juego_interferencia.jpg","time":6079},{"stimulus":"imagen_juego_interferencia.jpg","time":6588},{"stimulus":"imagen_juego_interferencia.jpg","time":7099},{"stimulus":"imagen_juego_interferencia.jpg","time":7609.000000000466},{"stimulus":"imagen_juego_interferencia.jpg","time":8119},{"stimulus":"imagen_juego_interferencia.jpg","time":8629},{"stimulus":"imagen_juego_interferencia.jpg","time":9139},{"stimulus":"imagen_juego_interferencia.jpg","time":9649},{"stimulus":"imagen_juego_interferencia.jpg","time":10159},{"stimulus":"imagen_juego_interferencia.jpg","time":10668},{"stimulus":"imagen_juego_interferencia.jpg","time":11179},{"stimulus":"imagen_juego_interferencia.jpg","time":11688},{"stimulus":"imagen_juego_interferencia.jpg","time":12198},{"stimulus":"imagen_juego_interferencia.jpg","time":12709},{"stimulus":"imagen_juego_interferencia.jpg","time":13219},{"stimulus":"imagen_juego_interferencia.jpg","time":13729},{"stimulus":"imagen_juego_interferencia.jpg","time":14239},{"stimulus":"imagen_juego_interferencia.jpg","time":14749},{"stimulus":"imagen_juego_interferencia.jpg","time":15259},{"stimulus":"imagen_juego_interferencia.jpg","time":15769},{"stimulus":"imagen_juego_interferencia.jpg","time":16279},{"stimulus":"imagen_juego_interferencia.jpg","time":16789},{"stimulus":"imagen_juego_interferencia.jpg","time":17299},{"stimulus":"imagen_juego_interferencia.jpg","time":17809},{"stimulus":"imagen_juego_interferencia.jpg","time":18318},{"stimulus":"imagen_juego_interferencia.jpg","time":18829},{"stimulus":"imagen_juego_interferencia.jpg","time":19338},{"stimulus":"imagen_juego_interferencia.jpg","time":19849},{"stimulus":"imagen_juego_interferencia.jpg","time":20359.000000000466},{"stimulus":"imagen_juego_interferencia.jpg","time":20870},{"stimulus":"imagen_juego_interferencia.jpg","time":21379},{"stimulus":"imagen_juego_interferencia.jpg","time":21888.000000000466},{"stimulus":"imagen_juego_interferencia.jpg","time":22399},{"stimulus":"imagen_juego_interferencia.jpg","time":22908},{"stimulus":"imagen_juego_interferencia.jpg","time":23419},{"stimulus":"imagen_juego_interferencia.jpg","time":23929},{"stimulus":"imagen_juego_interferencia.jpg","time":24439},{"stimulus":"imagen_juego_interferencia.jpg","time":24949},{"stimulus":"imagen_juego_interferencia.jpg","time":25459}],"response":[],"trial_type":"animation","trial_index":74,"time_elapsed":3362117,"internal_node_id":"0.0-13.0"},{"rt":6045,"responses":"{\"pregunta interferencia4\":\"soldado\"}","question_order":"[0]","trial_type":"survey-multi-choice-cuest","trial_index":75,"time_elapsed":3368178,"internal_node_id":"0.0-14.0-0.0"},{"rt":4325,"responses":"{\"pregunta interferencia3\":\"aluminio\"}","question_order":"[0]","trial_type":"survey-multi-choice-cuest","trial_index":76,"time_elapsed":3372506,"internal_node_id":"0.0-14.0-1.0"},{"rt":6159,"responses":"{\"pregunta interferencia2\":\"cucaracha\"}","question_order":"[0]","trial_type":"survey-multi-choice-cuest","trial_index":77,"time_elapsed":3378670,"internal_node_id":"0.0-14.0-2.0"},{"rt":4596,"responses":"{\"pregunta interferencia1\":\"naranja\"}","question_order":"[0]","trial_type":"survey-multi-choice-cuest","trial_index":78,"time_elapsed":3383271,"internal_node_id":"0.0-14.0-3.0"},{"success":true,"trial_type":"fullscreen","trial_index":79,"time_elapsed":3384279,"internal_node_id":"0.0-15.0"}]