[{"rt":11097,"stimulus":"<h1 style=\"color:red; margin-top: 3%;\">¡Bienvenido(a)!</h1><p style=\"text-align:left; justify-content:space-between; margin-right: 5%; margin-left: 5%; margin-top: 5%\"> Antes de empezar el estudio, necesitamos que nos confirmes que estás de acuerdo con participar. Recuerda que tu participación es 100% voluntaria y que lo único que te pedimos es responder lo mejor que puedas. Recuerda también que el estudio incluye:</p><ol style=\"text-align:left; justify-content:space-between; margin-right: 5%; margin-left: 5%;\"><li> un ejercicio de resolución de preguntas de selección múltiple (30’),</li><li>un cuestionario breve (5’),</li><li>un juego muy breve (3’),</li></ol><p style=\"text-align:left; justify-content:space-between; margin-right: 5%; margin-left: 5%;\">Si quieres participar, haz clic en “Acepto” luego de leer lo siguiente:<br></p><p style=\"text-align:left; justify-content:space-between; margin-right: 5%; margin-left: 5%;\">Acepto participar en el estudio “Estrategias de lectura y resolución de preguntas de selección múltiple”, en los términos aquí señalados:<br></p><p style=\"text-align:left; justify-content:space-between; margin-right: 5%; margin-left: 5%;\"><a href=\"http://ciae.uchile.cl/download.php?file=noticias/Asentimiento.pdf\" target=\"_blank\">Link a la hoja de información del Consentimiento.</a></p><p style=\"text-align:left; justify-content:space-between; margin-right: 5%; margin-left: 5%;\">Declaro que he leído (o se me ha leído) y (he) comprendido, las condiciones de mi participación en este estudio. He tenido la oportunidad de hacer preguntas y éstas han sido respondidas. No tengo dudas al respecto.</p>","response":0,"condicion_MCQ":9,"condicion_JUEGO":21,"condicion_INTER":21,"numero_participante":69,"numero_version":1,"dimx":1440,"dimy":900,"color_profundidad":24,"pixel_profundidad":24,"Browser":"Apple Safari","dia":9,"mes":5,"hora":11,"minuto":9,"segundo":7,"trial_type":"html-button-response","trial_index":0,"time_elapsed":11130,"internal_node_id":"0.0-0.0"},{"success":true,"trial_type":"fullscreen","trial_index":1,"time_elapsed":239940,"internal_node_id":"0.0-1.0"},{"rt":62390.99999999997,"responses":"{\"Nombres\":\"axel ignacio\",\"Apellidos\":\"nuñez canales\",\"Edad\":\"20\",\"Sexo\":\"hombre\",\"Curso\":\"sección 218\",\"Colegio\":\"una\",\"Contacto\":\"a.nezcanales@uandresbello.edu\"}","trial_type":"survey-text","trial_index":2,"time_elapsed":302483,"internal_node_id":"0.0-2.0"},{"success":true,"timeout":false,"failed_images":[],"failed_audio":[],"failed_video":[],"trial_type":"preload","trial_index":3,"time_elapsed":303636,"internal_node_id":"0.0-3.0"},{"rt":16849.00000000006,"stimulus":"<h1 style:\"margin-top: 5%;\">Ejercicios de Comprensión de Lectura de la Universidad de Chile</h1><p style=\"font-size: 120%;\">En esta actividad, debes responder 24 preguntas de selección múltiple. Cada pregunta presenta 4 respuestas alternativas, pero sólo una de ellas es correcta. Por lo tanto, debes escoger una sola alternativa para cada pregunta. Además, debes reportar qué tan seguro(a) estás de la respuesta que das, con un:</p><ol style=\"font-size: 120%;text-align:left;margin-left: 40%;\"><li>No estoy seguro(a) para nada</li><li>No estoy muy seguro(a)</li><li>Estoy bastante seguro(a)</li><li>Estoy totalmente seguro(a)</li></ol><p style=\"font-size: 120%;\">Por favor lee bien los enunciados antes de responder. ¡Éxito!</p>","response":0,"trial_type":"html-button-response","trial_index":4,"time_elapsed":320487,"internal_node_id":"0.0-4.0"},{"rt":119033,"responses":"{\"pregunta8\":\"b) El ser humano se comporta de acuerdo con las circunstancias.\"}","question_order":"[0]","trial_type":"survey-multi-choice","trial_index":5,"time_elapsed":439532,"internal_node_id":"0.0-5.0-0.0"},{"rt":6540,"response":{"pregunta8 likert":2},"question_order":[0],"trial_type":"survey-likert","trial_index":6,"time_elapsed":446079,"internal_node_id":"0.0-5.0-1.0"},{"rt":118908,"responses":"{\"pregunta4\":\"c) En la literatura como en la vida, todo es metáfora.\"}","question_order":"[0]","trial_type":"survey-multi-choice","trial_index":7,"time_elapsed":564993,"internal_node_id":"0.0-5.0-2.0"},{"rt":2392.9999999998836,"response":{"pregunta4 likert":2},"question_order":[0],"trial_type":"survey-likert","trial_index":8,"time_elapsed":567389,"internal_node_id":"0.0-5.0-3.0"},{"rt":41007,"responses":"{\"pregunta24\":\"c) para el mexicano, la muerte es cotidiana.\"}","question_order":"[0]","trial_type":"survey-multi-choice","trial_index":9,"time_elapsed":608399,"internal_node_id":"0.0-5.0-4.0"},{"rt":2676,"response":{"pregunta24 likert":1},"question_order":[0],"trial_type":"survey-likert","trial_index":10,"time_elapsed":611077,"internal_node_id":"0.0-5.0-5.0"},{"rt":51927,"responses":"{\"pregunta9\":\"b) preparar los recuerdos del mañana.\"}","question_order":"[0]","trial_type":"survey-multi-choice","trial_index":11,"time_elapsed":663044,"internal_node_id":"0.0-5.0-6.0"},{"rt":2195,"response":{"pregunta9 likert":3},"question_order":[0],"trial_type":"survey-likert","trial_index":12,"time_elapsed":665243,"internal_node_id":"0.0-5.0-7.0"},{"rt":87327,"responses":"{\"pregunta20\":\"b) para Aristóteles la virtud estaba en el justo equilibrio.\"}","question_order":"[0]","trial_type":"survey-multi-choice","trial_index":13,"time_elapsed":752578,"internal_node_id":"0.0-5.0-8.0"},{"rt":3180,"response":{"pregunta20 likert":1},"question_order":[0],"trial_type":"survey-likert","trial_index":14,"time_elapsed":755761,"internal_node_id":"0.0-5.0-9.0"},{"rt":46884,"responses":"{\"pregunta13\":\"c) Al premio merecido después de tantos esfuerzos.\"}","question_order":"[0]","trial_type":"survey-multi-choice","trial_index":15,"time_elapsed":802649,"internal_node_id":"0.0-5.0-10.0"},{"rt":2440,"response":{"pregunta13 likert":3},"question_order":[0],"trial_type":"survey-likert","trial_index":16,"time_elapsed":805090,"internal_node_id":"0.0-5.0-11.0"},{"rt":66089,"responses":"{\"pregunta17\":\"b) A la inexistencia de un recinto adecuado para el recital.\"}","question_order":"[0]","trial_type":"survey-multi-choice","trial_index":17,"time_elapsed":871184,"internal_node_id":"0.0-5.0-12.0"},{"rt":2262.9999999998836,"response":{"pregunta17 likert":2},"question_order":[0],"trial_type":"survey-likert","trial_index":18,"time_elapsed":873449,"internal_node_id":"0.0-5.0-13.0"},{"rt":73327,"responses":"{\"pregunta15\":\"c) la creación de elementos químicos es altamente contaminante.\"}","question_order":"[0]","trial_type":"survey-multi-choice","trial_index":19,"time_elapsed":946780,"internal_node_id":"0.0-5.0-14.0"},{"rt":2041,"response":{"pregunta15 likert":1},"question_order":[0],"trial_type":"survey-likert","trial_index":20,"time_elapsed":948823,"internal_node_id":"0.0-5.0-15.0"},{"rt":31080,"responses":"{\"pregunta16\":\"d) Bomberos debería tener acceso a un seguro médico, al que pueda recurrir en caso de accidente.\"}","question_order":"[0]","trial_type":"survey-multi-choice","trial_index":21,"time_elapsed":979906,"internal_node_id":"0.0-5.0-16.0"},{"rt":2083,"response":{"pregunta16 likert":3},"question_order":[0],"trial_type":"survey-likert","trial_index":22,"time_elapsed":981990,"internal_node_id":"0.0-5.0-17.0"},{"rt":64305,"responses":"{\"pregunta11\":\"c) Provocar el deseo de la adquisición vertiginosa.\"}","question_order":"[0]","trial_type":"survey-multi-choice","trial_index":23,"time_elapsed":1046300,"internal_node_id":"0.0-5.0-18.0"},{"rt":2229.9999999998836,"response":{"pregunta11 likert":3},"question_order":[0],"trial_type":"survey-likert","trial_index":24,"time_elapsed":1048532,"internal_node_id":"0.0-5.0-19.0"},{"rt":55330,"responses":"{\"pregunta10\":\"b) ritualistas y obsesivos.\"}","question_order":"[0]","trial_type":"survey-multi-choice","trial_index":25,"time_elapsed":1103866,"internal_node_id":"0.0-5.0-20.0"},{"rt":2308.000000000233,"response":{"pregunta10 likert":3},"question_order":[0],"trial_type":"survey-likert","trial_index":26,"time_elapsed":1106176,"internal_node_id":"0.0-5.0-21.0"},{"rt":61475,"responses":"{\"pregunta2\":\"a) A la relación entre sociedad y constitución social.\"}","question_order":"[0]","trial_type":"survey-multi-choice","trial_index":27,"time_elapsed":1167655,"internal_node_id":"0.0-5.0-22.0"},{"rt":1682,"response":{"pregunta2 likert":1},"question_order":[0],"trial_type":"survey-likert","trial_index":28,"time_elapsed":1169338,"internal_node_id":"0.0-5.0-23.0"},{"rt":52515,"responses":"{\"pregunta23\":\"c) el jardinero estará muerto al día siguiente.\"}","question_order":"[0]","trial_type":"survey-multi-choice","trial_index":29,"time_elapsed":1221857,"internal_node_id":"0.0-5.0-24.0"},{"rt":2283,"response":{"pregunta23 likert":3},"question_order":[0],"trial_type":"survey-likert","trial_index":30,"time_elapsed":1224140,"internal_node_id":"0.0-5.0-25.0"},{"rt":134225.99999999977,"responses":"{\"pregunta18\":\"a) El receptor es habitualmente pasivo frente a la publicidad.\"}","question_order":"[0]","trial_type":"survey-multi-choice","trial_index":31,"time_elapsed":1358372,"internal_node_id":"0.0-5.0-26.0"},{"rt":2638,"response":{"pregunta18 likert":2},"question_order":[0],"trial_type":"survey-likert","trial_index":32,"time_elapsed":1361012,"internal_node_id":"0.0-5.0-27.0"},{"rt":74616,"responses":"{\"pregunta6\":\"c) Presentar positivamente las diversas tendencias del diseño de interiores a través de un comentario.\"}","question_order":"[0]","trial_type":"survey-multi-choice","trial_index":33,"time_elapsed":1435633,"internal_node_id":"0.0-5.0-28.0"},{"rt":2743,"response":{"pregunta6 likert":1},"question_order":[0],"trial_type":"survey-likert","trial_index":34,"time_elapsed":1438377,"internal_node_id":"0.0-5.0-29.0"},{"rt":56799,"responses":"{\"pregunta14\":\"d) el mejor emperador es el que está muerto.\"}","question_order":"[0]","trial_type":"survey-multi-choice","trial_index":35,"time_elapsed":1495181,"internal_node_id":"0.0-5.0-30.0"},{"rt":2683,"response":{"pregunta14 likert":2},"question_order":[0],"trial_type":"survey-likert","trial_index":36,"time_elapsed":1497866,"internal_node_id":"0.0-5.0-31.0"},{"rt":48204,"responses":"{\"pregunta1\":\"b) Enjuician la acción del narrador dentro del relato.\"}","question_order":"[0]","trial_type":"survey-multi-choice","trial_index":37,"time_elapsed":1546081,"internal_node_id":"0.0-5.0-32.0"},{"rt":2510.999999999767,"response":{"pregunta1 likert":1},"question_order":[0],"trial_type":"survey-likert","trial_index":38,"time_elapsed":1548594,"internal_node_id":"0.0-5.0-33.0"},{"rt":25560,"responses":"{\"pregunta21\":\"c) El TLC causará una completa transformación de la economía chilena.\"}","question_order":"[0]","trial_type":"survey-multi-choice","trial_index":39,"time_elapsed":1574158,"internal_node_id":"0.0-5.0-34.0"},{"rt":1933,"response":{"pregunta21 likert":1},"question_order":[0],"trial_type":"survey-likert","trial_index":40,"time_elapsed":1576093,"internal_node_id":"0.0-5.0-35.0"},{"rt":10922.000000000233,"responses":"{\"pregunta12\":\"c) Homenajear a quienes murieron.\"}","question_order":"[0]","trial_type":"survey-multi-choice","trial_index":41,"time_elapsed":1587018,"internal_node_id":"0.0-5.0-36.0"},{"rt":2077,"response":{"pregunta12 likert":2},"question_order":[0],"trial_type":"survey-likert","trial_index":42,"time_elapsed":1589097,"internal_node_id":"0.0-5.0-37.0"},{"rt":33601.00000000023,"responses":"{\"pregunta22\":\"b) Se necesita un marco legal para delimitar lo público y lo privado en materia informativa.\"}","question_order":"[0]","trial_type":"survey-multi-choice","trial_index":43,"time_elapsed":1622702,"internal_node_id":"0.0-5.0-38.0"},{"rt":2290,"response":{"pregunta22 likert":2},"question_order":[0],"trial_type":"survey-likert","trial_index":44,"time_elapsed":1624995,"internal_node_id":"0.0-5.0-39.0"},{"rt":36197,"responses":"{\"pregunta5\":\"b) La escritura plasma los mejores momentos de los viajes.\"}","question_order":"[0]","trial_type":"survey-multi-choice","trial_index":45,"time_elapsed":1661196,"internal_node_id":"0.0-5.0-40.0"},{"rt":1495,"response":{"pregunta5 likert":1},"question_order":[0],"trial_type":"survey-likert","trial_index":46,"time_elapsed":1662692,"internal_node_id":"0.0-5.0-41.0"},{"rt":34348,"responses":"{\"pregunta3\":\"a) El origen de las grandes civilizaciones.\"}","question_order":"[0]","trial_type":"survey-multi-choice","trial_index":47,"time_elapsed":1697045,"internal_node_id":"0.0-5.0-42.0"},{"rt":1714,"response":{"pregunta3 likert":1},"question_order":[0],"trial_type":"survey-likert","trial_index":48,"time_elapsed":1698761,"internal_node_id":"0.0-5.0-43.0"},{"rt":34716.99999999977,"responses":"{\"pregunta7\":\"c) es una noción que obedece a una visión pesimista de la vida.\"}","question_order":"[0]","trial_type":"survey-multi-choice","trial_index":49,"time_elapsed":1733480,"internal_node_id":"0.0-5.0-44.0"},{"rt":1762.0000000002328,"response":{"pregunta7 likert":0},"question_order":[0],"trial_type":"survey-likert","trial_index":50,"time_elapsed":1735245,"internal_node_id":"0.0-5.0-45.0"},{"rt":71421.00000000023,"responses":"{\"pregunta19\":\"d) llevan un control grupal de su embarazo.\"}","question_order":"[0]","trial_type":"survey-multi-choice","trial_index":51,"time_elapsed":1806670,"internal_node_id":"0.0-5.0-46.0"},{"rt":2113.000000000233,"response":{"pregunta19 likert":2},"question_order":[0],"trial_type":"survey-likert","trial_index":52,"time_elapsed":1808785,"internal_node_id":"0.0-5.0-47.0"},{"rt":3135,"stimulus":"<p style=\"font-size: 120%\">Gracias por completar esta etapa del estudio. Ahora te invitamos a responder el cuestionario.<br><br></p>","response":0,"trial_type":"html-button-response","trial_index":53,"time_elapsed":1811925,"internal_node_id":"0.0-6.0"},{"rt":2881,"stimulus":"<h1 style=\"margin-top: 5%\">Cuestionario para la Evaluación de Metas Académicas</h1><p style=\"font-size: 120%; margin-left: 3%; margin-top: 5%\">Este es un cuestionario que permite conocer cuáles son los principales motivos por los que los estudiantes se esfuerzan en su trabajo académico. A continuación, se te presentarán una serie de afirmaciones acerca de los motivos que puedes tener para estudiar.<br>Te pedimos que contestes a dichas afirmaciones reflexionando sobre el contenido de cada una de ellas, que, aunque te parezcan semejantes, en realidad, no lo son.<br>NO HAY RESPUESTAS CORRECTAS o INCORRECTAS, sólo queremos que respondas con la mayor precisión y sinceridad posible a las preguntas que se plantean.","response":0,"trial_type":"html-button-response","trial_index":54,"time_elapsed":1814809,"internal_node_id":"0.0-7.0"},{"rt":89786.99999999977,"response":{"Metas cuestionario pregunta1":3,"Metas cuestionario pregunta2":4,"Metas cuestionario pregunta3":2,"Metas cuestionario pregunta4":2,"Metas cuestionario pregunta5":4,"Metas cuestionario pregunta6":3,"Metas cuestionario pregunta7":4,"Metas cuestionario pregunta8":4,"Metas cuestionario pregunta9":0,"Metas cuestionario pregunta10":1,"Metas cuestionario pregunta11":3,"Metas cuestionario pregunta12":1,"Metas cuestionario pregunta13":3,"Metas cuestionario pregunta14":1,"Metas cuestionario pregunta15":4,"Metas cuestionario pregunta16":4,"Metas cuestionario pregunta17":4,"Metas cuestionario pregunta18":4,"Metas cuestionario pregunta19":4,"Metas cuestionario pregunta20":4},"question_order":[0,1,2,3,4,5,6,7,8,9,10,11,12,13,14,15,16,17,18,19],"trial_type":"survey-likert","trial_index":55,"time_elapsed":1904606,"internal_node_id":"0.0-8.0"},{"rt":3121.000000000233,"stimulus":"<p style=\"font-size: 120%\">Gracias por responder el cuestionario. Ahora te invitamos a seguir con el juego, que es muy breve.<br><br></p>","response":0,"trial_type":"html-button-response","trial_index":56,"time_elapsed":1907729,"internal_node_id":"0.0-9.0"},{"rt":5277,"stimulus":"<h1>Juego</h1><p style=\"font-size: 120%;\">A continuación se te presentarán 16 pequeñas historias.<br>Por favor lee el texto presentado en cada una de ellas y luego haz click en el objeto de tu elección.<br>Si estás listo(a),<span style=\"color:red;\"> haz click en \"comenzar\"</span>.</p>","response":0,"trial_type":"html-button-response","trial_index":57,"time_elapsed":1913007,"internal_node_id":"0.0-10.0"},{"rt":13608,"grid":[[1,1,1,1]],"target":[0,0],"response":[0,0],"correct":true,"juego":11,"trial_type":"serial-reaction-time-mouse","trial_index":58,"time_elapsed":1926618,"internal_node_id":"0.0-11.0-0.0"},{"rt":10498,"grid":[[1,1,1,1]],"target":[0,0],"response":[0,2],"correct":false,"juego":7,"trial_type":"serial-reaction-time-mouse","trial_index":59,"time_elapsed":1937118,"internal_node_id":"0.0-11.0-1.0"},{"rt":5234,"grid":[[1,1,1,1]],"target":[0,0],"response":[0,1],"correct":false,"juego":2,"trial_type":"serial-reaction-time-mouse","trial_index":60,"time_elapsed":1942357,"internal_node_id":"0.0-11.0-2.0"},{"rt":10918,"grid":[[1],[1],[1],[1]],"target":[0,0],"response":[0,0],"correct":true,"juego":4,"trial_type":"serial-reaction-time-mouse","trial_index":61,"time_elapsed":1953276,"internal_node_id":"0.0-11.0-3.0"},{"rt":11086,"grid":[[1,1,1,1]],"target":[0,0],"response":[0,2],"correct":false,"juego":3,"trial_type":"serial-reaction-time-mouse","trial_index":62,"time_elapsed":1964365,"internal_node_id":"0.0-11.0-4.0"},{"rt":10798,"grid":[[1,1,1,1],[1,1,1,1],[1,1,1,1],[1,1,1,1],[1,1,1,1],[1,1,1,1],[1,1,1,1],[1,1,1,1],[1,1,1,1]],"target":[0,0],"response":[7,2],"correct":false,"juego":15,"trial_type":"serial-reaction-time-mouse","trial_index":63,"time_elapsed":1975166,"internal_node_id":"0.0-11.0-5.0"},{"rt":10698.000000000233,"grid":[[1,1,1],[1,1,1],[1,1,1],[1,1,1],[1,1,1],[1,1,1],[1,1,1],[1,1,1],[1,1,1]],"target":[0,0],"response":[1,0],"correct":false,"juego":10,"trial_type":"serial-reaction-time-mouse","trial_index":64,"time_elapsed":1985867,"internal_node_id":"0.0-11.0-6.0"},{"rt":18204,"grid":[[1,1,1,1],[1,1,1,1],[1,1,1,1],[1,1,1,1],[1,1,1,1],[1,1,1,1],[1,1,1,1],[1,1,1,1],[1,1,1,1]],"target":[0,0],"response":[1,2],"correct":false,"juego":14,"trial_type":"serial-reaction-time-mouse","trial_index":65,"time_elapsed":2004075,"internal_node_id":"0.0-11.0-7.0"},{"rt":12768.000000000233,"grid":[[1,1,1],[1,1,1],[1,1,1],[1,1,1],[1,1,1],[1,1,1],[1,1,1],[1,1,1],[1,1,1]],"target":[0,0],"response":[7,1],"correct":false,"juego":13,"trial_type":"serial-reaction-time-mouse","trial_index":66,"time_elapsed":2016848,"internal_node_id":"0.0-11.0-8.0"},{"rt":10241,"grid":[[1,1,1,1]],"target":[0,0],"response":[0,0],"correct":true,"juego":12,"trial_type":"serial-reaction-time-mouse","trial_index":67,"time_elapsed":2027091,"internal_node_id":"0.0-11.0-9.0"},{"rt":12283,"grid":[[1,1,1,1]],"target":[0,0],"response":[0,3],"correct":false,"juego":9,"trial_type":"serial-reaction-time-mouse","trial_index":68,"time_elapsed":2039376,"internal_node_id":"0.0-11.0-10.0"},{"rt":7579.999999999767,"grid":[[1,1,1,1]],"target":[0,0],"response":[0,0],"correct":true,"juego":8,"trial_type":"serial-reaction-time-mouse","trial_index":69,"time_elapsed":2046957,"internal_node_id":"0.0-11.0-11.0"},{"rt":3439,"grid":[[1,1,1,1]],"target":[0,0],"response":[0,1],"correct":false,"juego":1,"trial_type":"serial-reaction-time-mouse","trial_index":70,"time_elapsed":2050397,"internal_node_id":"0.0-11.0-12.0"},{"rt":8078.999999999534,"grid":[[1,1,1],[1,1,1],[1,1,1],[1,1,1],[1,1,1],[1,1,1],[1,1,1],[1,1,1],[1,1,1]],"target":[0,0],"response":[1,1],"correct":false,"juego":5,"trial_type":"serial-reaction-time-mouse","trial_index":71,"time_elapsed":2058477,"internal_node_id":"0.0-11.0-13.0"},{"rt":4339.999999999767,"grid":[[1,1,1],[1,1,1],[1,1,1],[1,1,1],[1,1,1],[1,1,1],[1,1,1],[1,1,1],[1,1,1]],"target":[0,0],"response":[3,1],"correct":false,"juego":6,"trial_type":"serial-reaction-time-mouse","trial_index":72,"time_elapsed":2062822,"internal_node_id":"0.0-11.0-14.0"},{"rt":3405.000000000233,"stimulus":"<h1>Último juego</h1><p style=\"font-size: 130%;\">Tienes <span style=\"color:red\">25</span> segundos para recordar los pares de palabras que aparecerán a continuación. <br></p>","response":0,"trial_type":"html-button-response","trial_index":73,"time_elapsed":2066230,"internal_node_id":"0.0-12.0"},{"animation_sequence":[{"stimulus":"imagen_juego_interferencia.jpg","time":521.0000000002328},{"stimulus":"imagen_juego_interferencia.jpg","time":1010.0000000002328},{"stimulus":"imagen_juego_interferencia.jpg","time":1513},{"stimulus":"imagen_juego_interferencia.jpg","time":2013},{"stimulus":"imagen_juego_interferencia.jpg","time":2514.000000000233},{"stimulus":"imagen_juego_interferencia.jpg","time":3014.999999999767},{"stimulus":"imagen_juego_interferencia.jpg","time":3516},{"stimulus":"imagen_juego_interferencia.jpg","time":4018},{"stimulus":"imagen_juego_interferencia.jpg","time":4519.000000000233},{"stimulus":"imagen_juego_interferencia.jpg","time":5020},{"stimulus":"imagen_juego_interferencia.jpg","time":5521.000000000233},{"stimulus":"imagen_juego_interferencia.jpg","time":6022},{"stimulus":"imagen_juego_interferencia.jpg","time":6524},{"stimulus":"imagen_juego_interferencia.jpg","time":7024},{"stimulus":"imagen_juego_interferencia.jpg","time":7525.999999999767},{"stimulus":"imagen_juego_interferencia.jpg","time":8027},{"stimulus":"imagen_juego_interferencia.jpg","time":8528.000000000233},{"stimulus":"imagen_juego_interferencia.jpg","time":9029},{"stimulus":"imagen_juego_interferencia.jpg","time":9530.000000000233},{"stimulus":"imagen_juego_interferencia.jpg","time":10032.000000000233},{"stimulus":"imagen_juego_interferencia.jpg","time":10534},{"stimulus":"imagen_juego_interferencia.jpg","time":11034},{"stimulus":"imagen_juego_interferencia.jpg","time":11534.999999999767},{"stimulus":"imagen_juego_interferencia.jpg","time":12037.000000000233},{"stimulus":"imagen_juego_interferencia.jpg","time":12538},{"stimulus":"imagen_juego_interferencia.jpg","time":13039.000000000233},{"stimulus":"imagen_juego_interferencia.jpg","time":13540},{"stimulus":"imagen_juego_interferencia.jpg","time":14042},{"stimulus":"imagen_juego_interferencia.jpg","time":14543.000000000233},{"stimulus":"imagen_juego_interferencia.jpg","time":15043.999999999767},{"stimulus":"imagen_juego_interferencia.jpg","time":15545},{"stimulus":"imagen_juego_interferencia.jpg","time":16047},{"stimulus":"imagen_juego_interferencia.jpg","time":16548.000000000233},{"stimulus":"imagen_juego_interferencia.jpg","time":17049},{"stimulus":"imagen_juego_interferencia.jpg","time":17549},{"stimulus":"imagen_juego_interferencia.jpg","time":18050.000000000233},{"stimulus":"imagen_juego_interferencia.jpg","time":18552.000000000233},{"stimulus":"imagen_juego_interferencia.jpg","time":19053},{"stimulus":"imagen_juego_interferencia.jpg","time":19554},{"stimulus":"imagen_juego_interferencia.jpg","time":20054.999999999767},{"stimulus":"imagen_juego_interferencia.jpg","time":20557.000000000233},{"stimulus":"imagen_juego_interferencia.jpg","time":21058},{"stimulus":"imagen_juego_interferencia.jpg","time":21559.000000000233},{"stimulus":"imagen_juego_interferencia.jpg","time":22060},{"stimulus":"imagen_juego_interferencia.jpg","time":22561.000000000233},{"stimulus":"imagen_juego_interferencia.jpg","time":23063},{"stimulus":"imagen_juego_interferencia.jpg","time":23563.999999999767},{"stimulus":"imagen_juego_interferencia.jpg","time":24065},{"stimulus":"imagen_juego_interferencia.jpg","time":24566.000000000233},{"stimulus":"imagen_juego_interferencia.jpg","time":25068.000000000233}],"response":[],"trial_type":"animation","trial_index":74,"time_elapsed":2091800,"internal_node_id":"0.0-13.0"},{"rt":8854,"responses":"{\"pregunta interferencia3\":\"aluminio\"}","question_order":"[0]","trial_type":"survey-multi-choice-cuest","trial_index":75,"time_elapsed":2100657,"internal_node_id":"0.0-14.0-0.0"},{"rt":14251,"responses":"{\"pregunta interferencia2\":\"saltamontes\"}","question_order":"[0]","trial_type":"survey-multi-choice-cuest","trial_index":76,"time_elapsed":2114911,"internal_node_id":"0.0-14.0-1.0"},{"rt":3911,"responses":"{\"pregunta interferencia4\":\"contador\"}","question_order":"[0]","trial_type":"survey-multi-choice-cuest","trial_index":77,"time_elapsed":2118824,"internal_node_id":"0.0-14.0-2.0"},{"rt":8251.000000000466,"responses":"{\"pregunta interferencia1\":\"naranja\"}","question_order":"[0]","trial_type":"survey-multi-choice-cuest","trial_index":78,"time_elapsed":2127077,"internal_node_id":"0.0-14.0-3.0"},{"success":true,"trial_type":"fullscreen","trial_index":79,"time_elapsed":2128081,"internal_node_id":"0.0-15.0"}]