[{"rt":64655.699999999255,"stimulus":"<h1 style=\"color:red; margin-top: 3%;\">¡Bienvenido(a)!</h1><p style=\"text-align:left; justify-content:space-between; margin-right: 5%; margin-left: 5%; margin-top: 5%\"> Antes de empezar el estudio, necesitamos que nos confirmes que estás de acuerdo con participar. Recuerda que tu participación es 100% voluntaria y que lo único que te pedimos es responder lo mejor que puedas. Recuerda también que el estudio incluye:</p><ol style=\"text-align:left; justify-content:space-between; margin-right: 5%; margin-left: 5%;\"><li> un ejercicio de resolución de preguntas de selección múltiple (30’),</li><li>un cuestionario breve (5’),</li><li>un juego muy breve (3’),</li></ol><p style=\"text-align:left; justify-content:space-between; margin-right: 5%; margin-left: 5%;\">Si quieres participar, haz clic en “Acepto” luego de leer lo siguiente:<br></p><p style=\"text-align:left; justify-content:space-between; margin-right: 5%; margin-left: 5%;\">Acepto participar en el estudio “Estrategias de lectura y resolución de preguntas de selección múltiple”, en los términos aquí señalados:<br></p><p style=\"text-align:left; justify-content:space-between; margin-right: 5%; margin-left: 5%;\"><a href=\"http://ciae.uchile.cl/download.php?file=noticias/Asentimiento.pdf\" target=\"_blank\">Link a la hoja de información del Consentimiento.</a></p><p style=\"text-align:left; justify-content:space-between; margin-right: 5%; margin-left: 5%;\">Declaro que he leído (o se me ha leído) y (he) comprendido, las condiciones de mi participación en este estudio. He tenido la oportunidad de hacer preguntas y éstas han sido respondidas. No tengo dudas al respecto.</p>","response":0,"condicion_MCQ":11,"condicion_JUEGO":23,"condicion_INTER":23,"numero_participante":47,"numero_version":1,"dimx":1440,"dimy":900,"color_profundidad":24,"pixel_profundidad":24,"Browser":"Google Chrome","dia":4,"mes":5,"hora":20,"minuto":37,"segundo":34,"trial_type":"html-button-response","trial_index":0,"time_elapsed":64661,"internal_node_id":"0.0-0.0"},{"success":true,"trial_type":"fullscreen","trial_index":1,"time_elapsed":67015,"internal_node_id":"0.0-1.0"},{"rt":74981.5,"responses":"{\"Nombres\":\"Amanda Valentina\",\"Apellidos\":\"Cruces Polić\",\"Edad\":\"19\",\"Sexo\":\"mujer\",\"Curso\":\"primer semestre\",\"Colegio\":\"Universidad Andrés Bello\",\"Contacto\":\"a.crucespolic@uandresbello.edu\"}","trial_type":"survey-text","trial_index":2,"time_elapsed":142034,"internal_node_id":"0.0-2.0"},{"success":true,"timeout":false,"failed_images":[],"failed_audio":[],"failed_video":[],"trial_type":"preload","trial_index":3,"time_elapsed":143392,"internal_node_id":"0.0-3.0"},{"rt":4994.5,"stimulus":"<h1 style:\"margin-top: 5%;\">Ejercicios de Comprensión de Lectura de la Universidad de Chile</h1><p style=\"font-size: 120%;\">En esta actividad, debes responder 24 preguntas de selección múltiple. Cada pregunta presenta 4 respuestas alternativas, pero sólo una de ellas es correcta. Por lo tanto, debes escoger una sola alternativa para cada pregunta. Además, debes reportar qué tan seguro(a) estás de la respuesta que das, con un:</p><ol style=\"font-size: 120%;text-align:left;margin-left: 40%;\"><li>No estoy seguro(a) para nada</li><li>No estoy muy seguro(a)</li><li>Estoy bastante seguro(a)</li><li>Estoy totalmente seguro(a)</li></ol><p style=\"font-size: 120%;\">Por favor lee bien los enunciados antes de responder. ¡Éxito!</p>","response":0,"trial_type":"html-button-response","trial_index":4,"time_elapsed":148389,"internal_node_id":"0.0-4.0"},{"rt":55132.39999999851,"responses":"{\"pregunta4\":\"a) En la literatura como en la vida, lo importante son las preguntas.\"}","question_order":"[0]","trial_type":"survey-multi-choice","trial_index":5,"time_elapsed":203526,"internal_node_id":"0.0-5.0-0.0"},{"rt":3915.199999999255,"response":{"pregunta4 likert":1},"question_order":[0],"trial_type":"survey-likert","trial_index":6,"time_elapsed":207445,"internal_node_id":"0.0-5.0-1.0"},{"rt":36514.900000002235,"responses":"{\"pregunta13\":\"d) Al premio merecido después de tantos esfuerzos.\"}","question_order":"[0]","trial_type":"survey-multi-choice","trial_index":7,"time_elapsed":243963,"internal_node_id":"0.0-5.0-2.0"},{"rt":1865,"response":{"pregunta13 likert":3},"question_order":[0],"trial_type":"survey-likert","trial_index":8,"time_elapsed":245830,"internal_node_id":"0.0-5.0-3.0"},{"rt":87113.5,"responses":"{\"pregunta6\":\"c) Criticar la mezcla de estilos que se puede observar en la muestra que exhibe Casa Mater.\"}","question_order":"[0]","trial_type":"survey-multi-choice","trial_index":9,"time_elapsed":332949,"internal_node_id":"0.0-5.0-4.0"},{"rt":2576.800000000745,"response":{"pregunta6 likert":2},"question_order":[0],"trial_type":"survey-likert","trial_index":10,"time_elapsed":335529,"internal_node_id":"0.0-5.0-5.0"},{"rt":19143.300000000745,"responses":"{\"pregunta8\":\"b) El ser humano se comporta de acuerdo con las circunstancias.\"}","question_order":"[0]","trial_type":"survey-multi-choice","trial_index":11,"time_elapsed":354676,"internal_node_id":"0.0-5.0-6.0"},{"rt":2107.39999999851,"response":{"pregunta8 likert":3},"question_order":[0],"trial_type":"survey-likert","trial_index":12,"time_elapsed":356786,"internal_node_id":"0.0-5.0-7.0"},{"rt":32421,"responses":"{\"pregunta17\":\"d) A la inexistencia de un recinto adecuado para el recital.\"}","question_order":"[0]","trial_type":"survey-multi-choice","trial_index":13,"time_elapsed":389211,"internal_node_id":"0.0-5.0-8.0"},{"rt":2144.300000000745,"response":{"pregunta17 likert":2},"question_order":[0],"trial_type":"survey-likert","trial_index":14,"time_elapsed":391358,"internal_node_id":"0.0-5.0-9.0"},{"rt":25640.199999999255,"responses":"{\"pregunta2\":\"b) A la relación entre hechos capitales y parámetros del pensamiento.\"}","question_order":"[0]","trial_type":"survey-multi-choice","trial_index":15,"time_elapsed":417002,"internal_node_id":"0.0-5.0-10.0"},{"rt":1587.5,"response":{"pregunta2 likert":2},"question_order":[0],"trial_type":"survey-likert","trial_index":16,"time_elapsed":418592,"internal_node_id":"0.0-5.0-11.0"},{"rt":33643.39999999851,"responses":"{\"pregunta9\":\"d) la persistencia de la melancolía y la desesperanza.\"}","question_order":"[0]","trial_type":"survey-multi-choice","trial_index":17,"time_elapsed":452239,"internal_node_id":"0.0-5.0-12.0"},{"rt":1747.5999999977648,"response":{"pregunta9 likert":3},"question_order":[0],"trial_type":"survey-likert","trial_index":18,"time_elapsed":453989,"internal_node_id":"0.0-5.0-13.0"},{"rt":23324.300000000745,"responses":"{\"pregunta3\":\"d) Las grandes civilizaciones autóctonas.\"}","question_order":"[0]","trial_type":"survey-multi-choice","trial_index":19,"time_elapsed":477317,"internal_node_id":"0.0-5.0-14.0"},{"rt":1700.3999999985099,"response":{"pregunta3 likert":3},"question_order":[0],"trial_type":"survey-likert","trial_index":20,"time_elapsed":479019,"internal_node_id":"0.0-5.0-15.0"},{"rt":28989.800000000745,"responses":"{\"pregunta5\":\"a) Los momentos triviales de los viajes, en la escritura se vuelven significativos.\"}","question_order":"[0]","trial_type":"survey-multi-choice","trial_index":21,"time_elapsed":508012,"internal_node_id":"0.0-5.0-16.0"},{"rt":2024.800000000745,"response":{"pregunta5 likert":3},"question_order":[0],"trial_type":"survey-likert","trial_index":22,"time_elapsed":510040,"internal_node_id":"0.0-5.0-17.0"},{"rt":36314,"responses":"{\"pregunta1\":\"d) Aportan informaciones con las que se reconstruye el personaje dentro de un relato.\"}","question_order":"[0]","trial_type":"survey-multi-choice","trial_index":23,"time_elapsed":546357,"internal_node_id":"0.0-5.0-18.0"},{"rt":2240.89999999851,"response":{"pregunta1 likert":2},"question_order":[0],"trial_type":"survey-likert","trial_index":24,"time_elapsed":548601,"internal_node_id":"0.0-5.0-19.0"},{"rt":26063.800000000745,"responses":"{\"pregunta10\":\"c) ritualistas y obsesivos.\"}","question_order":"[0]","trial_type":"survey-multi-choice","trial_index":25,"time_elapsed":574668,"internal_node_id":"0.0-5.0-20.0"},{"rt":1856.2999999970198,"response":{"pregunta10 likert":2},"question_order":[0],"trial_type":"survey-likert","trial_index":26,"time_elapsed":576527,"internal_node_id":"0.0-5.0-21.0"},{"rt":39154.400000002235,"responses":"{\"pregunta14\":\"d) el mejor emperador es el que está muerto.\"}","question_order":"[0]","trial_type":"survey-multi-choice","trial_index":27,"time_elapsed":615684,"internal_node_id":"0.0-5.0-22.0"},{"rt":2854,"response":{"pregunta14 likert":3},"question_order":[0],"trial_type":"survey-likert","trial_index":28,"time_elapsed":618541,"internal_node_id":"0.0-5.0-23.0"},{"rt":91805.60000000149,"responses":"{\"pregunta18\":\"b) El receptor es habitualmente pasivo frente a la publicidad.\"}","question_order":"[0]","trial_type":"survey-multi-choice","trial_index":29,"time_elapsed":710352,"internal_node_id":"0.0-5.0-24.0"},{"rt":6983.60000000149,"response":{"pregunta18 likert":2},"question_order":[0],"trial_type":"survey-likert","trial_index":30,"time_elapsed":717338,"internal_node_id":"0.0-5.0-25.0"},{"rt":28447.60000000149,"responses":"{\"pregunta22\":\"c) Se necesita un marco legal para delimitar lo público y lo privado en materia informativa.\"}","question_order":"[0]","trial_type":"survey-multi-choice","trial_index":31,"time_elapsed":745790,"internal_node_id":"0.0-5.0-26.0"},{"rt":2340.5,"response":{"pregunta22 likert":3},"question_order":[0],"trial_type":"survey-likert","trial_index":32,"time_elapsed":748133,"internal_node_id":"0.0-5.0-27.0"},{"rt":58571.10000000149,"responses":"{\"pregunta16\":\"b) Se debe crear un seguro médico especial para esta institución, pues es de alto riesgo.\"}","question_order":"[0]","trial_type":"survey-multi-choice","trial_index":33,"time_elapsed":806708,"internal_node_id":"0.0-5.0-28.0"},{"rt":2130.599999997765,"response":{"pregunta16 likert":3},"question_order":[0],"trial_type":"survey-likert","trial_index":34,"time_elapsed":808840,"internal_node_id":"0.0-5.0-29.0"},{"rt":66399.40000000224,"responses":"{\"pregunta21\":\"b) El TLC puede traer más dificultades que progresos.\"}","question_order":"[0]","trial_type":"survey-multi-choice","trial_index":35,"time_elapsed":875244,"internal_node_id":"0.0-5.0-30.0"},{"rt":2172.89999999851,"response":{"pregunta21 likert":2},"question_order":[0],"trial_type":"survey-likert","trial_index":36,"time_elapsed":877420,"internal_node_id":"0.0-5.0-31.0"},{"rt":20543.300000000745,"responses":"{\"pregunta15\":\"a) el uranio es el elemento natural con el mayor número de protones en el núcleo.\"}","question_order":"[0]","trial_type":"survey-multi-choice","trial_index":37,"time_elapsed":897966,"internal_node_id":"0.0-5.0-32.0"},{"rt":1948.300000000745,"response":{"pregunta15 likert":3},"question_order":[0],"trial_type":"survey-likert","trial_index":38,"time_elapsed":899917,"internal_node_id":"0.0-5.0-33.0"},{"rt":3334.60000000149,"responses":"{\"pregunta7\":\"a) es un concepto introducido en la cultura por Platón.\"}","question_order":"[0]","trial_type":"survey-multi-choice","trial_index":39,"time_elapsed":903254,"internal_node_id":"0.0-5.0-34.0"},{"rt":1423.800000000745,"response":{"pregunta7 likert":1},"question_order":[0],"trial_type":"survey-likert","trial_index":40,"time_elapsed":904680,"internal_node_id":"0.0-5.0-35.0"},{"rt":45735.699999999255,"responses":"{\"pregunta23\":\"c) el jardinero estará muerto al día siguiente.\"}","question_order":"[0]","trial_type":"survey-multi-choice","trial_index":41,"time_elapsed":950427,"internal_node_id":"0.0-5.0-36.0"},{"rt":2318.599999997765,"response":{"pregunta23 likert":1},"question_order":[0],"trial_type":"survey-likert","trial_index":42,"time_elapsed":952748,"internal_node_id":"0.0-5.0-37.0"},{"rt":9475.29999999702,"responses":"{\"pregunta11\":\"b) Poner en escena objetos y servicios.\"}","question_order":"[0]","trial_type":"survey-multi-choice","trial_index":43,"time_elapsed":962226,"internal_node_id":"0.0-5.0-38.0"},{"rt":2562.800000000745,"response":{"pregunta11 likert":3},"question_order":[0],"trial_type":"survey-likert","trial_index":44,"time_elapsed":964791,"internal_node_id":"0.0-5.0-39.0"},{"rt":8218,"responses":"{\"pregunta12\":\"a) Atraer a los turistas.\"}","question_order":"[0]","trial_type":"survey-multi-choice","trial_index":45,"time_elapsed":973013,"internal_node_id":"0.0-5.0-40.0"},{"rt":2525.400000002235,"response":{"pregunta12 likert":2},"question_order":[0],"trial_type":"survey-likert","trial_index":46,"time_elapsed":975541,"internal_node_id":"0.0-5.0-41.0"},{"rt":30359.39999999851,"responses":"{\"pregunta19\":\"c) llevan un control grupal de su embarazo.\"}","question_order":"[0]","trial_type":"survey-multi-choice","trial_index":47,"time_elapsed":1005904,"internal_node_id":"0.0-5.0-42.0"},{"rt":1528.800000000745,"response":{"pregunta19 likert":3},"question_order":[0],"trial_type":"survey-likert","trial_index":48,"time_elapsed":1007436,"internal_node_id":"0.0-5.0-43.0"},{"rt":13054.099999997765,"responses":"{\"pregunta20\":\"b) para Aristóteles la virtud estaba en el justo equilibrio.\"}","question_order":"[0]","trial_type":"survey-multi-choice","trial_index":49,"time_elapsed":1020492,"internal_node_id":"0.0-5.0-44.0"},{"rt":1592.2999999970198,"response":{"pregunta20 likert":1},"question_order":[0],"trial_type":"survey-likert","trial_index":50,"time_elapsed":1022087,"internal_node_id":"0.0-5.0-45.0"},{"rt":22182.800000000745,"responses":"{\"pregunta24\":\"d) para el mexicano, la muerte es cotidiana.\"}","question_order":"[0]","trial_type":"survey-multi-choice","trial_index":51,"time_elapsed":1044273,"internal_node_id":"0.0-5.0-46.0"},{"rt":1512.199999999255,"response":{"pregunta24 likert":3},"question_order":[0],"trial_type":"survey-likert","trial_index":52,"time_elapsed":1045788,"internal_node_id":"0.0-5.0-47.0"},{"rt":1592.800000000745,"stimulus":"<p style=\"font-size: 120%\">Gracias por completar esta etapa del estudio. Ahora te invitamos a responder el cuestionario.<br><br></p>","response":0,"trial_type":"html-button-response","trial_index":53,"time_elapsed":1047390,"internal_node_id":"0.0-6.0"},{"rt":1652.0999999977648,"stimulus":"<h1 style=\"margin-top: 5%\">Cuestionario para la Evaluación de Metas Académicas</h1><p style=\"font-size: 120%; margin-left: 3%; margin-top: 5%\">Este es un cuestionario que permite conocer cuáles son los principales motivos por los que los estudiantes se esfuerzan en su trabajo académico. A continuación, se te presentarán una serie de afirmaciones acerca de los motivos que puedes tener para estudiar.<br>Te pedimos que contestes a dichas afirmaciones reflexionando sobre el contenido de cada una de ellas, que, aunque te parezcan semejantes, en realidad, no lo son.<br>NO HAY RESPUESTAS CORRECTAS o INCORRECTAS, sólo queremos que respondas con la mayor precisión y sinceridad posible a las preguntas que se plantean.","response":0,"trial_type":"html-button-response","trial_index":54,"time_elapsed":1049045,"internal_node_id":"0.0-7.0"},{"rt":93926.90000000224,"response":{"Metas cuestionario pregunta1":2,"Metas cuestionario pregunta2":4,"Metas cuestionario pregunta3":2,"Metas cuestionario pregunta4":0,"Metas cuestionario pregunta5":2,"Metas cuestionario pregunta6":3,"Metas cuestionario pregunta7":2,"Metas cuestionario pregunta8":2,"Metas cuestionario pregunta9":1,"Metas cuestionario pregunta10":0,"Metas cuestionario pregunta11":0,"Metas cuestionario pregunta12":2,"Metas cuestionario pregunta13":1,"Metas cuestionario pregunta14":0,"Metas cuestionario pregunta15":4,"Metas cuestionario pregunta16":4,"Metas cuestionario pregunta17":4,"Metas cuestionario pregunta18":4,"Metas cuestionario pregunta19":4,"Metas cuestionario pregunta20":3},"question_order":[0,1,2,3,4,5,6,7,8,9,10,11,12,13,14,15,16,17,18,19],"trial_type":"survey-likert","trial_index":55,"time_elapsed":1142985,"internal_node_id":"0.0-8.0"},{"rt":1398.5,"stimulus":"<p style=\"font-size: 120%\">Gracias por responder el cuestionario. Ahora te invitamos a seguir con el juego, que es muy breve.<br><br></p>","response":0,"trial_type":"html-button-response","trial_index":56,"time_elapsed":1144388,"internal_node_id":"0.0-9.0"},{"rt":1403.4000000022352,"stimulus":"<h1>Juego</h1><p style=\"font-size: 120%;\">A continuación se te presentarán 16 pequeñas historias.<br>Por favor lee el texto presentado en cada una de ellas y luego haz click en el objeto de tu elección.<br>Si estás listo(a),<span style=\"color:red;\"> haz click en \"comenzar\"</span>.</p>","response":0,"trial_type":"html-button-response","trial_index":57,"time_elapsed":1145794,"internal_node_id":"0.0-10.0"},{"rt":10420.599999997765,"grid":[[1,1,1,1]],"target":[0,0],"response":[0,1],"correct":false,"juego":11,"trial_type":"serial-reaction-time-mouse","trial_index":58,"time_elapsed":1156218,"internal_node_id":"0.0-11.0-0.0"},{"rt":2180.800000000745,"grid":[[1,1,1,1]],"target":[0,0],"response":[0,2],"correct":false,"juego":8,"trial_type":"serial-reaction-time-mouse","trial_index":59,"time_elapsed":1158401,"internal_node_id":"0.0-11.0-1.0"},{"rt":1093.7999999970198,"grid":[[1,1,1],[1,1,1],[1,1,1],[1,1,1],[1,1,1],[1,1,1],[1,1,1],[1,1,1],[1,1,1]],"target":[0,0],"response":[1,1],"correct":false,"juego":5,"trial_type":"serial-reaction-time-mouse","trial_index":60,"time_elapsed":1159499,"internal_node_id":"0.0-11.0-2.0"},{"rt":2313.199999999255,"grid":[[1,1,1,1]],"target":[0,0],"response":[0,2],"correct":false,"juego":3,"trial_type":"serial-reaction-time-mouse","trial_index":61,"time_elapsed":1161815,"internal_node_id":"0.0-11.0-3.0"},{"rt":5580.699999999255,"grid":[[1,1,1],[1,1,1],[1,1,1],[1,1,1],[1,1,1],[1,1,1],[1,1,1],[1,1,1],[1,1,1]],"target":[0,0],"response":[3,1],"correct":false,"juego":13,"trial_type":"serial-reaction-time-mouse","trial_index":62,"time_elapsed":1167400,"internal_node_id":"0.0-11.0-4.0"},{"rt":3749.900000002235,"grid":[[1,1,1,1]],"target":[0,0],"response":[0,1],"correct":false,"juego":2,"trial_type":"serial-reaction-time-mouse","trial_index":63,"time_elapsed":1171152,"internal_node_id":"0.0-11.0-5.0"},{"rt":1904.699999999255,"grid":[[1,1,1,1]],"target":[0,0],"response":[0,1],"correct":false,"juego":7,"trial_type":"serial-reaction-time-mouse","trial_index":64,"time_elapsed":1173058,"internal_node_id":"0.0-11.0-6.0"},{"rt":3462.2000000029802,"grid":[[1,1,1],[1,1,1],[1,1,1],[1,1,1],[1,1,1],[1,1,1],[1,1,1],[1,1,1],[1,1,1]],"target":[0,0],"response":[1,1],"correct":false,"juego":6,"trial_type":"serial-reaction-time-mouse","trial_index":65,"time_elapsed":1176523,"internal_node_id":"0.0-11.0-7.0"},{"rt":1745.5,"grid":[[1],[1],[1],[1]],"target":[0,0],"response":[1,0],"correct":false,"juego":4,"trial_type":"serial-reaction-time-mouse","trial_index":66,"time_elapsed":1178270,"internal_node_id":"0.0-11.0-8.0"},{"rt":1006.5,"grid":[[1,1,1],[1,1,1],[1,1,1],[1,1,1],[1,1,1],[1,1,1],[1,1,1],[1,1,1],[1,1,1]],"target":[0,0],"response":[3,2],"correct":false,"juego":10,"trial_type":"serial-reaction-time-mouse","trial_index":67,"time_elapsed":1179279,"internal_node_id":"0.0-11.0-9.0"},{"rt":1043.800000000745,"grid":[[1,1,1,1]],"target":[0,0],"response":[0,2],"correct":false,"juego":1,"trial_type":"serial-reaction-time-mouse","trial_index":68,"time_elapsed":1180324,"internal_node_id":"0.0-11.0-10.0"},{"rt":1745.2999999970198,"grid":[[1,1,1,1]],"target":[0,0],"response":[0,0],"correct":true,"juego":12,"trial_type":"serial-reaction-time-mouse","trial_index":69,"time_elapsed":1182071,"internal_node_id":"0.0-11.0-11.0"},{"rt":1087.6000000014901,"grid":[[1,1,1,1]],"target":[0,0],"response":[0,1],"correct":false,"juego":9,"trial_type":"serial-reaction-time-mouse","trial_index":70,"time_elapsed":1183160,"internal_node_id":"0.0-11.0-12.0"},{"rt":1427.5,"grid":[[1,1,1,1],[1,1,1,1],[1,1,1,1],[1,1,1,1],[1,1,1,1],[1,1,1,1],[1,1,1,1],[1,1,1,1],[1,1,1,1]],"target":[0,0],"response":[3,2],"correct":false,"juego":15,"trial_type":"serial-reaction-time-mouse","trial_index":71,"time_elapsed":1184591,"internal_node_id":"0.0-11.0-13.0"},{"rt":3859.2999999970198,"grid":[[1,1,1,1],[1,1,1,1],[1,1,1,1],[1,1,1,1],[1,1,1,1],[1,1,1,1],[1,1,1,1],[1,1,1,1],[1,1,1,1]],"target":[0,0],"response":[7,2],"correct":false,"juego":14,"trial_type":"serial-reaction-time-mouse","trial_index":72,"time_elapsed":1188453,"internal_node_id":"0.0-11.0-14.0"},{"rt":2321.199999999255,"stimulus":"<h1>Último juego</h1><p style=\"font-size: 130%;\">Tienes <span style=\"color:red\">25</span> segundos para recordar los pares de palabras que aparecerán a continuación. <br></p>","response":0,"trial_type":"html-button-response","trial_index":73,"time_elapsed":1190778,"internal_node_id":"0.0-12.0"},{"animation_sequence":[{"stimulus":"imagen_juego_interferencia.jpg","time":518.9000000022352},{"stimulus":"imagen_juego_interferencia.jpg","time":1003.9000000022352},{"stimulus":"imagen_juego_interferencia.jpg","time":1502.800000000745},{"stimulus":"imagen_juego_interferencia.jpg","time":2002.2000000029802},{"stimulus":"imagen_juego_interferencia.jpg","time":2502.10000000149},{"stimulus":"imagen_juego_interferencia.jpg","time":3004.2000000029802},{"stimulus":"imagen_juego_interferencia.jpg","time":3504.60000000149},{"stimulus":"imagen_juego_interferencia.jpg","time":4001.60000000149},{"stimulus":"imagen_juego_interferencia.jpg","time":4503.800000000745},{"stimulus":"imagen_juego_interferencia.jpg","time":5003.400000002235},{"stimulus":"imagen_juego_interferencia.jpg","time":5504},{"stimulus":"imagen_juego_interferencia.jpg","time":6005.900000002235},{"stimulus":"imagen_juego_interferencia.jpg","time":6506.10000000149},{"stimulus":"imagen_juego_interferencia.jpg","time":7006},{"stimulus":"imagen_juego_interferencia.jpg","time":7502.70000000298},{"stimulus":"imagen_juego_interferencia.jpg","time":8001.400000002235},{"stimulus":"imagen_juego_interferencia.jpg","time":8505},{"stimulus":"imagen_juego_interferencia.jpg","time":9001.60000000149},{"stimulus":"imagen_juego_interferencia.jpg","time":9505},{"stimulus":"imagen_juego_interferencia.jpg","time":10006.10000000149},{"stimulus":"imagen_juego_interferencia.jpg","time":10505},{"stimulus":"imagen_juego_interferencia.jpg","time":11001.800000000745},{"stimulus":"imagen_juego_interferencia.jpg","time":11505},{"stimulus":"imagen_juego_interferencia.jpg","time":12004.900000002235},{"stimulus":"imagen_juego_interferencia.jpg","time":12505},{"stimulus":"imagen_juego_interferencia.jpg","time":13003.300000000745},{"stimulus":"imagen_juego_interferencia.jpg","time":13504.70000000298},{"stimulus":"imagen_juego_interferencia.jpg","time":14003.60000000149},{"stimulus":"imagen_juego_interferencia.jpg","time":14505},{"stimulus":"imagen_juego_interferencia.jpg","time":15005.400000002235},{"stimulus":"imagen_juego_interferencia.jpg","time":15506.400000002235},{"stimulus":"imagen_juego_interferencia.jpg","time":16006.300000000745},{"stimulus":"imagen_juego_interferencia.jpg","time":16503.900000002235},{"stimulus":"imagen_juego_interferencia.jpg","time":17002.300000000745},{"stimulus":"imagen_juego_interferencia.jpg","time":17502},{"stimulus":"imagen_juego_interferencia.jpg","time":18003.5},{"stimulus":"imagen_juego_interferencia.jpg","time":18503.900000002235},{"stimulus":"imagen_juego_interferencia.jpg","time":19005.5},{"stimulus":"imagen_juego_interferencia.jpg","time":19503.800000000745},{"stimulus":"imagen_juego_interferencia.jpg","time":20002},{"stimulus":"imagen_juego_interferencia.jpg","time":20504.800000000745},{"stimulus":"imagen_juego_interferencia.jpg","time":21004.400000002235},{"stimulus":"imagen_juego_interferencia.jpg","time":21502.20000000298},{"stimulus":"imagen_juego_interferencia.jpg","time":22001.900000002235},{"stimulus":"imagen_juego_interferencia.jpg","time":22504.10000000149},{"stimulus":"imagen_juego_interferencia.jpg","time":23002.20000000298},{"stimulus":"imagen_juego_interferencia.jpg","time":23505.400000002235},{"stimulus":"imagen_juego_interferencia.jpg","time":24003},{"stimulus":"imagen_juego_interferencia.jpg","time":24505},{"stimulus":"imagen_juego_interferencia.jpg","time":25003.10000000149}],"response":[],"trial_type":"animation","trial_index":74,"time_elapsed":1216285,"internal_node_id":"0.0-13.0"},{"rt":6350.699999999255,"responses":"{\"pregunta interferencia2\":\"cucaracha\"}","question_order":"[0]","trial_type":"survey-multi-choice-cuest","trial_index":75,"time_elapsed":1222638,"internal_node_id":"0.0-14.0-0.0"},{"rt":3782.60000000149,"responses":"{\"pregunta interferencia4\":\"contador\"}","question_order":"[0]","trial_type":"survey-multi-choice-cuest","trial_index":76,"time_elapsed":1226423,"internal_node_id":"0.0-14.0-1.0"},{"rt":5361,"responses":"{\"pregunta interferencia1\":\"higo\"}","question_order":"[0]","trial_type":"survey-multi-choice-cuest","trial_index":77,"time_elapsed":1231787,"internal_node_id":"0.0-14.0-2.0"},{"rt":2887.300000000745,"responses":"{\"pregunta interferencia3\":\"aluminio\"}","question_order":"[0]","trial_type":"survey-multi-choice-cuest","trial_index":78,"time_elapsed":1234676,"internal_node_id":"0.0-14.0-3.0"},{"success":true,"trial_type":"fullscreen","trial_index":79,"time_elapsed":1235680,"internal_node_id":"0.0-15.0"}]