[{"rt":25844.299999952316,"stimulus":"<h1 style=\"color:red; margin-top: 3%;\">¡Bienvenido(a)!</h1><p style=\"text-align:left; justify-content:space-between; margin-right: 5%; margin-left: 5%; margin-top: 5%\"> Antes de empezar el estudio, necesitamos que nos confirmes que estás de acuerdo con participar. Recuerda que tu participación es 100% voluntaria y que lo único que te pedimos es responder lo mejor que puedas. Recuerda también que el estudio incluye:</p><ol style=\"text-align:left; justify-content:space-between; margin-right: 5%; margin-left: 5%;\"><li> un ejercicio de resolución de preguntas de selección múltiple (30’),</li><li>un cuestionario breve (5’),</li><li>un juego muy breve (3’),</li></ol><p style=\"text-align:left; justify-content:space-between; margin-right: 5%; margin-left: 5%;\">Si quieres participar, haz clic en “Acepto” luego de leer lo siguiente:<br></p><p style=\"text-align:left; justify-content:space-between; margin-right: 5%; margin-left: 5%;\">Acepto participar en el estudio “Estrategias de lectura y resolución de preguntas de selección múltiple”, en los términos aquí señalados:<br></p><p style=\"text-align:left; justify-content:space-between; margin-right: 5%; margin-left: 5%;\"><a href=\"http://ciae.uchile.cl/download.php?file=noticias/Asentimiento.pdf\" target=\"_blank\">Link a la hoja de información del Consentimiento.</a></p><p style=\"text-align:left; justify-content:space-between; margin-right: 5%; margin-left: 5%;\">Declaro que he leído (o se me ha leído) y (he) comprendido, las condiciones de mi participación en este estudio. He tenido la oportunidad de hacer preguntas y éstas han sido respondidas. No tengo dudas al respecto.</p>","response":0,"condicion_MCQ":1,"condicion_JUEGO":1,"condicion_INTER":1,"numero_participante":25,"numero_version":1,"dimx":1280,"dimy":720,"color_profundidad":24,"pixel_profundidad":24,"Browser":"Google Chrome","dia":3,"mes":5,"hora":11,"minuto":15,"segundo":40,"trial_type":"html-button-response","trial_index":0,"time_elapsed":25852,"internal_node_id":"0.0-0.0"},{"success":true,"trial_type":"fullscreen","trial_index":1,"time_elapsed":39010,"internal_node_id":"0.0-1.0"},{"rt":70531.79999995232,"responses":"{\"Nombres\":\"Valeria\",\"Apellidos\":\"Riveros\",\"Edad\":\"19\",\"Sexo\":\"mujer\",\"Curso\":\"204\",\"Colegio\":\"Universidad Andres Bello\",\"Contacto\":\"valeriariverosp@gmail.com\"}","trial_type":"survey-text","trial_index":2,"time_elapsed":109578,"internal_node_id":"0.0-2.0"},{"success":true,"timeout":false,"failed_images":[],"failed_audio":[],"failed_video":[],"trial_type":"preload","trial_index":3,"time_elapsed":111607,"internal_node_id":"0.0-3.0"},{"rt":35107.5,"stimulus":"<h1 style:\"margin-top: 5%;\">Ejercicios de Comprensión de Lectura de la Universidad de Chile</h1><p style=\"font-size: 120%;\">En esta actividad, debes responder 24 preguntas de selección múltiple. Cada pregunta presenta 4 respuestas alternativas, pero sólo una de ellas es correcta. Por lo tanto, debes escoger una sola alternativa para cada pregunta. Además, debes reportar qué tan seguro(a) estás de la respuesta que das, con un:</p><ol style=\"font-size: 120%;text-align:left;margin-left: 40%;\"><li>No estoy seguro(a) para nada</li><li>No estoy muy seguro(a)</li><li>Estoy bastante seguro(a)</li><li>Estoy totalmente seguro(a)</li></ol><p style=\"font-size: 120%;\">Por favor lee bien los enunciados antes de responder. ¡Éxito!</p>","response":0,"trial_type":"html-button-response","trial_index":4,"time_elapsed":146717,"internal_node_id":"0.0-4.0"},{"rt":69591.20000004768,"responses":"{\"pregunta18\":\"b) El receptor es habitualmente pasivo frente a la publicidad.\"}","question_order":"[0]","trial_type":"survey-multi-choice","trial_index":5,"time_elapsed":216314,"internal_node_id":"0.0-5.0-0.0"},{"rt":5917.599999904633,"response":{"pregunta18 likert":3},"question_order":[0],"trial_type":"survey-likert","trial_index":6,"time_elapsed":222245,"internal_node_id":"0.0-5.0-1.0"},{"rt":151699.5,"responses":"{\"pregunta13\":\"b) A la inutilidad de tanto esfuerzo si el objetivo es el reposo.\"}","question_order":"[0]","trial_type":"survey-multi-choice","trial_index":7,"time_elapsed":373950,"internal_node_id":"0.0-5.0-2.0"},{"rt":7809.600000143051,"response":{"pregunta13 likert":1},"question_order":[0],"trial_type":"survey-likert","trial_index":8,"time_elapsed":381765,"internal_node_id":"0.0-5.0-3.0"},{"rt":76258.40000009537,"responses":"{\"pregunta14\":\"c) la muerte de Wu Ti fue una bendición.\"}","question_order":"[0]","trial_type":"survey-multi-choice","trial_index":9,"time_elapsed":458028,"internal_node_id":"0.0-5.0-4.0"},{"rt":6965,"response":{"pregunta14 likert":2},"question_order":[0],"trial_type":"survey-likert","trial_index":10,"time_elapsed":464999,"internal_node_id":"0.0-5.0-5.0"},{"rt":187244.40000009537,"responses":"{\"pregunta4\":\"b) En la literatura como en la vida, lo importante son las preguntas.\"}","question_order":"[0]","trial_type":"survey-multi-choice","trial_index":11,"time_elapsed":652251,"internal_node_id":"0.0-5.0-6.0"},{"rt":2727.5,"response":{"pregunta4 likert":3},"question_order":[0],"trial_type":"survey-likert","trial_index":12,"time_elapsed":654984,"internal_node_id":"0.0-5.0-7.0"},{"rt":4400997.5,"responses":"{\"pregunta9\":\"c) preparar los recuerdos del mañana.\"}","question_order":"[0]","trial_type":"survey-multi-choice","trial_index":13,"time_elapsed":5055994,"internal_node_id":"0.0-5.0-8.0"},{"rt":3665,"response":{"pregunta9 likert":3},"question_order":[0],"trial_type":"survey-likert","trial_index":14,"time_elapsed":5059672,"internal_node_id":"0.0-5.0-9.0"},{"rt":29609.900000095367,"responses":"{\"pregunta15\":\"a) el uranio es el elemento natural con el mayor número de protones en el núcleo.\"}","question_order":"[0]","trial_type":"survey-multi-choice","trial_index":15,"time_elapsed":5089288,"internal_node_id":"0.0-5.0-10.0"},{"rt":4473.700000047684,"response":{"pregunta15 likert":3},"question_order":[0],"trial_type":"survey-likert","trial_index":16,"time_elapsed":5093768,"internal_node_id":"0.0-5.0-11.0"},{"rt":263853.59999990463,"responses":"{\"pregunta1\":\"a) Aportan informaciones con las que se reconstruye el personaje dentro de un relato.\"}","question_order":"[0]","trial_type":"survey-multi-choice","trial_index":17,"time_elapsed":5357627,"internal_node_id":"0.0-5.0-12.0"},{"rt":3640.0999999046326,"response":{"pregunta1 likert":1},"question_order":[0],"trial_type":"survey-likert","trial_index":18,"time_elapsed":5361273,"internal_node_id":"0.0-5.0-13.0"},{"rt":49214.90000009537,"responses":"{\"pregunta8\":\"c) El ser humano se comporta de acuerdo con las circunstancias.\"}","question_order":"[0]","trial_type":"survey-multi-choice","trial_index":19,"time_elapsed":5410493,"internal_node_id":"0.0-5.0-14.0"},{"rt":3299.7999999523163,"response":{"pregunta8 likert":3},"question_order":[0],"trial_type":"survey-likert","trial_index":20,"time_elapsed":5413797,"internal_node_id":"0.0-5.0-15.0"},{"rt":67531.70000004768,"responses":"{\"pregunta17\":\"c) A la inexistencia de un recinto adecuado para el recital.\"}","question_order":"[0]","trial_type":"survey-multi-choice","trial_index":21,"time_elapsed":5481332,"internal_node_id":"0.0-5.0-16.0"},{"rt":7320.699999809265,"response":{"pregunta17 likert":2},"question_order":[0],"trial_type":"survey-likert","trial_index":22,"time_elapsed":5488657,"internal_node_id":"0.0-5.0-17.0"},{"rt":52829.5,"responses":"{\"pregunta11\":\"d) Provocar el deseo de la adquisición vertiginosa.\"}","question_order":"[0]","trial_type":"survey-multi-choice","trial_index":23,"time_elapsed":5541490,"internal_node_id":"0.0-5.0-18.0"},{"rt":4292.200000047684,"response":{"pregunta11 likert":2},"question_order":[0],"trial_type":"survey-likert","trial_index":24,"time_elapsed":5545786,"internal_node_id":"0.0-5.0-19.0"},{"rt":208883.79999995232,"responses":"{\"pregunta23\":\"d) el jardinero estará muerto al día siguiente.\"}","question_order":"[0]","trial_type":"survey-multi-choice","trial_index":25,"time_elapsed":5754676,"internal_node_id":"0.0-5.0-20.0"},{"rt":5396.599999904633,"response":{"pregunta23 likert":1},"question_order":[0],"trial_type":"survey-likert","trial_index":26,"time_elapsed":5760078,"internal_node_id":"0.0-5.0-21.0"},{"rt":114204.70000004768,"responses":"{\"pregunta21\":\"c) Nuestra economía vivirá un proceso de ajuste a la nueva realidad.\"}","question_order":"[0]","trial_type":"survey-multi-choice","trial_index":27,"time_elapsed":5874286,"internal_node_id":"0.0-5.0-22.0"},{"rt":4618.299999952316,"response":{"pregunta21 likert":0},"question_order":[0],"trial_type":"survey-likert","trial_index":28,"time_elapsed":5878907,"internal_node_id":"0.0-5.0-23.0"},{"rt":170040.59999990463,"responses":"{\"pregunta12\":\"d) Homenajear a quienes murieron.\"}","question_order":"[0]","trial_type":"survey-multi-choice","trial_index":29,"time_elapsed":6048951,"internal_node_id":"0.0-5.0-24.0"},{"rt":4397.599999904633,"response":{"pregunta12 likert":3},"question_order":[0],"trial_type":"survey-likert","trial_index":30,"time_elapsed":6053353,"internal_node_id":"0.0-5.0-25.0"},{"rt":50464.89999985695,"responses":"{\"pregunta7\":\"c) se da como existente, y sólo se discute su relación con el cuerpo.\"}","question_order":"[0]","trial_type":"survey-multi-choice","trial_index":31,"time_elapsed":6103823,"internal_node_id":"0.0-5.0-26.0"},{"rt":3556.5999999046326,"response":{"pregunta7 likert":3},"question_order":[0],"trial_type":"survey-likert","trial_index":32,"time_elapsed":6107395,"internal_node_id":"0.0-5.0-27.0"},{"rt":107615.59999990463,"responses":"{\"pregunta3\":\"d) El inicio de la dinastía Chang.\"}","question_order":"[0]","trial_type":"survey-multi-choice","trial_index":33,"time_elapsed":6215015,"internal_node_id":"0.0-5.0-28.0"},{"rt":3667.600000143051,"response":{"pregunta3 likert":0},"question_order":[0],"trial_type":"survey-likert","trial_index":34,"time_elapsed":6218687,"internal_node_id":"0.0-5.0-29.0"},{"rt":32336.099999904633,"responses":"{\"pregunta24\":\"d) para el mexicano, la muerte es cotidiana.\"}","question_order":"[0]","trial_type":"survey-multi-choice","trial_index":35,"time_elapsed":6251027,"internal_node_id":"0.0-5.0-30.0"},{"rt":5085.600000143051,"response":{"pregunta24 likert":2},"question_order":[0],"trial_type":"survey-likert","trial_index":36,"time_elapsed":6256117,"internal_node_id":"0.0-5.0-31.0"},{"rt":2658850.600000143,"responses":"{\"pregunta22\":\"d) Se necesita un marco legal para delimitar lo público y lo privado en materia informativa.\"}","question_order":"[0]","trial_type":"survey-multi-choice","trial_index":37,"time_elapsed":8914974,"internal_node_id":"0.0-5.0-32.0"},{"rt":3542.100000143051,"response":{"pregunta22 likert":2},"question_order":[0],"trial_type":"survey-likert","trial_index":38,"time_elapsed":8918524,"internal_node_id":"0.0-5.0-33.0"},{"rt":31928.900000095367,"responses":"{\"pregunta5\":\"b) Los momentos triviales de los viajes, en la escritura se vuelven significativos.\"}","question_order":"[0]","trial_type":"survey-multi-choice","trial_index":39,"time_elapsed":8950458,"internal_node_id":"0.0-5.0-34.0"},{"rt":5044.900000095367,"response":{"pregunta5 likert":1},"question_order":[0],"trial_type":"survey-likert","trial_index":40,"time_elapsed":8955508,"internal_node_id":"0.0-5.0-35.0"},{"rt":122240.40000009537,"responses":"{\"pregunta10\":\"d) ritualistas y obsesivos.\"}","question_order":"[0]","trial_type":"survey-multi-choice","trial_index":41,"time_elapsed":9077751,"internal_node_id":"0.0-5.0-36.0"},{"rt":3352.600000143051,"response":{"pregunta10 likert":0},"question_order":[0],"trial_type":"survey-likert","trial_index":42,"time_elapsed":9081107,"internal_node_id":"0.0-5.0-37.0"},{"rt":33451.09999990463,"responses":"{\"pregunta6\":\"d) Presentar positivamente las diversas tendencias del diseño de interiores a través de un comentario.\"}","question_order":"[0]","trial_type":"survey-multi-choice","trial_index":43,"time_elapsed":9114564,"internal_node_id":"0.0-5.0-38.0"},{"rt":3504.5,"response":{"pregunta6 likert":3},"question_order":[0],"trial_type":"survey-likert","trial_index":44,"time_elapsed":9118073,"internal_node_id":"0.0-5.0-39.0"},{"rt":1017088.899999857,"responses":"{\"pregunta20\":\"b) el sujeto sufre con su modo de vida.\"}","question_order":"[0]","trial_type":"survey-multi-choice","trial_index":45,"time_elapsed":10135168,"internal_node_id":"0.0-5.0-40.0"},{"rt":3320.0999999046326,"response":{"pregunta20 likert":3},"question_order":[0],"trial_type":"survey-likert","trial_index":46,"time_elapsed":10138494,"internal_node_id":"0.0-5.0-41.0"},{"rt":47111.299999952316,"responses":"{\"pregunta19\":\"c) sufren dolores de espalda.\"}","question_order":"[0]","trial_type":"survey-multi-choice","trial_index":47,"time_elapsed":10185612,"internal_node_id":"0.0-5.0-42.0"},{"rt":3054.5,"response":{"pregunta19 likert":3},"question_order":[0],"trial_type":"survey-likert","trial_index":48,"time_elapsed":10188672,"internal_node_id":"0.0-5.0-43.0"},{"rt":27386.200000047684,"responses":"{\"pregunta16\":\"b) Bomberos debería tener acceso a un seguro médico, al que pueda recurrir en caso de accidente.\"}","question_order":"[0]","trial_type":"survey-multi-choice","trial_index":49,"time_elapsed":10216062,"internal_node_id":"0.0-5.0-44.0"},{"rt":3682.100000143051,"response":{"pregunta16 likert":3},"question_order":[0],"trial_type":"survey-likert","trial_index":50,"time_elapsed":10219749,"internal_node_id":"0.0-5.0-45.0"},{"rt":57618.699999809265,"responses":"{\"pregunta2\":\"a) A la relación entre pensamiento y estructura social.\"}","question_order":"[0]","trial_type":"survey-multi-choice","trial_index":51,"time_elapsed":10277371,"internal_node_id":"0.0-5.0-46.0"},{"rt":2984.5,"response":{"pregunta2 likert":3},"question_order":[0],"trial_type":"survey-likert","trial_index":52,"time_elapsed":10280359,"internal_node_id":"0.0-5.0-47.0"}]