[{"rt":27574.399999976158,"stimulus":"<h1 style=\"color:red; margin-top: 3%;\">¡Bienvenido(a)!</h1><p style=\"text-align:left; justify-content:space-between; margin-right: 5%; margin-left: 5%; margin-top: 5%\"> Antes de empezar el estudio, necesitamos que nos confirmes que estás de acuerdo con participar. Recuerda que tu participación es 100% voluntaria y que lo único que te pedimos es responder lo mejor que puedas. Recuerda también que el estudio incluye:</p><ol style=\"text-align:left; justify-content:space-between; margin-right: 5%; margin-left: 5%;\"><li> un ejercicio de resolución de preguntas de selección múltiple (30’),</li><li>un cuestionario breve (5’),</li><li>un juego muy breve (3’),</li></ol><p style=\"text-align:left; justify-content:space-between; margin-right: 5%; margin-left: 5%;\">Si quieres participar, haz clic en “Acepto” luego de leer lo siguiente:<br></p><p style=\"text-align:left; justify-content:space-between; margin-right: 5%; margin-left: 5%;\">Acepto participar en el estudio “Estrategias de lectura y resolución de preguntas de selección múltiple”, en los términos aquí señalados:<br></p><p style=\"text-align:left; justify-content:space-between; margin-right: 5%; margin-left: 5%;\"><a href=\"http://ciae.uchile.cl/download.php?file=noticias/Asentimiento.pdf\" target=\"_blank\">Link a la hoja de información del Consentimiento.</a></p><p style=\"text-align:left; justify-content:space-between; margin-right: 5%; margin-left: 5%;\">Declaro que he leído (o se me ha leído) y (he) comprendido, las condiciones de mi participación en este estudio. He tenido la oportunidad de hacer preguntas y éstas han sido respondidas. No tengo dudas al respecto.</p>","response":0,"condicion_MCQ":4,"condicion_JUEGO":16,"condicion_INTER":16,"numero_participante":64,"numero_version":1,"dimx":1536,"dimy":864,"color_profundidad":24,"pixel_profundidad":24,"Browser":"Google Chrome","dia":7,"mes":5,"hora":19,"minuto":5,"segundo":58,"trial_type":"html-button-response","trial_index":0,"time_elapsed":27582,"internal_node_id":"0.0-0.0"},{"success":true,"trial_type":"fullscreen","trial_index":1,"time_elapsed":35749,"internal_node_id":"0.0-1.0"},{"rt":50225.30000001192,"responses":"{\"Nombres\":\"Antonella Constanza\",\"Apellidos\":\"Alexandre Roitman\",\"Edad\":\"19\",\"Sexo\":\"mujer\",\"Curso\":\"Seccion 204\",\"Colegio\":\"UNAB\",\"Contacto\":\"antoobellaa06@gmail.com\"}","trial_type":"survey-text","trial_index":2,"time_elapsed":85992,"internal_node_id":"0.0-2.0"},{"success":true,"timeout":false,"failed_images":[],"failed_audio":[],"failed_video":[],"trial_type":"preload","trial_index":3,"time_elapsed":90876,"internal_node_id":"0.0-3.0"},{"rt":15081.099999964237,"stimulus":"<h1 style:\"margin-top: 5%;\">Ejercicios de Comprensión de Lectura de la Universidad de Chile</h1><p style=\"font-size: 120%;\">En esta actividad, debes responder 24 preguntas de selección múltiple. Cada pregunta presenta 4 respuestas alternativas, pero sólo una de ellas es correcta. Por lo tanto, debes escoger una sola alternativa para cada pregunta. Además, debes reportar qué tan seguro(a) estás de la respuesta que das, con un:</p><ol style=\"font-size: 120%;text-align:left;margin-left: 40%;\"><li>No estoy seguro(a) para nada</li><li>No estoy muy seguro(a)</li><li>Estoy bastante seguro(a)</li><li>Estoy totalmente seguro(a)</li></ol><p style=\"font-size: 120%;\">Por favor lee bien los enunciados antes de responder. ¡Éxito!</p>","response":0,"trial_type":"html-button-response","trial_index":4,"time_elapsed":105959,"internal_node_id":"0.0-4.0"},{"rt":46994.19999998808,"responses":"{\"pregunta3\":\"b) El inicio de la civilización china.\"}","question_order":"[0]","trial_type":"survey-multi-choice","trial_index":5,"time_elapsed":152956,"internal_node_id":"0.0-5.0-0.0"},{"rt":3579.899999976158,"response":{"pregunta3 likert":2},"question_order":[0],"trial_type":"survey-likert","trial_index":6,"time_elapsed":156538,"internal_node_id":"0.0-5.0-1.0"},{"rt":119793,"responses":"{\"pregunta11\":\"c) Deleitar a sus receptores por medio de la belleza y el confort\"}","question_order":"[0]","trial_type":"survey-multi-choice","trial_index":7,"time_elapsed":276333,"internal_node_id":"0.0-5.0-2.0"},{"rt":1910.300000011921,"response":{"pregunta11 likert":3},"question_order":[0],"trial_type":"survey-likert","trial_index":8,"time_elapsed":278246,"internal_node_id":"0.0-5.0-3.0"},{"rt":52170.30000001192,"responses":"{\"pregunta19\":\"a) llevan un control grupal de su embarazo.\"}","question_order":"[0]","trial_type":"survey-multi-choice","trial_index":9,"time_elapsed":330418,"internal_node_id":"0.0-5.0-4.0"},{"rt":2348.100000023842,"response":{"pregunta19 likert":1},"question_order":[0],"trial_type":"survey-likert","trial_index":10,"time_elapsed":332768,"internal_node_id":"0.0-5.0-5.0"},{"rt":35844.40000003576,"responses":"{\"pregunta5\":\"c) Los momentos triviales de los viajes, en la escritura se vuelven significativos.\"}","question_order":"[0]","trial_type":"survey-multi-choice","trial_index":11,"time_elapsed":368614,"internal_node_id":"0.0-5.0-6.0"},{"rt":1844.0999999642372,"response":{"pregunta5 likert":3},"question_order":[0],"trial_type":"survey-likert","trial_index":12,"time_elapsed":370459,"internal_node_id":"0.0-5.0-7.0"},{"rt":45512.10000002384,"responses":"{\"pregunta6\":\"c) Promover la asistencia a un evento específico de decoración a través de una atractiva descripción.\"}","question_order":"[0]","trial_type":"survey-multi-choice","trial_index":13,"time_elapsed":415973,"internal_node_id":"0.0-5.0-8.0"},{"rt":3584.399999976158,"response":{"pregunta6 likert":3},"question_order":[0],"trial_type":"survey-likert","trial_index":14,"time_elapsed":419559,"internal_node_id":"0.0-5.0-9.0"},{"rt":47778.40000003576,"responses":"{\"pregunta13\":\"b) Al premio merecido después de tantos esfuerzos.\"}","question_order":"[0]","trial_type":"survey-multi-choice","trial_index":15,"time_elapsed":467339,"internal_node_id":"0.0-5.0-10.0"},{"rt":1948.2999999523163,"response":{"pregunta13 likert":3},"question_order":[0],"trial_type":"survey-likert","trial_index":16,"time_elapsed":469289,"internal_node_id":"0.0-5.0-11.0"},{"rt":48882.39999997616,"responses":"{\"pregunta9\":\"d) preparar los recuerdos del mañana.\"}","question_order":"[0]","trial_type":"survey-multi-choice","trial_index":17,"time_elapsed":518173,"internal_node_id":"0.0-5.0-12.0"},{"rt":1764.300000011921,"response":{"pregunta9 likert":3},"question_order":[0],"trial_type":"survey-likert","trial_index":18,"time_elapsed":519939,"internal_node_id":"0.0-5.0-13.0"},{"rt":35602.60000002384,"responses":"{\"pregunta4\":\"a) En la literatura como en la vida, todo es metáfora.\"}","question_order":"[0]","trial_type":"survey-multi-choice","trial_index":19,"time_elapsed":555543,"internal_node_id":"0.0-5.0-14.0"},{"rt":1874.4000000357628,"response":{"pregunta4 likert":2},"question_order":[0],"trial_type":"survey-likert","trial_index":20,"time_elapsed":557419,"internal_node_id":"0.0-5.0-15.0"},{"rt":56634.09999996424,"responses":"{\"pregunta7\":\"b) es un concepto introducido en la cultura por Platón.\"}","question_order":"[0]","trial_type":"survey-multi-choice","trial_index":21,"time_elapsed":614055,"internal_node_id":"0.0-5.0-16.0"},{"rt":1812.2000000476837,"response":{"pregunta7 likert":2},"question_order":[0],"trial_type":"survey-likert","trial_index":22,"time_elapsed":615869,"internal_node_id":"0.0-5.0-17.0"},{"rt":55543.89999997616,"responses":"{\"pregunta20\":\"d) para Aristóteles la virtud estaba en el justo equilibrio.\"}","question_order":"[0]","trial_type":"survey-multi-choice","trial_index":23,"time_elapsed":671415,"internal_node_id":"0.0-5.0-18.0"},{"rt":4776.200000047684,"response":{"pregunta20 likert":3},"question_order":[0],"trial_type":"survey-likert","trial_index":24,"time_elapsed":676194,"internal_node_id":"0.0-5.0-19.0"},{"rt":17399.80000001192,"responses":"{\"pregunta24\":\"d) la muerte es distinta en las grandes ciudades.\"}","question_order":"[0]","trial_type":"survey-multi-choice","trial_index":25,"time_elapsed":693595,"internal_node_id":"0.0-5.0-20.0"},{"rt":1558.5999999642372,"response":{"pregunta24 likert":3},"question_order":[0],"trial_type":"survey-likert","trial_index":26,"time_elapsed":695155,"internal_node_id":"0.0-5.0-21.0"},{"rt":25938.30000001192,"responses":"{\"pregunta1\":\"c) Entregan una característica detallada del personaje, a través de la voz narrativa.\"}","question_order":"[0]","trial_type":"survey-multi-choice","trial_index":27,"time_elapsed":721095,"internal_node_id":"0.0-5.0-22.0"},{"rt":1954.3999999761581,"response":{"pregunta1 likert":2},"question_order":[0],"trial_type":"survey-likert","trial_index":28,"time_elapsed":723051,"internal_node_id":"0.0-5.0-23.0"},{"rt":59170.09999996424,"responses":"{\"pregunta10\":\"a) ritualistas y obsesivos.\"}","question_order":"[0]","trial_type":"survey-multi-choice","trial_index":29,"time_elapsed":782223,"internal_node_id":"0.0-5.0-24.0"},{"rt":3204,"response":{"pregunta10 likert":1},"question_order":[0],"trial_type":"survey-likert","trial_index":30,"time_elapsed":785429,"internal_node_id":"0.0-5.0-25.0"},{"rt":20841.80000001192,"responses":"{\"pregunta21\":\"d) Nuestra economía vivirá un proceso de ajuste a la nueva realidad.\"}","question_order":"[0]","trial_type":"survey-multi-choice","trial_index":31,"time_elapsed":806273,"internal_node_id":"0.0-5.0-26.0"},{"rt":2543.899999976158,"response":{"pregunta21 likert":3},"question_order":[0],"trial_type":"survey-likert","trial_index":32,"time_elapsed":808818,"internal_node_id":"0.0-5.0-27.0"},{"rt":72008.79999995232,"responses":"{\"pregunta12\":\"a) Homenajear a quienes murieron.\"}","question_order":"[0]","trial_type":"survey-multi-choice","trial_index":33,"time_elapsed":880829,"internal_node_id":"0.0-5.0-28.0"},{"rt":1782.300000011921,"response":{"pregunta12 likert":3},"question_order":[0],"trial_type":"survey-likert","trial_index":34,"time_elapsed":882613,"internal_node_id":"0.0-5.0-29.0"},{"rt":63511.60000002384,"responses":"{\"pregunta2\":\"b) A la relación entre pensamiento y estructura social.\"}","question_order":"[0]","trial_type":"survey-multi-choice","trial_index":35,"time_elapsed":946126,"internal_node_id":"0.0-5.0-30.0"},{"rt":2416.7999999523163,"response":{"pregunta2 likert":2},"question_order":[0],"trial_type":"survey-likert","trial_index":36,"time_elapsed":948544,"internal_node_id":"0.0-5.0-31.0"},{"rt":80836,"responses":"{\"pregunta18\":\"c) El receptor es habitualmente pasivo frente a la publicidad.\"}","question_order":"[0]","trial_type":"survey-multi-choice","trial_index":37,"time_elapsed":1029382,"internal_node_id":"0.0-5.0-32.0"},{"rt":1380,"response":{"pregunta18 likert":1},"question_order":[0],"trial_type":"survey-likert","trial_index":38,"time_elapsed":1030764,"internal_node_id":"0.0-5.0-33.0"},{"rt":42622.39999997616,"responses":"{\"pregunta17\":\"b) A la inexistencia de un recinto adecuado para el recital.\"}","question_order":"[0]","trial_type":"survey-multi-choice","trial_index":39,"time_elapsed":1073388,"internal_node_id":"0.0-5.0-34.0"},{"rt":1404.199999988079,"response":{"pregunta17 likert":3},"question_order":[0],"trial_type":"survey-likert","trial_index":40,"time_elapsed":1074794,"internal_node_id":"0.0-5.0-35.0"},{"rt":51762.200000047684,"responses":"{\"pregunta15\":\"d) la creación de elementos químicos artificiales ha resultado de la manipulación del uranio.\"}","question_order":"[0]","trial_type":"survey-multi-choice","trial_index":41,"time_elapsed":1126558,"internal_node_id":"0.0-5.0-36.0"},{"rt":2636.099999964237,"response":{"pregunta15 likert":2},"question_order":[0],"trial_type":"survey-likert","trial_index":42,"time_elapsed":1129196,"internal_node_id":"0.0-5.0-37.0"},{"rt":31570.599999964237,"responses":"{\"pregunta16\":\"b) Se debe crear un seguro médico especial para esta institución, pues es de alto riesgo.\"}","question_order":"[0]","trial_type":"survey-multi-choice","trial_index":43,"time_elapsed":1160768,"internal_node_id":"0.0-5.0-38.0"},{"rt":2686.5,"response":{"pregunta16 likert":2},"question_order":[0],"trial_type":"survey-likert","trial_index":44,"time_elapsed":1163456,"internal_node_id":"0.0-5.0-39.0"},{"rt":49484.09999996424,"responses":"{\"pregunta23\":\"a) el jardinero estará muerto al día siguiente.\"}","question_order":"[0]","trial_type":"survey-multi-choice","trial_index":45,"time_elapsed":1212942,"internal_node_id":"0.0-5.0-40.0"},{"rt":3100.2000000476837,"response":{"pregunta23 likert":1},"question_order":[0],"trial_type":"survey-likert","trial_index":46,"time_elapsed":1216044,"internal_node_id":"0.0-5.0-41.0"},{"rt":68227.59999996424,"responses":"{\"pregunta14\":\"a) el Primer Ministro debía morir por ambicioso.\"}","question_order":"[0]","trial_type":"survey-multi-choice","trial_index":47,"time_elapsed":1284274,"internal_node_id":"0.0-5.0-42.0"},{"rt":2682.5,"response":{"pregunta14 likert":3},"question_order":[0],"trial_type":"survey-likert","trial_index":48,"time_elapsed":1286958,"internal_node_id":"0.0-5.0-43.0"},{"rt":51582.30000001192,"responses":"{\"pregunta8\":\"d) El ser humano se comporta de acuerdo con las circunstancias.\"}","question_order":"[0]","trial_type":"survey-multi-choice","trial_index":49,"time_elapsed":1338542,"internal_node_id":"0.0-5.0-44.0"},{"rt":1203.699999988079,"response":{"pregunta8 likert":1},"question_order":[0],"trial_type":"survey-likert","trial_index":50,"time_elapsed":1339748,"internal_node_id":"0.0-5.0-45.0"},{"rt":34540.10000002384,"responses":"{\"pregunta22\":\"a) Se necesita un marco legal para delimitar lo público y lo privado en materia informativa.\"}","question_order":"[0]","trial_type":"survey-multi-choice","trial_index":51,"time_elapsed":1374289,"internal_node_id":"0.0-5.0-46.0"},{"rt":3730.5,"response":{"pregunta22 likert":0},"question_order":[0],"trial_type":"survey-likert","trial_index":52,"time_elapsed":1378021,"internal_node_id":"0.0-5.0-47.0"},{"rt":2760,"stimulus":"<p style=\"font-size: 120%\">Gracias por completar esta etapa del estudio. Ahora te invitamos a responder el cuestionario.<br><br></p>","response":0,"trial_type":"html-button-response","trial_index":53,"time_elapsed":1380785,"internal_node_id":"0.0-6.0"},{"rt":20281.399999976158,"stimulus":"<h1 style=\"margin-top: 5%\">Cuestionario para la Evaluación de Metas Académicas</h1><p style=\"font-size: 120%; margin-left: 3%; margin-top: 5%\">Este es un cuestionario que permite conocer cuáles son los principales motivos por los que los estudiantes se esfuerzan en su trabajo académico. A continuación, se te presentarán una serie de afirmaciones acerca de los motivos que puedes tener para estudiar.<br>Te pedimos que contestes a dichas afirmaciones reflexionando sobre el contenido de cada una de ellas, que, aunque te parezcan semejantes, en realidad, no lo son.<br>NO HAY RESPUESTAS CORRECTAS o INCORRECTAS, sólo queremos que respondas con la mayor precisión y sinceridad posible a las preguntas que se plantean.","response":0,"trial_type":"html-button-response","trial_index":54,"time_elapsed":1401068,"internal_node_id":"0.0-7.0"},{"rt":76773.69999998808,"response":{"Metas cuestionario pregunta1":4,"Metas cuestionario pregunta2":4,"Metas cuestionario pregunta3":4,"Metas cuestionario pregunta4":4,"Metas cuestionario pregunta5":4,"Metas cuestionario pregunta6":4,"Metas cuestionario pregunta7":4,"Metas cuestionario pregunta8":4,"Metas cuestionario pregunta9":2,"Metas cuestionario pregunta10":1,"Metas cuestionario pregunta11":0,"Metas cuestionario pregunta12":0,"Metas cuestionario pregunta13":0,"Metas cuestionario pregunta14":2,"Metas cuestionario pregunta15":4,"Metas cuestionario pregunta16":4,"Metas cuestionario pregunta17":4,"Metas cuestionario pregunta18":4,"Metas cuestionario pregunta19":4,"Metas cuestionario pregunta20":4},"question_order":[0,1,2,3,4,5,6,7,8,9,10,11,12,13,14,15,16,17,18,19],"trial_type":"survey-likert","trial_index":55,"time_elapsed":1477847,"internal_node_id":"0.0-8.0"}]