[{"rt":7320.39999999851,"stimulus":"<h1 style=\"color:red; margin-top: 3%;\">¡Bienvenido(a)!</h1><p style=\"text-align:left; justify-content:space-between; margin-right: 5%; margin-left: 5%; margin-top: 5%\"> Antes de empezar el estudio, necesitamos que nos confirmes que estás de acuerdo con participar. Recuerda que tu participación es 100% voluntaria y que lo único que te pedimos es responder lo mejor que puedas. Recuerda también que el estudio incluye:</p><ol style=\"text-align:left; justify-content:space-between; margin-right: 5%; margin-left: 5%;\"><li> un ejercicio de resolución de preguntas de selección múltiple (30’),</li><li>un cuestionario breve (5’),</li><li>un juego muy breve (3’),</li></ol><p style=\"text-align:left; justify-content:space-between; margin-right: 5%; margin-left: 5%;\">Si quieres participar, haz clic en “Acepto” luego de leer lo siguiente:<br></p><p style=\"text-align:left; justify-content:space-between; margin-right: 5%; margin-left: 5%;\">Acepto participar en el estudio “Estrategias de lectura y resolución de preguntas de selección múltiple”, en los términos aquí señalados:<br></p><p style=\"text-align:left; justify-content:space-between; margin-right: 5%; margin-left: 5%;\"><a href=\"http://ciae.uchile.cl/download.php?file=noticias/Asentimiento.pdf\" target=\"_blank\">Link a la hoja de información del Consentimiento.</a></p><p style=\"text-align:left; justify-content:space-between; margin-right: 5%; margin-left: 5%;\">Declaro que he leído (o se me ha leído) y (he) comprendido, las condiciones de mi participación en este estudio. He tenido la oportunidad de hacer preguntas y éstas han sido respondidas. No tengo dudas al respecto.</p>","response":0,"condicion_MCQ":4,"condicion_JUEGO":4,"condicion_INTER":4,"numero_participante":4,"numero_version":2,"dimx":1366,"dimy":768,"color_profundidad":24,"pixel_profundidad":24,"Browser":"Google Chrome","dia":4,"mes":5,"hora":11,"minuto":32,"segundo":17,"trial_type":"html-button-response","trial_index":0,"time_elapsed":7323,"internal_node_id":"0.0-0.0"},{"success":true,"trial_type":"fullscreen","trial_index":1,"time_elapsed":15247,"internal_node_id":"0.0-1.0"},{"rt":178620.69999999553,"responses":"{\"Nombres\":\"carla aylin \",\"Apellidos\":\"peñaloza péez\",\"Edad\":\"18\",\"Sexo\":\"mujer\",\"Curso\":\"204\",\"Colegio\":\"universidad andrés bello\",\"Contacto\":\"carlitapenaloza@hotmail.com\"}","trial_type":"survey-text","trial_index":2,"time_elapsed":193886,"internal_node_id":"0.0-2.0"},{"success":true,"timeout":false,"failed_images":[],"failed_audio":[],"failed_video":[],"trial_type":"preload","trial_index":3,"time_elapsed":194859,"internal_node_id":"0.0-3.0"},{"rt":11518,"stimulus":"<h1 style:\"margin-top: 5%;\">Ejercicios de Comprensión de Lectura de la Universidad de Chile</h1><p style=\"font-size: 120%;\">En esta actividad, debes responder 24 preguntas de selección múltiple. Cada pregunta presenta 4 respuestas alternativas, pero sólo una de ellas es correcta. Por lo tanto, debes escoger una sola alternativa para cada pregunta. Además, debes reportar qué tan seguro(a) estás de la respuesta que das, con un:</p><ol style=\"font-size: 120%;text-align:left;margin-left: 40%;\"><li>No estoy seguro(a) para nada</li><li>No estoy muy seguro(a)</li><li>Estoy bastante seguro(a)</li><li>Estoy totalmente seguro(a)</li></ol><p style=\"font-size: 120%;\">Por favor lee bien los enunciados antes de responder. ¡Éxito!</p>","response":0,"trial_type":"html-button-response","trial_index":4,"time_elapsed":206379,"internal_node_id":"0.0-4.0"},{"rt":42520.60000000149,"responses":"{\"pregunta19\":\"a) llevan un control grupal de su embarazo.\"}","question_order":"[0]","trial_type":"survey-multi-choice","trial_index":5,"time_elapsed":248901,"internal_node_id":"0.0-5.0-0.0"},{"rt":4370.19999999553,"response":{"pregunta19 likert":2},"question_order":[0],"trial_type":"survey-likert","trial_index":6,"time_elapsed":253273,"internal_node_id":"0.0-5.0-1.0"},{"rt":46698.60000000149,"responses":"{\"pregunta13\":\"c) A la conveniencia de no postergar el descanso personal.\"}","question_order":"[0]","trial_type":"survey-multi-choice","trial_index":7,"time_elapsed":299973,"internal_node_id":"0.0-5.0-2.0"},{"rt":2564.2999999970198,"response":{"pregunta13 likert":2},"question_order":[0],"trial_type":"survey-likert","trial_index":8,"time_elapsed":302540,"internal_node_id":"0.0-5.0-3.0"},{"rt":65984,"responses":"{\"pregunta5\":\"b) La escritura plasma los mejores momentos de los viajes.\"}","question_order":"[0]","trial_type":"survey-multi-choice","trial_index":9,"time_elapsed":368525,"internal_node_id":"0.0-5.0-4.0"},{"rt":4624.39999999851,"response":{"pregunta5 likert":0},"question_order":[0],"trial_type":"survey-likert","trial_index":10,"time_elapsed":373151,"internal_node_id":"0.0-5.0-5.0"},{"rt":52686.29999999702,"responses":"{\"pregunta10\":\"a) ritualistas y obsesivos.\"}","question_order":"[0]","trial_type":"survey-multi-choice","trial_index":11,"time_elapsed":425839,"internal_node_id":"0.0-5.0-6.0"},{"rt":2234.6999999955297,"response":{"pregunta10 likert":2},"question_order":[0],"trial_type":"survey-likert","trial_index":12,"time_elapsed":428075,"internal_node_id":"0.0-5.0-7.0"},{"rt":91305.89999999851,"responses":"{\"pregunta8\":\"d) El ser humano se comporta de acuerdo con las circunstancias.\"}","question_order":"[0]","trial_type":"survey-multi-choice","trial_index":13,"time_elapsed":519382,"internal_node_id":"0.0-5.0-8.0"},{"rt":1564.8999999985099,"response":{"pregunta8 likert":2},"question_order":[0],"trial_type":"survey-likert","trial_index":14,"time_elapsed":520949,"internal_node_id":"0.0-5.0-9.0"},{"rt":78750.30000000447,"responses":"{\"pregunta23\":\"a) el jardinero estará muerto al día siguiente.\"}","question_order":"[0]","trial_type":"survey-multi-choice","trial_index":15,"time_elapsed":599700,"internal_node_id":"0.0-5.0-10.0"},{"rt":1572.7000000029802,"response":{"pregunta23 likert":2},"question_order":[0],"trial_type":"survey-likert","trial_index":16,"time_elapsed":601275,"internal_node_id":"0.0-5.0-11.0"},{"rt":55467.79999999702,"responses":"{\"pregunta17\":\"a) A la temática satánica de las canciones del grupo.\"}","question_order":"[0]","trial_type":"survey-multi-choice","trial_index":17,"time_elapsed":656744,"internal_node_id":"0.0-5.0-12.0"},{"rt":1800.3999999985099,"response":{"pregunta17 likert":3},"question_order":[0],"trial_type":"survey-likert","trial_index":18,"time_elapsed":658546,"internal_node_id":"0.0-5.0-13.0"},{"rt":242797.5,"responses":"{\"pregunta2\":\"c) A la relación entre sociedad y constitución social.\"}","question_order":"[0]","trial_type":"survey-multi-choice","trial_index":19,"time_elapsed":901345,"internal_node_id":"0.0-5.0-14.0"},{"rt":4049.1999999955297,"response":{"pregunta2 likert":2},"question_order":[0],"trial_type":"survey-likert","trial_index":20,"time_elapsed":905398,"internal_node_id":"0.0-5.0-15.0"},{"rt":108132.79999999702,"responses":"{\"pregunta3\":\"b) El inicio de la civilización china.\"}","question_order":"[0]","trial_type":"survey-multi-choice","trial_index":21,"time_elapsed":1013533,"internal_node_id":"0.0-5.0-16.0"},{"rt":1938.6000000014901,"response":{"pregunta3 likert":3},"question_order":[0],"trial_type":"survey-likert","trial_index":22,"time_elapsed":1015473,"internal_node_id":"0.0-5.0-17.0"},{"rt":39726.19999999553,"responses":"{\"pregunta16\":\"c) Bomberos debería tener acceso a un seguro médico, al que pueda recurrir en caso de accidente.\"}","question_order":"[0]","trial_type":"survey-multi-choice","trial_index":23,"time_elapsed":1055201,"internal_node_id":"0.0-5.0-18.0"},{"rt":2170.39999999851,"response":{"pregunta16 likert":3},"question_order":[0],"trial_type":"survey-likert","trial_index":24,"time_elapsed":1057373,"internal_node_id":"0.0-5.0-19.0"},{"rt":60626.39999999851,"responses":"{\"pregunta1\":\"b) Aportan informaciones con las que se reconstruye el personaje dentro de un relato.\"}","question_order":"[0]","trial_type":"survey-multi-choice","trial_index":25,"time_elapsed":1118001,"internal_node_id":"0.0-5.0-20.0"},{"rt":2098.5,"response":{"pregunta1 likert":3},"question_order":[0],"trial_type":"survey-likert","trial_index":26,"time_elapsed":1120101,"internal_node_id":"0.0-5.0-21.0"},{"rt":60954.5,"responses":"{\"pregunta22\":\"a) Se necesita un marco legal para delimitar lo público y lo privado en materia informativa.\"}","question_order":"[0]","trial_type":"survey-multi-choice","trial_index":27,"time_elapsed":1181057,"internal_node_id":"0.0-5.0-22.0"},{"rt":1874.1000000014901,"response":{"pregunta22 likert":3},"question_order":[0],"trial_type":"survey-likert","trial_index":28,"time_elapsed":1182933,"internal_node_id":"0.0-5.0-23.0"},{"rt":55225,"responses":"{\"pregunta24\":\"a) para el mexicano, la muerte es cotidiana.\"}","question_order":"[0]","trial_type":"survey-multi-choice","trial_index":29,"time_elapsed":1238159,"internal_node_id":"0.0-5.0-24.0"},{"rt":1832.1000000014901,"response":{"pregunta24 likert":3},"question_order":[0],"trial_type":"survey-likert","trial_index":30,"time_elapsed":1239992,"internal_node_id":"0.0-5.0-25.0"},{"rt":79354.39999999851,"responses":"{\"pregunta4\":\"a) En la literatura como en la vida, todo es metáfora.\"}","question_order":"[0]","trial_type":"survey-multi-choice","trial_index":31,"time_elapsed":1319349,"internal_node_id":"0.0-5.0-26.0"},{"rt":2844.6999999955297,"response":{"pregunta4 likert":1},"question_order":[0],"trial_type":"survey-likert","trial_index":32,"time_elapsed":1322195,"internal_node_id":"0.0-5.0-27.0"},{"rt":51636.59999999404,"responses":"{\"pregunta15\":\"d) la creación de elementos químicos artificiales ha resultado de la manipulación del uranio.\"}","question_order":"[0]","trial_type":"survey-multi-choice","trial_index":33,"time_elapsed":1373833,"internal_node_id":"0.0-5.0-28.0"},{"rt":2213.7999999970198,"response":{"pregunta15 likert":3},"question_order":[0],"trial_type":"survey-likert","trial_index":34,"time_elapsed":1376048,"internal_node_id":"0.0-5.0-29.0"},{"rt":82250.69999999553,"responses":"{\"pregunta14\":\"a) el Primer Ministro debía morir por ambicioso.\"}","question_order":"[0]","trial_type":"survey-multi-choice","trial_index":35,"time_elapsed":1458300,"internal_node_id":"0.0-5.0-30.0"},{"rt":2152.39999999851,"response":{"pregunta14 likert":1},"question_order":[0],"trial_type":"survey-likert","trial_index":36,"time_elapsed":1460454,"internal_node_id":"0.0-5.0-31.0"},{"rt":77988.29999999702,"responses":"{\"pregunta18\":\"a) La publicidad ejerce una influencia positiva sobre la sociedad.\"}","question_order":"[0]","trial_type":"survey-multi-choice","trial_index":37,"time_elapsed":1538444,"internal_node_id":"0.0-5.0-32.0"},{"rt":2004.1999999955297,"response":{"pregunta18 likert":2},"question_order":[0],"trial_type":"survey-likert","trial_index":38,"time_elapsed":1540450,"internal_node_id":"0.0-5.0-33.0"},{"rt":235338.8999999985,"responses":"{\"pregunta20\":\"c) el hombre excesivo es inmoral.\"}","question_order":"[0]","trial_type":"survey-multi-choice","trial_index":39,"time_elapsed":1775790,"internal_node_id":"0.0-5.0-34.0"},{"rt":3453.2000000029802,"response":{"pregunta20 likert":1},"question_order":[0],"trial_type":"survey-likert","trial_index":40,"time_elapsed":1779245,"internal_node_id":"0.0-5.0-35.0"},{"rt":183770.1000000015,"responses":"{\"pregunta7\":\"b) es un concepto introducido en la cultura por Platón.\"}","question_order":"[0]","trial_type":"survey-multi-choice","trial_index":41,"time_elapsed":1963019,"internal_node_id":"0.0-5.0-36.0"},{"rt":2012.7000000029802,"response":{"pregunta7 likert":1},"question_order":[0],"trial_type":"survey-likert","trial_index":42,"time_elapsed":1965034,"internal_node_id":"0.0-5.0-37.0"},{"rt":349274.5,"responses":"{\"pregunta6\":\"c) Promover la asistencia a un evento específico de decoración a través de una atractiva descripción.\"}","question_order":"[0]","trial_type":"survey-multi-choice","trial_index":43,"time_elapsed":2314310,"internal_node_id":"0.0-5.0-38.0"},{"rt":2314.60000000149,"response":{"pregunta6 likert":1},"question_order":[0],"trial_type":"survey-likert","trial_index":44,"time_elapsed":2316628,"internal_node_id":"0.0-5.0-39.0"},{"rt":190805.6000000015,"responses":"{\"pregunta21\":\"d) Nuestra economía vivirá un proceso de ajuste a la nueva realidad.\"}","question_order":"[0]","trial_type":"survey-multi-choice","trial_index":45,"time_elapsed":2507437,"internal_node_id":"0.0-5.0-40.0"},{"rt":3998.7999999970198,"response":{"pregunta21 likert":2},"question_order":[0],"trial_type":"survey-likert","trial_index":46,"time_elapsed":2511438,"internal_node_id":"0.0-5.0-41.0"},{"rt":257965.29999999702,"responses":"{\"pregunta12\":\"a) Homenajear a quienes murieron.\"}","question_order":"[0]","trial_type":"survey-multi-choice","trial_index":47,"time_elapsed":2769407,"internal_node_id":"0.0-5.0-42.0"},{"rt":3003.39999999851,"response":{"pregunta12 likert":3},"question_order":[0],"trial_type":"survey-likert","trial_index":48,"time_elapsed":2772414,"internal_node_id":"0.0-5.0-43.0"},{"rt":100964.10000000149,"responses":"{\"pregunta9\":\"d) preparar los recuerdos del mañana.\"}","question_order":"[0]","trial_type":"survey-multi-choice","trial_index":49,"time_elapsed":2873382,"internal_node_id":"0.0-5.0-44.0"},{"rt":2605.89999999851,"response":{"pregunta9 likert":3},"question_order":[0],"trial_type":"survey-likert","trial_index":50,"time_elapsed":2875990,"internal_node_id":"0.0-5.0-45.0"},{"rt":126299.10000000149,"responses":"{\"pregunta11\":\"c) Deleitar a sus receptores por medio de la belleza y el confort\"}","question_order":"[0]","trial_type":"survey-multi-choice","trial_index":51,"time_elapsed":3002291,"internal_node_id":"0.0-5.0-46.0"},{"rt":2158.5,"response":{"pregunta11 likert":1},"question_order":[0],"trial_type":"survey-likert","trial_index":52,"time_elapsed":3004452,"internal_node_id":"0.0-5.0-47.0"}]