[{"rt":10654.504999984056,"stimulus":"<h1 style=\"color:red; margin-top: 3%;\">¡Bienvenido(a)!</h1><p style=\"text-align:left; justify-content:space-between; margin-right: 5%; margin-left: 5%; margin-top: 5%\"> Antes de empezar el estudio, necesitamos que nos confirmes que estás de acuerdo con participar. Recuerda que tu participación es 100% voluntaria y que lo único que te pedimos es responder lo mejor que puedas. Recuerda también que el estudio incluye:</p><ol style=\"text-align:left; justify-content:space-between; margin-right: 5%; margin-left: 5%;\"><li> un ejercicio de resolución de preguntas de selección múltiple (30’),</li><li>un cuestionario breve (5’),</li><li>un juego muy breve (3’),</li></ol><p style=\"text-align:left; justify-content:space-between; margin-right: 5%; margin-left: 5%;\">Si quieres participar, haz clic en “Acepto” luego de leer lo siguiente:<br></p><p style=\"text-align:left; justify-content:space-between; margin-right: 5%; margin-left: 5%;\">Acepto participar en el estudio “Estrategias de lectura y resolución de preguntas de selección múltiple”, en los términos aquí señalados:<br></p><p style=\"text-align:left; justify-content:space-between; margin-right: 5%; margin-left: 5%;\"><a href=\"http://ciae.uchile.cl/download.php?file=noticias/Asentimiento.pdf\" target=\"_blank\">Link a la hoja de información del Consentimiento.</a></p><p style=\"text-align:left; justify-content:space-between; margin-right: 5%; margin-left: 5%;\">Declaro que he leído (o se me ha leído) y (he) comprendido, las condiciones de mi participación en este estudio. He tenido la oportunidad de hacer preguntas y éstas han sido respondidas. No tengo dudas al respecto.</p>","response":0,"condicion_MCQ":8,"condicion_JUEGO":20,"condicion_INTER":20,"numero_participante":44,"numero_version":1,"dimx":1536,"dimy":864,"color_profundidad":24,"pixel_profundidad":24,"Browser":"Google Chrome","dia":4,"mes":5,"hora":12,"minuto":51,"segundo":24,"trial_type":"html-button-response","trial_index":0,"time_elapsed":10658,"internal_node_id":"0.0-0.0"},{"success":true,"trial_type":"fullscreen","trial_index":1,"time_elapsed":16163,"internal_node_id":"0.0-1.0"},{"rt":110945.37999999011,"responses":"{\"Nombres\":\"consuelo belen \",\"Apellidos\":\"olalde olave\",\"Edad\":\"18\",\"Sexo\":\"mujer\",\"Curso\":\"25439\",\"Colegio\":\"andres bello \",\"Contacto\":\"consueloolalde14@gmail.com\"}","trial_type":"survey-text","trial_index":2,"time_elapsed":127117,"internal_node_id":"0.0-2.0"},{"success":true,"timeout":false,"failed_images":[],"failed_audio":[],"failed_video":[],"trial_type":"preload","trial_index":3,"time_elapsed":128376,"internal_node_id":"0.0-3.0"},{"rt":16393.370000005234,"stimulus":"<h1 style:\"margin-top: 5%;\">Ejercicios de Comprensión de Lectura de la Universidad de Chile</h1><p style=\"font-size: 120%;\">En esta actividad, debes responder 24 preguntas de selección múltiple. Cada pregunta presenta 4 respuestas alternativas, pero sólo una de ellas es correcta. Por lo tanto, debes escoger una sola alternativa para cada pregunta. Además, debes reportar qué tan seguro(a) estás de la respuesta que das, con un:</p><ol style=\"font-size: 120%;text-align:left;margin-left: 40%;\"><li>No estoy seguro(a) para nada</li><li>No estoy muy seguro(a)</li><li>Estoy bastante seguro(a)</li><li>Estoy totalmente seguro(a)</li></ol><p style=\"font-size: 120%;\">Por favor lee bien los enunciados antes de responder. ¡Éxito!</p>","response":0,"trial_type":"html-button-response","trial_index":4,"time_elapsed":144770,"internal_node_id":"0.0-4.0"},{"rt":47629.704999999376,"responses":"{\"pregunta9\":\"b) preparar los recuerdos del mañana.\"}","question_order":"[0]","trial_type":"survey-multi-choice","trial_index":5,"time_elapsed":192403,"internal_node_id":"0.0-5.0-0.0"},{"rt":2883.6799999990035,"response":{"pregunta9 likert":2},"question_order":[0],"trial_type":"survey-likert","trial_index":6,"time_elapsed":195290,"internal_node_id":"0.0-5.0-1.0"},{"rt":3109294.88500001,"responses":"{\"pregunta10\":\"b) ritualistas y obsesivos.\"}","question_order":"[0]","trial_type":"survey-multi-choice","trial_index":7,"time_elapsed":3304586,"internal_node_id":"0.0-5.0-2.0"},{"rt":1591.0350000197068,"response":{"pregunta10 likert":1},"question_order":[0],"trial_type":"survey-likert","trial_index":8,"time_elapsed":3306179,"internal_node_id":"0.0-5.0-3.0"},{"rt":38518.66499998141,"responses":"{\"pregunta24\":\"c) para el mexicano, la muerte es cotidiana.\"}","question_order":"[0]","trial_type":"survey-multi-choice","trial_index":9,"time_elapsed":3344698,"internal_node_id":"0.0-5.0-4.0"},{"rt":1479.2249999884516,"response":{"pregunta24 likert":2},"question_order":[0],"trial_type":"survey-likert","trial_index":10,"time_elapsed":3346179,"internal_node_id":"0.0-5.0-5.0"},{"rt":684750.604999979,"responses":"{\"pregunta1\":\"c) Aportan informaciones con las que se reconstruye el personaje dentro de un relato.\"}","question_order":"[0]","trial_type":"survey-multi-choice","trial_index":11,"time_elapsed":4030931,"internal_node_id":"0.0-5.0-6.0"},{"rt":2142.0649999924935,"response":{"pregunta1 likert":1},"question_order":[0],"trial_type":"survey-likert","trial_index":12,"time_elapsed":4033075,"internal_node_id":"0.0-5.0-7.0"},{"rt":1059262.9799999995,"responses":"{\"pregunta19\":\"a) sufren dolores de espalda.\"}","question_order":"[0]","trial_type":"survey-multi-choice","trial_index":13,"time_elapsed":5092338,"internal_node_id":"0.0-5.0-8.0"},{"rt":2158.5799999888986,"response":{"pregunta19 likert":1},"question_order":[0],"trial_type":"survey-likert","trial_index":14,"time_elapsed":5094498,"internal_node_id":"0.0-5.0-9.0"},{"rt":49551.01500000432,"responses":"{\"pregunta17\":\"c) A la inexistencia de un recinto adecuado para el recital.\"}","question_order":"[0]","trial_type":"survey-multi-choice","trial_index":15,"time_elapsed":5144051,"internal_node_id":"0.0-5.0-10.0"},{"rt":2294.670000003651,"response":{"pregunta17 likert":1},"question_order":[0],"trial_type":"survey-likert","trial_index":16,"time_elapsed":5146347,"internal_node_id":"0.0-5.0-11.0"},{"rt":34862.785000003874,"responses":"{\"pregunta16\":\"a) Se debe crear un seguro médico especial para esta institución, pues es de alto riesgo.\"}","question_order":"[0]","trial_type":"survey-multi-choice","trial_index":17,"time_elapsed":5181210,"internal_node_id":"0.0-5.0-12.0"},{"rt":1303.0000000139698,"response":{"pregunta16 likert":2},"question_order":[0],"trial_type":"survey-likert","trial_index":18,"time_elapsed":5182514,"internal_node_id":"0.0-5.0-13.0"},{"rt":79831.07499999367,"responses":"{\"pregunta4\":\"a) En la literatura, el narrador expresa su voluntad de libertad.\"}","question_order":"[0]","trial_type":"survey-multi-choice","trial_index":19,"time_elapsed":5262346,"internal_node_id":"0.0-5.0-14.0"},{"rt":1974.5950000062585,"response":{"pregunta4 likert":1},"question_order":[0],"trial_type":"survey-likert","trial_index":20,"time_elapsed":5264322,"internal_node_id":"0.0-5.0-15.0"},{"rt":32855.270000000484,"responses":"{\"pregunta6\":\"b) Presentar positivamente las diversas tendencias del diseño de interiores a través de un comentario.\"}","question_order":"[0]","trial_type":"survey-multi-choice","trial_index":21,"time_elapsed":5297178,"internal_node_id":"0.0-5.0-16.0"},{"rt":1767.5600000079721,"response":{"pregunta6 likert":1},"question_order":[0],"trial_type":"survey-likert","trial_index":22,"time_elapsed":5298946,"internal_node_id":"0.0-5.0-17.0"},{"rt":17923752.125,"responses":"{\"pregunta20\":\"b) las personas excesivas son más felices.\"}","question_order":"[0]","trial_type":"survey-multi-choice","trial_index":23,"time_elapsed":23222701,"internal_node_id":"0.0-5.0-18.0"},{"rt":2698.954999998212,"response":{"pregunta20 likert":1},"question_order":[0],"trial_type":"survey-likert","trial_index":24,"time_elapsed":23225404,"internal_node_id":"0.0-5.0-19.0"},{"rt":112854.39000002295,"responses":"{\"pregunta11\":\"b) Provocar el deseo de la adquisición vertiginosa.\"}","question_order":"[0]","trial_type":"survey-multi-choice","trial_index":25,"time_elapsed":23338261,"internal_node_id":"0.0-5.0-20.0"},{"rt":1102.5000000074506,"response":{"pregunta11 likert":1},"question_order":[0],"trial_type":"survey-likert","trial_index":26,"time_elapsed":23339364,"internal_node_id":"0.0-5.0-21.0"},{"rt":200302.47500000522,"responses":"{\"pregunta13\":\"b) A la inutilidad de tanto esfuerzo si el objetivo es el reposo.\"}","question_order":"[0]","trial_type":"survey-multi-choice","trial_index":27,"time_elapsed":23539667,"internal_node_id":"0.0-5.0-22.0"},{"rt":1926.8950000107288,"response":{"pregunta13 likert":1},"question_order":[0],"trial_type":"survey-likert","trial_index":28,"time_elapsed":23541595,"internal_node_id":"0.0-5.0-23.0"},{"rt":1975.0899999961257,"responses":"{\"pregunta14\":\"b) sólo las leyes bastan para gobernarse.\"}","question_order":"[0]","trial_type":"survey-multi-choice","trial_index":29,"time_elapsed":23543571,"internal_node_id":"0.0-5.0-24.0"},{"rt":1175.0799999833107,"response":{"pregunta14 likert":1},"question_order":[0],"trial_type":"survey-likert","trial_index":30,"time_elapsed":23544748,"internal_node_id":"0.0-5.0-25.0"},{"rt":89270.9299999997,"responses":"{\"pregunta5\":\"a) La escritura olvida los momentos insignificantes de los viajes.\"}","question_order":"[0]","trial_type":"survey-multi-choice","trial_index":31,"time_elapsed":23634020,"internal_node_id":"0.0-5.0-26.0"},{"rt":3798.9149999953806,"response":{"pregunta5 likert":1},"question_order":[0],"trial_type":"survey-likert","trial_index":32,"time_elapsed":23637820,"internal_node_id":"0.0-5.0-27.0"},{"rt":243438.79499999434,"responses":"{\"pregunta23\":\"b) el jardinero estará muerto al día siguiente.\"}","question_order":"[0]","trial_type":"survey-multi-choice","trial_index":33,"time_elapsed":23881260,"internal_node_id":"0.0-5.0-28.0"},{"rt":1783.0050000026822,"response":{"pregunta23 likert":2},"question_order":[0],"trial_type":"survey-likert","trial_index":34,"time_elapsed":23883044,"internal_node_id":"0.0-5.0-29.0"},{"rt":222742.83000000566,"responses":"{\"pregunta18\":\"a) El receptor es habitualmente pasivo frente a la publicidad.\"}","question_order":"[0]","trial_type":"survey-multi-choice","trial_index":35,"time_elapsed":24105788,"internal_node_id":"0.0-5.0-30.0"},{"rt":1246.9100000150502,"response":{"pregunta18 likert":1},"question_order":[0],"trial_type":"survey-likert","trial_index":36,"time_elapsed":24107036,"internal_node_id":"0.0-5.0-31.0"},{"rt":1990.2449999935925,"responses":"{\"pregunta15\":\"b) a partir de la manipulación del núcleo se han creado elementos químicos naturales.\"}","question_order":"[0]","trial_type":"survey-multi-choice","trial_index":37,"time_elapsed":24109028,"internal_node_id":"0.0-5.0-32.0"},{"rt":1303.3400000147521,"response":{"pregunta15 likert":1},"question_order":[0],"trial_type":"survey-likert","trial_index":38,"time_elapsed":24110332,"internal_node_id":"0.0-5.0-33.0"},{"rt":25334.795000001788,"responses":"{\"pregunta22\":\"a) Las personas públicas no tienen vida privada.\"}","question_order":"[0]","trial_type":"survey-multi-choice","trial_index":39,"time_elapsed":24135668,"internal_node_id":"0.0-5.0-34.0"},{"rt":3343.135000001639,"response":{"pregunta22 likert":1},"question_order":[0],"trial_type":"survey-likert","trial_index":40,"time_elapsed":24139012,"internal_node_id":"0.0-5.0-35.0"},{"rt":66958.16999999434,"responses":"{\"pregunta3\":\"a) El inicio de la dinastía Chang.\"}","question_order":"[0]","trial_type":"survey-multi-choice","trial_index":41,"time_elapsed":24205972,"internal_node_id":"0.0-5.0-36.0"},{"rt":2239.5400000065565,"response":{"pregunta3 likert":1},"question_order":[0],"trial_type":"survey-likert","trial_index":42,"time_elapsed":24208213,"internal_node_id":"0.0-5.0-37.0"},{"rt":95798.45000000298,"responses":"{\"pregunta21\":\"a) El TLC causará una completa transformación de la economía chilena.\"}","question_order":"[0]","trial_type":"survey-multi-choice","trial_index":43,"time_elapsed":24304012,"internal_node_id":"0.0-5.0-38.0"},{"rt":1246.3700000047684,"response":{"pregunta21 likert":2},"question_order":[0],"trial_type":"survey-likert","trial_index":44,"time_elapsed":24305259,"internal_node_id":"0.0-5.0-39.0"},{"rt":67615.43499998748,"responses":"{\"pregunta7\":\"a) se da como existente, y sólo se discute su relación con el cuerpo.\"}","question_order":"[0]","trial_type":"survey-multi-choice","trial_index":45,"time_elapsed":24372876,"internal_node_id":"0.0-5.0-40.0"},{"rt":1216.250000026077,"response":{"pregunta7 likert":1},"question_order":[0],"trial_type":"survey-likert","trial_index":46,"time_elapsed":24374094,"internal_node_id":"0.0-5.0-41.0"},{"rt":1972.4200000092387,"responses":"{\"pregunta8\":\"a) El ser humano se comporta de acuerdo con las circunstancias.\"}","question_order":"[0]","trial_type":"survey-multi-choice","trial_index":47,"time_elapsed":24376068,"internal_node_id":"0.0-5.0-42.0"},{"rt":1871.1750000081956,"response":{"pregunta8 likert":1},"question_order":[0],"trial_type":"survey-likert","trial_index":48,"time_elapsed":24377940,"internal_node_id":"0.0-5.0-43.0"},{"rt":131831.2049999945,"responses":"{\"pregunta2\":\"d) A la relación entre sociedad y constitución social.\"}","question_order":"[0]","trial_type":"survey-multi-choice","trial_index":49,"time_elapsed":24509773,"internal_node_id":"0.0-5.0-44.0"},{"rt":1622.08500001207,"response":{"pregunta2 likert":1},"question_order":[0],"trial_type":"survey-likert","trial_index":50,"time_elapsed":24511396,"internal_node_id":"0.0-5.0-45.0"},{"rt":15670.249999996275,"responses":"{\"pregunta12\":\"c) Homenajear a quienes murieron.\"}","question_order":"[0]","trial_type":"survey-multi-choice","trial_index":51,"time_elapsed":24527068,"internal_node_id":"0.0-5.0-46.0"},{"rt":1350.1800000071526,"response":{"pregunta12 likert":1},"question_order":[0],"trial_type":"survey-likert","trial_index":52,"time_elapsed":24528420,"internal_node_id":"0.0-5.0-47.0"}]