[{"rt":76529.89999997616,"stimulus":"<h1 style=\"color:red; margin-top: 3%;\">¡Bienvenido(a)!</h1><p style=\"text-align:left; justify-content:space-between; margin-right: 5%; margin-left: 5%; margin-top: 5%\"> Antes de empezar el estudio, necesitamos que nos confirmes que estás de acuerdo con participar. Recuerda que tu participación es 100% voluntaria y que lo único que te pedimos es responder lo mejor que puedas. Recuerda también que el estudio incluye:</p><ol style=\"text-align:left; justify-content:space-between; margin-right: 5%; margin-left: 5%;\"><li> un ejercicio de resolución de preguntas de selección múltiple (30’),</li><li>un cuestionario breve (5’),</li><li>un juego muy breve (3’),</li></ol><p style=\"text-align:left; justify-content:space-between; margin-right: 5%; margin-left: 5%;\">Si quieres participar, haz clic en “Acepto” luego de leer lo siguiente:<br></p><p style=\"text-align:left; justify-content:space-between; margin-right: 5%; margin-left: 5%;\">Acepto participar en el estudio “Estrategias de lectura y resolución de preguntas de selección múltiple”, en los términos aquí señalados:<br></p><p style=\"text-align:left; justify-content:space-between; margin-right: 5%; margin-left: 5%;\"><a href=\"http://ciae.uchile.cl/download.php?file=noticias/Asentimiento.pdf\" target=\"_blank\">Link a la hoja de información del Consentimiento.</a></p><p style=\"text-align:left; justify-content:space-between; margin-right: 5%; margin-left: 5%;\">Declaro que he leído (o se me ha leído) y (he) comprendido, las condiciones de mi participación en este estudio. He tenido la oportunidad de hacer preguntas y éstas han sido respondidas. No tengo dudas al respecto.</p>","response":0,"condicion_MCQ":5,"condicion_JUEGO":5,"condicion_INTER":5,"numero_participante":5,"numero_version":1,"dimx":1280,"dimy":720,"color_profundidad":24,"pixel_profundidad":24,"Browser":"Google Chrome","dia":2,"mes":5,"hora":19,"minuto":26,"segundo":43,"trial_type":"html-button-response","trial_index":0,"time_elapsed":76535,"internal_node_id":"0.0-0.0"},{"success":true,"trial_type":"fullscreen","trial_index":1,"time_elapsed":83863,"internal_node_id":"0.0-1.0"},{"rt":215921,"responses":"{\"Nombres\":\"Aline Alejandra\",\"Apellidos\":\"Rubilar Garces\",\"Edad\":\"18\",\"Sexo\":\"mujer\",\"Curso\":\"Seccion 204\",\"Colegio\":\"Andres  Bello\",\"Contacto\":\"alin.garces.r@gmail.com\"}","trial_type":"survey-text","trial_index":2,"time_elapsed":299796,"internal_node_id":"0.0-2.0"},{"success":true,"timeout":false,"failed_images":[],"failed_audio":[],"failed_video":[],"trial_type":"preload","trial_index":3,"time_elapsed":300744,"internal_node_id":"0.0-3.0"},{"rt":18673,"stimulus":"<h1 style:\"margin-top: 5%;\">Ejercicios de Comprensión de Lectura de la Universidad de Chile</h1><p style=\"font-size: 120%;\">En esta actividad, debes responder 24 preguntas de selección múltiple. Cada pregunta presenta 4 respuestas alternativas, pero sólo una de ellas es correcta. Por lo tanto, debes escoger una sola alternativa para cada pregunta. Además, debes reportar qué tan seguro(a) estás de la respuesta que das, con un:</p><ol style=\"font-size: 120%;text-align:left;margin-left: 40%;\"><li>No estoy seguro(a) para nada</li><li>No estoy muy seguro(a)</li><li>Estoy bastante seguro(a)</li><li>Estoy totalmente seguro(a)</li></ol><p style=\"font-size: 120%;\">Por favor lee bien los enunciados antes de responder. ¡Éxito!</p>","response":0,"trial_type":"html-button-response","trial_index":4,"time_elapsed":319419,"internal_node_id":"0.0-4.0"},{"rt":252221.60000002384,"responses":"{\"pregunta9\":\"a) preparar los recuerdos del mañana.\"}","question_order":"[0]","trial_type":"survey-multi-choice","trial_index":5,"time_elapsed":571642,"internal_node_id":"0.0-5.0-0.0"},{"rt":4767.300000011921,"response":{"pregunta9 likert":1},"question_order":[0],"trial_type":"survey-likert","trial_index":6,"time_elapsed":576413,"internal_node_id":"0.0-5.0-1.0"},{"rt":124066.19999998808,"responses":"{\"pregunta6\":\"a) Presentar positivamente las diversas tendencias del diseño de interiores a través de un comentario.\"}","question_order":"[0]","trial_type":"survey-multi-choice","trial_index":7,"time_elapsed":700482,"internal_node_id":"0.0-5.0-2.0"},{"rt":3283.300000011921,"response":{"pregunta6 likert":2},"question_order":[0],"trial_type":"survey-likert","trial_index":8,"time_elapsed":703767,"internal_node_id":"0.0-5.0-3.0"},{"rt":82507.59999996424,"responses":"{\"pregunta23\":\"a) el jardinero estará muerto al día siguiente.\"}","question_order":"[0]","trial_type":"survey-multi-choice","trial_index":9,"time_elapsed":786276,"internal_node_id":"0.0-5.0-4.0"},{"rt":4862.200000047684,"response":{"pregunta23 likert":2},"question_order":[0],"trial_type":"survey-likert","trial_index":10,"time_elapsed":791141,"internal_node_id":"0.0-5.0-5.0"},{"rt":57214.60000002384,"responses":"{\"pregunta22\":\"a) Se necesita un marco legal para delimitar lo público y lo privado en materia informativa.\"}","question_order":"[0]","trial_type":"survey-multi-choice","trial_index":11,"time_elapsed":848357,"internal_node_id":"0.0-5.0-6.0"},{"rt":2814.300000011921,"response":{"pregunta22 likert":2},"question_order":[0],"trial_type":"survey-likert","trial_index":12,"time_elapsed":851175,"internal_node_id":"0.0-5.0-7.0"},{"rt":58505.299999952316,"responses":"{\"pregunta21\":\"b) El TLC causará una completa transformación de la economía chilena.\"}","question_order":"[0]","trial_type":"survey-multi-choice","trial_index":13,"time_elapsed":909684,"internal_node_id":"0.0-5.0-8.0"},{"rt":3375.300000011921,"response":{"pregunta21 likert":2},"question_order":[0],"trial_type":"survey-likert","trial_index":14,"time_elapsed":913061,"internal_node_id":"0.0-5.0-9.0"},{"rt":100125.30000001192,"responses":"{\"pregunta11\":\"a) Provocar el deseo de la adquisición vertiginosa.\"}","question_order":"[0]","trial_type":"survey-multi-choice","trial_index":15,"time_elapsed":1013189,"internal_node_id":"0.0-5.0-10.0"},{"rt":3334.399999976158,"response":{"pregunta11 likert":3},"question_order":[0],"trial_type":"survey-likert","trial_index":16,"time_elapsed":1016525,"internal_node_id":"0.0-5.0-11.0"},{"rt":120721.70000004768,"responses":"{\"pregunta4\":\"c) En la literatura como en la vida, lo importante son las preguntas.\"}","question_order":"[0]","trial_type":"survey-multi-choice","trial_index":17,"time_elapsed":1137248,"internal_node_id":"0.0-5.0-12.0"},{"rt":3521.100000023842,"response":{"pregunta4 likert":1},"question_order":[0],"trial_type":"survey-likert","trial_index":18,"time_elapsed":1140771,"internal_node_id":"0.0-5.0-13.0"},{"rt":70967.69999998808,"responses":"{\"pregunta17\":\"c) A la influencia de grupos que rechazaban su música.\"}","question_order":"[0]","trial_type":"survey-multi-choice","trial_index":19,"time_elapsed":1211741,"internal_node_id":"0.0-5.0-14.0"},{"rt":3597.2999999523163,"response":{"pregunta17 likert":2},"question_order":[0],"trial_type":"survey-likert","trial_index":20,"time_elapsed":1215341,"internal_node_id":"0.0-5.0-15.0"},{"rt":70809.39999997616,"responses":"{\"pregunta2\":\"b) A la relación entre pensamiento y estructura social.\"}","question_order":"[0]","trial_type":"survey-multi-choice","trial_index":21,"time_elapsed":1286152,"internal_node_id":"0.0-5.0-16.0"},{"rt":2737,"response":{"pregunta2 likert":2},"question_order":[0],"trial_type":"survey-likert","trial_index":22,"time_elapsed":1288892,"internal_node_id":"0.0-5.0-17.0"},{"rt":54800.69999998808,"responses":"{\"pregunta15\":\"a) la creación de elementos químicos artificiales ha resultado de la manipulación del uranio.\"}","question_order":"[0]","trial_type":"survey-multi-choice","trial_index":23,"time_elapsed":1343695,"internal_node_id":"0.0-5.0-18.0"},{"rt":2218.399999976158,"response":{"pregunta15 likert":2},"question_order":[0],"trial_type":"survey-likert","trial_index":24,"time_elapsed":1345916,"internal_node_id":"0.0-5.0-19.0"},{"rt":302100.39999997616,"responses":"{\"pregunta18\":\"b) La publicidad ejerce una influencia positiva sobre la sociedad.\"}","question_order":"[0]","trial_type":"survey-multi-choice","trial_index":25,"time_elapsed":1648019,"internal_node_id":"0.0-5.0-20.0"},{"rt":2628.100000023842,"response":{"pregunta18 likert":0},"question_order":[0],"trial_type":"survey-likert","trial_index":26,"time_elapsed":1650649,"internal_node_id":"0.0-5.0-21.0"},{"rt":45005.39999997616,"responses":"{\"pregunta24\":\"b) para el mexicano, la muerte es cotidiana.\"}","question_order":"[0]","trial_type":"survey-multi-choice","trial_index":27,"time_elapsed":1695656,"internal_node_id":"0.0-5.0-22.0"},{"rt":2190.100000023842,"response":{"pregunta24 likert":1},"question_order":[0],"trial_type":"survey-likert","trial_index":28,"time_elapsed":1697848,"internal_node_id":"0.0-5.0-23.0"},{"rt":81688.5,"responses":"{\"pregunta8\":\"d) El ser humano se comporta de acuerdo con las circunstancias.\"}","question_order":"[0]","trial_type":"survey-multi-choice","trial_index":29,"time_elapsed":1779539,"internal_node_id":"0.0-5.0-24.0"},{"rt":3131.399999976158,"response":{"pregunta8 likert":1},"question_order":[0],"trial_type":"survey-likert","trial_index":30,"time_elapsed":1782673,"internal_node_id":"0.0-5.0-25.0"},{"rt":93781.5,"responses":"{\"pregunta10\":\"a) ritualistas y obsesivos.\"}","question_order":"[0]","trial_type":"survey-multi-choice","trial_index":31,"time_elapsed":1876456,"internal_node_id":"0.0-5.0-26.0"},{"rt":5818.100000023842,"response":{"pregunta10 likert":2},"question_order":[0],"trial_type":"survey-likert","trial_index":32,"time_elapsed":1882276,"internal_node_id":"0.0-5.0-27.0"},{"rt":72980.80000007153,"responses":"{\"pregunta14\":\"b) el mejor emperador es el que está muerto.\"}","question_order":"[0]","trial_type":"survey-multi-choice","trial_index":33,"time_elapsed":1955259,"internal_node_id":"0.0-5.0-28.0"},{"rt":5660.699999928474,"response":{"pregunta14 likert":1},"question_order":[0],"trial_type":"survey-likert","trial_index":34,"time_elapsed":1960922,"internal_node_id":"0.0-5.0-29.0"},{"rt":150206.59999990463,"responses":"{\"pregunta1\":\"b) Aportan informaciones con las que se reconstruye el personaje dentro de un relato.\"}","question_order":"[0]","trial_type":"survey-multi-choice","trial_index":35,"time_elapsed":2111131,"internal_node_id":"0.0-5.0-30.0"},{"rt":2486,"response":{"pregunta1 likert":2},"question_order":[0],"trial_type":"survey-likert","trial_index":36,"time_elapsed":2113620,"internal_node_id":"0.0-5.0-31.0"},{"rt":65849.60000002384,"responses":"{\"pregunta12\":\"b) Homenajear a quienes murieron.\"}","question_order":"[0]","trial_type":"survey-multi-choice","trial_index":37,"time_elapsed":2179471,"internal_node_id":"0.0-5.0-32.0"},{"rt":2607.100000023842,"response":{"pregunta12 likert":2},"question_order":[0],"trial_type":"survey-likert","trial_index":38,"time_elapsed":2182080,"internal_node_id":"0.0-5.0-33.0"},{"rt":57369.5,"responses":"{\"pregunta3\":\"a) El inicio de la dinastía Chang.\"}","question_order":"[0]","trial_type":"survey-multi-choice","trial_index":39,"time_elapsed":2239452,"internal_node_id":"0.0-5.0-34.0"},{"rt":5833.299999952316,"response":{"pregunta3 likert":2},"question_order":[0],"trial_type":"survey-likert","trial_index":40,"time_elapsed":2245287,"internal_node_id":"0.0-5.0-35.0"},{"rt":48646.299999952316,"responses":"{\"pregunta5\":\"c) Los momentos triviales de los viajes, en la escritura se vuelven significativos.\"}","question_order":"[0]","trial_type":"survey-multi-choice","trial_index":41,"time_elapsed":2293935,"internal_node_id":"0.0-5.0-36.0"},{"rt":5374.100000023842,"response":{"pregunta5 likert":2},"question_order":[0],"trial_type":"survey-likert","trial_index":42,"time_elapsed":2299311,"internal_node_id":"0.0-5.0-37.0"},{"rt":64791.5,"responses":"{\"pregunta7\":\"d) se da como existente, y sólo se discute su relación con el cuerpo.\"}","question_order":"[0]","trial_type":"survey-multi-choice","trial_index":43,"time_elapsed":2364105,"internal_node_id":"0.0-5.0-38.0"},{"rt":3064.7000000476837,"response":{"pregunta7 likert":2},"question_order":[0],"trial_type":"survey-likert","trial_index":44,"time_elapsed":2367171,"internal_node_id":"0.0-5.0-39.0"},{"rt":111889.89999997616,"responses":"{\"pregunta19\":\"d) sufren dolores de espalda.\"}","question_order":"[0]","trial_type":"survey-multi-choice","trial_index":45,"time_elapsed":2479063,"internal_node_id":"0.0-5.0-40.0"},{"rt":2808.100000023842,"response":{"pregunta19 likert":2},"question_order":[0],"trial_type":"survey-likert","trial_index":46,"time_elapsed":2481874,"internal_node_id":"0.0-5.0-41.0"},{"rt":190825.29999995232,"responses":"{\"pregunta20\":\"c) el sujeto sufre con su modo de vida.\"}","question_order":"[0]","trial_type":"survey-multi-choice","trial_index":47,"time_elapsed":2672702,"internal_node_id":"0.0-5.0-42.0"},{"rt":2970.100000023842,"response":{"pregunta20 likert":2},"question_order":[0],"trial_type":"survey-likert","trial_index":48,"time_elapsed":2675674,"internal_node_id":"0.0-5.0-43.0"},{"rt":47800.800000071526,"responses":"{\"pregunta13\":\"b) Al premio merecido después de tantos esfuerzos.\"}","question_order":"[0]","trial_type":"survey-multi-choice","trial_index":49,"time_elapsed":2723477,"internal_node_id":"0.0-5.0-44.0"},{"rt":2340.2000000476837,"response":{"pregunta13 likert":2},"question_order":[0],"trial_type":"survey-likert","trial_index":50,"time_elapsed":2725819,"internal_node_id":"0.0-5.0-45.0"},{"rt":74288.5,"responses":"{\"pregunta16\":\"c) Bomberos debería tener acceso a un seguro médico, al que pueda recurrir en caso de accidente.\"}","question_order":"[0]","trial_type":"survey-multi-choice","trial_index":51,"time_elapsed":2800110,"internal_node_id":"0.0-5.0-46.0"},{"rt":2233.399999976158,"response":{"pregunta16 likert":1},"question_order":[0],"trial_type":"survey-likert","trial_index":52,"time_elapsed":2802345,"internal_node_id":"0.0-5.0-47.0"},{"rt":2726.8000000715256,"stimulus":"<p style=\"font-size: 120%\">Gracias por completar esta etapa del estudio. Ahora te invitamos a responder el cuestionario.<br><br></p>","response":0,"trial_type":"html-button-response","trial_index":53,"time_elapsed":2805076,"internal_node_id":"0.0-6.0"},{"rt":7361,"stimulus":"<h1 style=\"margin-top: 5%\">Cuestionario para la Evaluación de Metas Académicas</h1><p style=\"font-size: 120%; margin-left: 3%; margin-top: 5%\">Este es un cuestionario que permite conocer cuáles son los principales motivos por los que los estudiantes se esfuerzan en su trabajo académico. A continuación, se te presentarán una serie de afirmaciones acerca de los motivos que puedes tener para estudiar.<br>Te pedimos que contestes a dichas afirmaciones reflexionando sobre el contenido de cada una de ellas, que, aunque te parezcan semejantes, en realidad, no lo son.<br>NO HAY RESPUESTAS CORRECTAS o INCORRECTAS, sólo queremos que respondas con la mayor precisión y sinceridad posible a las preguntas que se plantean.","response":0,"trial_type":"html-button-response","trial_index":54,"time_elapsed":2812439,"internal_node_id":"0.0-7.0"},{"rt":121796.30000007153,"response":{"Metas cuestionario pregunta1":4,"Metas cuestionario pregunta2":4,"Metas cuestionario pregunta3":4,"Metas cuestionario pregunta4":4,"Metas cuestionario pregunta5":4,"Metas cuestionario pregunta6":4,"Metas cuestionario pregunta7":4,"Metas cuestionario pregunta8":4,"Metas cuestionario pregunta9":3,"Metas cuestionario pregunta10":0,"Metas cuestionario pregunta11":0,"Metas cuestionario pregunta12":0,"Metas cuestionario pregunta13":0,"Metas cuestionario pregunta14":0,"Metas cuestionario pregunta15":4,"Metas cuestionario pregunta16":4,"Metas cuestionario pregunta17":4,"Metas cuestionario pregunta18":4,"Metas cuestionario pregunta19":4,"Metas cuestionario pregunta20":2},"question_order":[0,1,2,3,4,5,6,7,8,9,10,11,12,13,14,15,16,17,18,19],"trial_type":"survey-likert","trial_index":55,"time_elapsed":2934241,"internal_node_id":"0.0-8.0"},{"rt":2530.3000000715256,"stimulus":"<p style=\"font-size: 120%\">Gracias por responder el cuestionario. Ahora te invitamos a seguir con el juego, que es muy breve.<br><br></p>","response":0,"trial_type":"html-button-response","trial_index":56,"time_elapsed":2936774,"internal_node_id":"0.0-9.0"},{"rt":8274.5,"stimulus":"<h1>Juego</h1><p style=\"font-size: 120%;\">A continuación se te presentarán 16 pequeñas historias.<br>Por favor lee el texto presentado en cada una de ellas y luego haz click en el objeto de tu elección.<br>Si estás listo(a),<span style=\"color:red;\"> haz click en \"comenzar\"</span>.</p>","response":0,"trial_type":"html-button-response","trial_index":57,"time_elapsed":2945051,"internal_node_id":"0.0-10.0"},{"rt":8544.699999928474,"grid":[[1,1,1,1]],"target":[0,0],"response":[0,1],"correct":false,"juego":7,"trial_type":"serial-reaction-time-mouse","trial_index":58,"time_elapsed":2953598,"internal_node_id":"0.0-11.0-0.0"},{"rt":20363.899999976158,"grid":[[1,1,1,1],[1,1,1,1],[1,1,1,1],[1,1,1,1],[1,1,1,1],[1,1,1,1],[1,1,1,1],[1,1,1,1],[1,1,1,1]],"target":[0,0],"response":[5,2],"correct":false,"juego":15,"trial_type":"serial-reaction-time-mouse","trial_index":59,"time_elapsed":2973964,"internal_node_id":"0.0-11.0-1.0"},{"rt":12265.600000023842,"grid":[[1,1,1],[1,1,1],[1,1,1],[1,1,1],[1,1,1],[1,1,1],[1,1,1],[1,1,1],[1,1,1]],"target":[0,0],"response":[1,2],"correct":false,"juego":10,"trial_type":"serial-reaction-time-mouse","trial_index":60,"time_elapsed":2986233,"internal_node_id":"0.0-11.0-2.0"},{"rt":9303.399999976158,"grid":[[1,1,1,1]],"target":[0,0],"response":[0,1],"correct":false,"juego":12,"trial_type":"serial-reaction-time-mouse","trial_index":61,"time_elapsed":2995538,"internal_node_id":"0.0-11.0-3.0"},{"rt":9925.299999952316,"grid":[[1,1,1,1]],"target":[0,0],"response":[0,3],"correct":false,"juego":8,"trial_type":"serial-reaction-time-mouse","trial_index":62,"time_elapsed":3005465,"internal_node_id":"0.0-11.0-4.0"},{"rt":27947.799999952316,"grid":[[1,1,1,1]],"target":[0,0],"response":[0,1],"correct":false,"juego":11,"trial_type":"serial-reaction-time-mouse","trial_index":63,"time_elapsed":3033415,"internal_node_id":"0.0-11.0-5.0"},{"rt":6372.899999976158,"grid":[[1],[1],[1],[1]],"target":[0,0],"response":[0,0],"correct":true,"juego":4,"trial_type":"serial-reaction-time-mouse","trial_index":64,"time_elapsed":3039790,"internal_node_id":"0.0-11.0-6.0"},{"rt":8797.300000071526,"grid":[[1,1,1,1]],"target":[0,0],"response":[0,0],"correct":true,"juego":3,"trial_type":"serial-reaction-time-mouse","trial_index":65,"time_elapsed":3048589,"internal_node_id":"0.0-11.0-7.0"},{"rt":7781,"grid":[[1,1,1],[1,1,1],[1,1,1],[1,1,1],[1,1,1],[1,1,1],[1,1,1],[1,1,1],[1,1,1]],"target":[0,0],"response":[1,1],"correct":false,"juego":5,"trial_type":"serial-reaction-time-mouse","trial_index":66,"time_elapsed":3056373,"internal_node_id":"0.0-11.0-8.0"},{"rt":8481.799999952316,"grid":[[1,1,1,1],[1,1,1,1],[1,1,1,1],[1,1,1,1],[1,1,1,1],[1,1,1,1],[1,1,1,1],[1,1,1,1],[1,1,1,1]],"target":[0,0],"response":[5,2],"correct":false,"juego":14,"trial_type":"serial-reaction-time-mouse","trial_index":67,"time_elapsed":3064857,"internal_node_id":"0.0-11.0-9.0"},{"rt":8674,"grid":[[1,1,1],[1,1,1],[1,1,1],[1,1,1],[1,1,1],[1,1,1],[1,1,1],[1,1,1],[1,1,1]],"target":[0,0],"response":[5,1],"correct":false,"juego":13,"trial_type":"serial-reaction-time-mouse","trial_index":68,"time_elapsed":3073536,"internal_node_id":"0.0-11.0-10.0"},{"rt":5090.899999976158,"grid":[[1,1,1],[1,1,1],[1,1,1],[1,1,1],[1,1,1],[1,1,1],[1,1,1],[1,1,1],[1,1,1]],"target":[0,0],"response":[1,1],"correct":false,"juego":6,"trial_type":"serial-reaction-time-mouse","trial_index":69,"time_elapsed":3078629,"internal_node_id":"0.0-11.0-11.0"},{"rt":7611.799999952316,"grid":[[1,1,1,1]],"target":[0,0],"response":[0,2],"correct":false,"juego":9,"trial_type":"serial-reaction-time-mouse","trial_index":70,"time_elapsed":3086243,"internal_node_id":"0.0-11.0-12.0"},{"rt":5139,"grid":[[1,1,1,1]],"target":[0,0],"response":[0,0],"correct":true,"juego":2,"trial_type":"serial-reaction-time-mouse","trial_index":71,"time_elapsed":3091386,"internal_node_id":"0.0-11.0-13.0"},{"rt":2785.5,"grid":[[1,1,1,1]],"target":[0,0],"response":[0,0],"correct":true,"juego":1,"trial_type":"serial-reaction-time-mouse","trial_index":72,"time_elapsed":3094173,"internal_node_id":"0.0-11.0-14.0"}]