[{"rt":44498.03999999949,"stimulus":"<h1 style=\"color:red; margin-top: 3%;\">¡Bienvenido(a)!</h1><p style=\"text-align:left; justify-content:space-between; margin-right: 5%; margin-left: 5%; margin-top: 5%\"> Antes de empezar el estudio, necesitamos que nos confirmes que estás de acuerdo con participar. Recuerda que tu participación es 100% voluntaria y que lo único que te pedimos es responder lo mejor que puedas. Recuerda también que el estudio incluye:</p><ol style=\"text-align:left; justify-content:space-between; margin-right: 5%; margin-left: 5%;\"><li> un ejercicio de resolución de preguntas de selección múltiple (30’),</li><li>un cuestionario breve (5’),</li><li>un juego muy breve (3’),</li></ol><p style=\"text-align:left; justify-content:space-between; margin-right: 5%; margin-left: 5%;\">Si quieres participar, haz clic en “Acepto” luego de leer lo siguiente:<br></p><p style=\"text-align:left; justify-content:space-between; margin-right: 5%; margin-left: 5%;\">Acepto participar en el estudio “Estrategias de lectura y resolución de preguntas de selección múltiple”, en los términos aquí señalados:<br></p><p style=\"text-align:left; justify-content:space-between; margin-right: 5%; margin-left: 5%;\"><a href=\"http://ciae.uchile.cl/download.php?file=noticias/Asentimiento.pdf\" target=\"_blank\">Link a la hoja de información del Consentimiento.</a></p><p style=\"text-align:left; justify-content:space-between; margin-right: 5%; margin-left: 5%;\">Declaro que he leído (o se me ha leído) y (he) comprendido, las condiciones de mi participación en este estudio. He tenido la oportunidad de hacer preguntas y éstas han sido respondidas. No tengo dudas al respecto.</p>","response":0,"condicion_MCQ":5,"condicion_JUEGO":17,"condicion_INTER":17,"numero_participante":41,"numero_version":2,"dimx":1280,"dimy":800,"color_profundidad":24,"pixel_profundidad":24,"Browser":"Google Chrome","dia":7,"mes":5,"hora":16,"minuto":37,"segundo":27,"trial_type":"html-button-response","trial_index":0,"time_elapsed":44501,"internal_node_id":"0.0-0.0"},{"success":true,"trial_type":"fullscreen","trial_index":1,"time_elapsed":264249,"internal_node_id":"0.0-1.0"},{"rt":247125.24500000017,"responses":"{\"Nombres\":\"Catalina Paz\",\"Apellidos\":\"Céspedes Urrutia\",\"Edad\":\"18\",\"Sexo\":\"mujer\",\"Curso\":\"sección 205\",\"Colegio\":\"Andres Bello\",\"Contacto\":\"pazcespedesurrutia@gmail.com\"}","trial_type":"survey-text","trial_index":2,"time_elapsed":511375,"internal_node_id":"0.0-2.0"},{"success":true,"timeout":false,"failed_images":[],"failed_audio":[],"failed_video":[],"trial_type":"preload","trial_index":3,"time_elapsed":512827,"internal_node_id":"0.0-3.0"},{"rt":38801.24000000069,"stimulus":"<h1 style:\"margin-top: 5%;\">Ejercicios de Comprensión de Lectura de la Universidad de Chile</h1><p style=\"font-size: 120%;\">En esta actividad, debes responder 24 preguntas de selección múltiple. Cada pregunta presenta 4 respuestas alternativas, pero sólo una de ellas es correcta. Por lo tanto, debes escoger una sola alternativa para cada pregunta. Además, debes reportar qué tan seguro(a) estás de la respuesta que das, con un:</p><ol style=\"font-size: 120%;text-align:left;margin-left: 40%;\"><li>No estoy seguro(a) para nada</li><li>No estoy muy seguro(a)</li><li>Estoy bastante seguro(a)</li><li>Estoy totalmente seguro(a)</li></ol><p style=\"font-size: 120%;\">Por favor lee bien los enunciados antes de responder. ¡Éxito!</p>","response":0,"trial_type":"html-button-response","trial_index":4,"time_elapsed":551629,"internal_node_id":"0.0-4.0"},{"rt":119927.3400000002,"responses":"{\"pregunta12\":\"b) Homenajear a quienes murieron.\"}","question_order":"[0]","trial_type":"survey-multi-choice","trial_index":5,"time_elapsed":671690,"internal_node_id":"0.0-5.0-0.0"},{"rt":2669.9949999983655,"response":{"pregunta12 likert":3},"question_order":[0],"trial_type":"survey-likert","trial_index":6,"time_elapsed":674363,"internal_node_id":"0.0-5.0-1.0"},{"rt":148011.2149999987,"responses":"{\"pregunta18\":\"d) El receptor es habitualmente pasivo frente a la publicidad.\"}","question_order":"[0]","trial_type":"survey-multi-choice","trial_index":7,"time_elapsed":822372,"internal_node_id":"0.0-5.0-2.0"},{"rt":3614.4700000004377,"response":{"pregunta18 likert":1},"question_order":[0],"trial_type":"survey-likert","trial_index":8,"time_elapsed":825989,"internal_node_id":"0.0-5.0-3.0"},{"rt":43702.134999999544,"responses":"{\"pregunta1\":\"a) Entregan una característica detallada del personaje, a través de la voz narrativa.\"}","question_order":"[0]","trial_type":"survey-multi-choice","trial_index":9,"time_elapsed":869693,"internal_node_id":"0.0-5.0-4.0"},{"rt":1767.1699999991106,"response":{"pregunta1 likert":2},"question_order":[0],"trial_type":"survey-likert","trial_index":10,"time_elapsed":871462,"internal_node_id":"0.0-5.0-5.0"},{"rt":111142.5899999995,"responses":"{\"pregunta5\":\"c) Los momentos triviales de los viajes, en la escritura se vuelven significativos.\"}","question_order":"[0]","trial_type":"survey-multi-choice","trial_index":11,"time_elapsed":982604,"internal_node_id":"0.0-5.0-6.0"},{"rt":1723.4000000007218,"response":{"pregunta5 likert":2},"question_order":[0],"trial_type":"survey-likert","trial_index":12,"time_elapsed":984331,"internal_node_id":"0.0-5.0-7.0"},{"rt":59363.72999999917,"responses":"{\"pregunta7\":\"d) se da como existente, y sólo se discute su relación con el cuerpo.\"}","question_order":"[0]","trial_type":"survey-multi-choice","trial_index":13,"time_elapsed":1043696,"internal_node_id":"0.0-5.0-8.0"},{"rt":1582.6049999996321,"response":{"pregunta7 likert":2},"question_order":[0],"trial_type":"survey-likert","trial_index":14,"time_elapsed":1045281,"internal_node_id":"0.0-5.0-9.0"},{"rt":39165.79500000074,"responses":"{\"pregunta9\":\"b) un recuerdo nostálgico.\"}","question_order":"[0]","trial_type":"survey-multi-choice","trial_index":15,"time_elapsed":1084448,"internal_node_id":"0.0-5.0-10.0"},{"rt":1601.160000000149,"response":{"pregunta9 likert":2},"question_order":[0],"trial_type":"survey-likert","trial_index":16,"time_elapsed":1086052,"internal_node_id":"0.0-5.0-11.0"},{"rt":101366.29999999958,"responses":"{\"pregunta6\":\"a) Presentar positivamente las diversas tendencias del diseño de interiores a través de un comentario.\"}","question_order":"[0]","trial_type":"survey-multi-choice","trial_index":17,"time_elapsed":1187418,"internal_node_id":"0.0-5.0-12.0"},{"rt":2394.5499999991152,"response":{"pregunta6 likert":3},"question_order":[0],"trial_type":"survey-likert","trial_index":18,"time_elapsed":1189815,"internal_node_id":"0.0-5.0-13.0"},{"rt":89100.78500000061,"responses":"{\"pregunta13\":\"b) Al premio merecido después de tantos esfuerzos.\"}","question_order":"[0]","trial_type":"survey-multi-choice","trial_index":19,"time_elapsed":1278915,"internal_node_id":"0.0-5.0-14.0"},{"rt":1967.555000001099,"response":{"pregunta13 likert":3},"question_order":[0],"trial_type":"survey-likert","trial_index":20,"time_elapsed":1280885,"internal_node_id":"0.0-5.0-15.0"},{"rt":57005.60000000056,"responses":"{\"pregunta3\":\"d) Las grandes civilizaciones autóctonas.\"}","question_order":"[0]","trial_type":"survey-multi-choice","trial_index":21,"time_elapsed":1337891,"internal_node_id":"0.0-5.0-16.0"},{"rt":2128.18499999959,"response":{"pregunta3 likert":2},"question_order":[0],"trial_type":"survey-likert","trial_index":22,"time_elapsed":1340021,"internal_node_id":"0.0-5.0-17.0"},{"rt":77973.58999999962,"responses":"{\"pregunta8\":\"b) Lo que es normal en un asilo es anormal en un campo de concentración.\"}","question_order":"[0]","trial_type":"survey-multi-choice","trial_index":23,"time_elapsed":1417995,"internal_node_id":"0.0-5.0-18.0"},{"rt":1892.5950000011362,"response":{"pregunta8 likert":1},"question_order":[0],"trial_type":"survey-likert","trial_index":24,"time_elapsed":1419890,"internal_node_id":"0.0-5.0-19.0"},{"rt":35913.13500000071,"responses":"{\"pregunta10\":\"a) ritualistas y obsesivos.\"}","question_order":"[0]","trial_type":"survey-multi-choice","trial_index":25,"time_elapsed":1455804,"internal_node_id":"0.0-5.0-20.0"},{"rt":2356.8599999998696,"response":{"pregunta10 likert":2},"question_order":[0],"trial_type":"survey-likert","trial_index":26,"time_elapsed":1458164,"internal_node_id":"0.0-5.0-21.0"},{"rt":62119.63499999908,"responses":"{\"pregunta23\":\"a) el jardinero estará muerto al día siguiente.\"}","question_order":"[0]","trial_type":"survey-multi-choice","trial_index":27,"time_elapsed":1520284,"internal_node_id":"0.0-5.0-22.0"},{"rt":2373.93499999959,"response":{"pregunta23 likert":3},"question_order":[0],"trial_type":"survey-likert","trial_index":28,"time_elapsed":1522661,"internal_node_id":"0.0-5.0-23.0"},{"rt":44930.14000000036,"responses":"{\"pregunta16\":\"c) Bomberos debería tener acceso a un seguro médico, al que pueda recurrir en caso de accidente.\"}","question_order":"[0]","trial_type":"survey-multi-choice","trial_index":29,"time_elapsed":1567592,"internal_node_id":"0.0-5.0-24.0"},{"rt":2440.6049999997485,"response":{"pregunta16 likert":2},"question_order":[0],"trial_type":"survey-likert","trial_index":30,"time_elapsed":1570036,"internal_node_id":"0.0-5.0-25.0"},{"rt":31210.404999999795,"responses":"{\"pregunta24\":\"a) la muerte es distinta en las grandes ciudades.\"}","question_order":"[0]","trial_type":"survey-multi-choice","trial_index":31,"time_elapsed":1601247,"internal_node_id":"0.0-5.0-26.0"},{"rt":6964.990000000456,"response":{"pregunta24 likert":2},"question_order":[0],"trial_type":"survey-likert","trial_index":32,"time_elapsed":1608214,"internal_node_id":"0.0-5.0-27.0"},{"rt":87252.38999999966,"responses":"{\"pregunta17\":\"d) A la inexistencia de un recinto adecuado para el recital.\"}","question_order":"[0]","trial_type":"survey-multi-choice","trial_index":33,"time_elapsed":1695466,"internal_node_id":"0.0-5.0-28.0"},{"rt":2134.3799999994226,"response":{"pregunta17 likert":3},"question_order":[0],"trial_type":"survey-likert","trial_index":34,"time_elapsed":1697603,"internal_node_id":"0.0-5.0-29.0"},{"rt":68284.71500000148,"responses":"{\"pregunta14\":\"b) el mejor emperador es el que está muerto.\"}","question_order":"[0]","trial_type":"survey-multi-choice","trial_index":35,"time_elapsed":1765888,"internal_node_id":"0.0-5.0-30.0"},{"rt":1898.630000001518,"response":{"pregunta14 likert":3},"question_order":[0],"trial_type":"survey-likert","trial_index":36,"time_elapsed":1767789,"internal_node_id":"0.0-5.0-31.0"},{"rt":24480.165000000736,"responses":"{\"pregunta15\":\"a) la creación de elementos químicos artificiales ha resultado de la manipulación del uranio.\"}","question_order":"[0]","trial_type":"survey-multi-choice","trial_index":37,"time_elapsed":1792270,"internal_node_id":"0.0-5.0-32.0"},{"rt":2524.5300000007264,"response":{"pregunta15 likert":0},"question_order":[0],"trial_type":"survey-likert","trial_index":38,"time_elapsed":1794797,"internal_node_id":"0.0-5.0-33.0"},{"rt":146413.83000000124,"responses":"{\"pregunta20\":\"a) las personas excesivas son más felices.\"}","question_order":"[0]","trial_type":"survey-multi-choice","trial_index":39,"time_elapsed":1941210,"internal_node_id":"0.0-5.0-34.0"},{"rt":2113.0649999994785,"response":{"pregunta20 likert":2},"question_order":[0],"trial_type":"survey-likert","trial_index":40,"time_elapsed":1943325,"internal_node_id":"0.0-5.0-35.0"},{"rt":46831.51000000001,"responses":"{\"pregunta19\":\"b) llevan un control grupal de su embarazo.\"}","question_order":"[0]","trial_type":"survey-multi-choice","trial_index":41,"time_elapsed":1990157,"internal_node_id":"0.0-5.0-36.0"},{"rt":1819.8549999997485,"response":{"pregunta19 likert":1},"question_order":[0],"trial_type":"survey-likert","trial_index":42,"time_elapsed":1991979,"internal_node_id":"0.0-5.0-37.0"},{"rt":50385.82499999949,"responses":"{\"pregunta21\":\"b) El TLC causará una completa transformación de la economía chilena.\"}","question_order":"[0]","trial_type":"survey-multi-choice","trial_index":43,"time_elapsed":2042366,"internal_node_id":"0.0-5.0-38.0"},{"rt":2192.8449999997392,"response":{"pregunta21 likert":1},"question_order":[0],"trial_type":"survey-likert","trial_index":44,"time_elapsed":2044561,"internal_node_id":"0.0-5.0-39.0"},{"rt":96180.55500000087,"responses":"{\"pregunta4\":\"b) En la literatura como en la vida, todo es metáfora.\"}","question_order":"[0]","trial_type":"survey-multi-choice","trial_index":45,"time_elapsed":2140741,"internal_node_id":"0.0-5.0-40.0"},{"rt":2359.654999999795,"response":{"pregunta4 likert":3},"question_order":[0],"trial_type":"survey-likert","trial_index":46,"time_elapsed":2143103,"internal_node_id":"0.0-5.0-41.0"},{"rt":35500.24999999907,"responses":"{\"pregunta22\":\"a) Se necesita un marco legal para delimitar lo público y lo privado en materia informativa.\"}","question_order":"[0]","trial_type":"survey-multi-choice","trial_index":47,"time_elapsed":2178605,"internal_node_id":"0.0-5.0-42.0"},{"rt":2003.6249999990687,"response":{"pregunta22 likert":2},"question_order":[0],"trial_type":"survey-likert","trial_index":48,"time_elapsed":2180611,"internal_node_id":"0.0-5.0-43.0"},{"rt":63458.18499999959,"responses":"{\"pregunta11\":\"a) Provocar el deseo de la adquisición vertiginosa.\"}","question_order":"[0]","trial_type":"survey-multi-choice","trial_index":49,"time_elapsed":2244069,"internal_node_id":"0.0-5.0-44.0"},{"rt":1528.5450000013225,"response":{"pregunta11 likert":2},"question_order":[0],"trial_type":"survey-likert","trial_index":50,"time_elapsed":2245600,"internal_node_id":"0.0-5.0-45.0"},{"rt":43058.149999998976,"responses":"{\"pregunta2\":\"b) A la relación entre pensamiento y estructura social.\"}","question_order":"[0]","trial_type":"survey-multi-choice","trial_index":51,"time_elapsed":2288659,"internal_node_id":"0.0-5.0-46.0"},{"rt":1710.6800000001676,"response":{"pregunta2 likert":1},"question_order":[0],"trial_type":"survey-likert","trial_index":52,"time_elapsed":2290372,"internal_node_id":"0.0-5.0-47.0"},{"rt":2770.0399999995716,"stimulus":"<p style=\"font-size: 120%\">Gracias por completar esta etapa del estudio. Ahora te invitamos a responder el cuestionario.<br><br></p>","response":0,"trial_type":"html-button-response","trial_index":53,"time_elapsed":2293184,"internal_node_id":"0.0-6.0"},{"rt":2446.5099999997765,"stimulus":"<h1 style=\"margin-top: 5%\">Cuestionario para la Evaluación de Metas Académicas</h1><p style=\"font-size: 120%; margin-left: 3%; margin-top: 5%\">Este es un cuestionario que permite conocer cuáles son los principales motivos por los que los estudiantes se esfuerzan en su trabajo académico. A continuación, se te presentarán una serie de afirmaciones acerca de los motivos que puedes tener para estudiar.<br>Te pedimos que contestes a dichas afirmaciones reflexionando sobre el contenido de cada una de ellas, que, aunque te parezcan semejantes, en realidad, no lo son.<br>NO HAY RESPUESTAS CORRECTAS o INCORRECTAS, sólo queremos que respondas con la mayor precisión y sinceridad posible a las preguntas que se plantean.","response":0,"trial_type":"html-button-response","trial_index":54,"time_elapsed":2295632,"internal_node_id":"0.0-7.0"},{"rt":85826.44500000076,"response":{"Metas cuestionario pregunta1":3,"Metas cuestionario pregunta2":3,"Metas cuestionario pregunta3":3,"Metas cuestionario pregunta4":2,"Metas cuestionario pregunta5":3,"Metas cuestionario pregunta6":3,"Metas cuestionario pregunta7":2,"Metas cuestionario pregunta8":2,"Metas cuestionario pregunta9":4,"Metas cuestionario pregunta10":2,"Metas cuestionario pregunta11":0,"Metas cuestionario pregunta12":0,"Metas cuestionario pregunta13":1,"Metas cuestionario pregunta14":2,"Metas cuestionario pregunta15":4,"Metas cuestionario pregunta16":4,"Metas cuestionario pregunta17":3,"Metas cuestionario pregunta18":4,"Metas cuestionario pregunta19":4,"Metas cuestionario pregunta20":4},"question_order":[0,1,2,3,4,5,6,7,8,9,10,11,12,13,14,15,16,17,18,19],"trial_type":"survey-likert","trial_index":55,"time_elapsed":2381467,"internal_node_id":"0.0-8.0"},{"rt":2887.3000000002794,"stimulus":"<p style=\"font-size: 120%\">Gracias por responder el cuestionario. Ahora te invitamos a seguir con el juego, que es muy breve.<br><br></p>","response":0,"trial_type":"html-button-response","trial_index":56,"time_elapsed":2384359,"internal_node_id":"0.0-9.0"},{"rt":2230.169999998994,"stimulus":"<h1>Juego</h1><p style=\"font-size: 120%;\">A continuación se te presentarán 16 pequeñas historias.<br>Por favor lee el texto presentado en cada una de ellas y luego haz click en el objeto de tu elección.<br>Si estás listo(a),<span style=\"color:red;\"> haz click en \"comenzar\"</span>.</p>","response":0,"trial_type":"html-button-response","trial_index":57,"time_elapsed":2386591,"internal_node_id":"0.0-10.0"},{"rt":7766.339999999851,"grid":[[1,1,1,1]],"target":[0,0],"response":[0,1],"correct":false,"juego":8,"trial_type":"serial-reaction-time-mouse","trial_index":58,"time_elapsed":2394359,"internal_node_id":"0.0-11.0-0.0"},{"rt":7675.7599999997765,"grid":[[1,1,1],[1,1,1],[1,1,1],[1,1,1],[1,1,1],[1,1,1],[1,1,1],[1,1,1],[1,1,1]],"target":[0,0],"response":[7,1],"correct":false,"juego":6,"trial_type":"serial-reaction-time-mouse","trial_index":59,"time_elapsed":2402037,"internal_node_id":"0.0-11.0-1.0"},{"rt":8474.099999999627,"grid":[[1,1,1],[1,1,1],[1,1,1],[1,1,1],[1,1,1],[1,1,1],[1,1,1],[1,1,1],[1,1,1]],"target":[0,0],"response":[1,1],"correct":false,"juego":13,"trial_type":"serial-reaction-time-mouse","trial_index":60,"time_elapsed":2410515,"internal_node_id":"0.0-11.0-2.0"},{"rt":10151.38499999931,"grid":[[1,1,1,1]],"target":[0,0],"response":[0,3],"correct":false,"juego":2,"trial_type":"serial-reaction-time-mouse","trial_index":61,"time_elapsed":2420668,"internal_node_id":"0.0-11.0-3.0"},{"rt":7756.470000000205,"grid":[[1,1,1],[1,1,1],[1,1,1],[1,1,1],[1,1,1],[1,1,1],[1,1,1],[1,1,1],[1,1,1]],"target":[0,0],"response":[1,1],"correct":false,"juego":5,"trial_type":"serial-reaction-time-mouse","trial_index":62,"time_elapsed":2428428,"internal_node_id":"0.0-11.0-4.0"},{"rt":7987.854999999516,"grid":[[1,1,1,1]],"target":[0,0],"response":[0,2],"correct":false,"juego":7,"trial_type":"serial-reaction-time-mouse","trial_index":63,"time_elapsed":2436417,"internal_node_id":"0.0-11.0-5.0"},{"rt":4056.5000000009313,"grid":[[1],[1],[1],[1]],"target":[0,0],"response":[2,0],"correct":false,"juego":4,"trial_type":"serial-reaction-time-mouse","trial_index":64,"time_elapsed":2440476,"internal_node_id":"0.0-11.0-6.0"},{"rt":3291.614999999758,"grid":[[1,1,1,1]],"target":[0,0],"response":[0,1],"correct":false,"juego":1,"trial_type":"serial-reaction-time-mouse","trial_index":65,"time_elapsed":2443769,"internal_node_id":"0.0-11.0-7.0"},{"rt":6874.564999999944,"grid":[[1,1,1,1],[1,1,1,1],[1,1,1,1],[1,1,1,1],[1,1,1,1],[1,1,1,1],[1,1,1,1],[1,1,1,1],[1,1,1,1]],"target":[0,0],"response":[1,2],"correct":false,"juego":14,"trial_type":"serial-reaction-time-mouse","trial_index":66,"time_elapsed":2450647,"internal_node_id":"0.0-11.0-8.0"},{"rt":11037.454999999609,"grid":[[1,1,1,1]],"target":[0,0],"response":[0,3],"correct":false,"juego":9,"trial_type":"serial-reaction-time-mouse","trial_index":67,"time_elapsed":2461686,"internal_node_id":"0.0-11.0-9.0"},{"rt":11547.690000001341,"grid":[[1,1,1],[1,1,1],[1,1,1],[1,1,1],[1,1,1],[1,1,1],[1,1,1],[1,1,1],[1,1,1]],"target":[0,0],"response":[3,2],"correct":false,"juego":10,"trial_type":"serial-reaction-time-mouse","trial_index":68,"time_elapsed":2473237,"internal_node_id":"0.0-11.0-10.0"},{"rt":12135.174999999348,"grid":[[1,1,1,1]],"target":[0,0],"response":[0,0],"correct":true,"juego":11,"trial_type":"serial-reaction-time-mouse","trial_index":69,"time_elapsed":2485373,"internal_node_id":"0.0-11.0-11.0"},{"rt":12418.985000000335,"grid":[[1,1,1,1]],"target":[0,0],"response":[0,0],"correct":true,"juego":12,"trial_type":"serial-reaction-time-mouse","trial_index":70,"time_elapsed":2497793,"internal_node_id":"0.0-11.0-12.0"},{"rt":9742.240000001155,"grid":[[1,1,1,1],[1,1,1,1],[1,1,1,1],[1,1,1,1],[1,1,1,1],[1,1,1,1],[1,1,1,1],[1,1,1,1],[1,1,1,1]],"target":[0,0],"response":[1,2],"correct":false,"juego":15,"trial_type":"serial-reaction-time-mouse","trial_index":71,"time_elapsed":2507539,"internal_node_id":"0.0-11.0-13.0"},{"rt":10389.724999999162,"grid":[[1,1,1,1]],"target":[0,0],"response":[0,0],"correct":true,"juego":3,"trial_type":"serial-reaction-time-mouse","trial_index":72,"time_elapsed":2517930,"internal_node_id":"0.0-11.0-14.0"}]