[{"rt":67058.80000019073,"stimulus":"<h1 style=\"color:red; margin-top: 3%;\">¡Bienvenido(a)!</h1><p style=\"text-align:left; justify-content:space-between; margin-right: 5%; margin-left: 5%; margin-top: 5%\"> Antes de empezar el estudio, necesitamos que nos confirmes que estás de acuerdo con participar. Recuerda que tu participación es 100% voluntaria y que lo único que te pedimos es responder lo mejor que puedas. Recuerda también que el estudio incluye:</p><ol style=\"text-align:left; justify-content:space-between; margin-right: 5%; margin-left: 5%;\"><li> un ejercicio de resolución de preguntas de selección múltiple (30’),</li><li>un cuestionario breve (5’),</li><li>un juego muy breve (3’),</li></ol><p style=\"text-align:left; justify-content:space-between; margin-right: 5%; margin-left: 5%;\">Si quieres participar, haz clic en “Acepto” luego de leer lo siguiente:<br></p><p style=\"text-align:left; justify-content:space-between; margin-right: 5%; margin-left: 5%;\">Acepto participar en el estudio “Estrategias de lectura y resolución de preguntas de selección múltiple”, en los términos aquí señalados:<br></p><p style=\"text-align:left; justify-content:space-between; margin-right: 5%; margin-left: 5%;\"><a href=\"http://ciae.uchile.cl/download.php?file=noticias/Asentimiento.pdf\" target=\"_blank\">Link a la hoja de información del Consentimiento.</a></p><p style=\"text-align:left; justify-content:space-between; margin-right: 5%; margin-left: 5%;\">Declaro que he leído (o se me ha leído) y (he) comprendido, las condiciones de mi participación en este estudio. He tenido la oportunidad de hacer preguntas y éstas han sido respondidas. No tengo dudas al respecto.</p>","response":0,"condicion_MCQ":3,"condicion_JUEGO":3,"condicion_INTER":3,"numero_participante":99,"numero_version":1,"dimx":1366,"dimy":768,"color_profundidad":24,"pixel_profundidad":24,"Browser":"Google Chrome","dia":24,"mes":5,"hora":12,"minuto":14,"segundo":15,"trial_type":"html-button-response","trial_index":0,"time_elapsed":67062,"internal_node_id":"0.0-0.0"},{"success":true,"trial_type":"fullscreen","trial_index":1,"time_elapsed":77852,"internal_node_id":"0.0-1.0"},{"rt":152511.5,"responses":"{\"Nombres\":\"catalina sofia\",\"Apellidos\":\"nuñez saud\",\"Edad\":\"19\",\"Sexo\":\"mujer\",\"Curso\":\"204\",\"Colegio\":\"Universidad Andrés Bello\",\"Contacto\":\"catalina.saud@gmail.com\"}","trial_type":"survey-text","trial_index":2,"time_elapsed":230379,"internal_node_id":"0.0-2.0"},{"success":true,"timeout":false,"failed_images":[],"failed_audio":[],"failed_video":[],"trial_type":"preload","trial_index":3,"time_elapsed":231825,"internal_node_id":"0.0-3.0"},{"rt":16804.799999952316,"stimulus":"<h1 style:\"margin-top: 5%;\">Ejercicios de Comprensión de Lectura de la Universidad de Chile</h1><p style=\"font-size: 120%;\">En esta actividad, debes responder 24 preguntas de selección múltiple. Cada pregunta presenta 4 respuestas alternativas, pero sólo una de ellas es correcta. Por lo tanto, debes escoger una sola alternativa para cada pregunta. Además, debes reportar qué tan seguro(a) estás de la respuesta que das, con un:</p><ol style=\"font-size: 120%;text-align:left;margin-left: 40%;\"><li>No estoy seguro(a) para nada</li><li>No estoy muy seguro(a)</li><li>Estoy bastante seguro(a)</li><li>Estoy totalmente seguro(a)</li></ol><p style=\"font-size: 120%;\">Por favor lee bien los enunciados antes de responder. ¡Éxito!</p>","response":0,"trial_type":"html-button-response","trial_index":4,"time_elapsed":248631,"internal_node_id":"0.0-4.0"},{"rt":62057.799999952316,"responses":"{\"pregunta14\":\"c) el Primer Ministro debía morir por ambicioso.\"}","question_order":"[0]","trial_type":"survey-multi-choice","trial_index":5,"time_elapsed":310693,"internal_node_id":"0.0-5.0-0.0"},{"rt":5640.300000190735,"response":{"pregunta14 likert":2},"question_order":[0],"trial_type":"survey-likert","trial_index":6,"time_elapsed":316338,"internal_node_id":"0.0-5.0-1.0"},{"rt":35792.39999985695,"responses":"{\"pregunta2\":\"a) A la relación entre sociedad y constitución social.\"}","question_order":"[0]","trial_type":"survey-multi-choice","trial_index":7,"time_elapsed":352133,"internal_node_id":"0.0-5.0-2.0"},{"rt":3229.2999999523163,"response":{"pregunta2 likert":1},"question_order":[0],"trial_type":"survey-likert","trial_index":8,"time_elapsed":355365,"internal_node_id":"0.0-5.0-3.0"},{"rt":66992.10000014305,"responses":"{\"pregunta21\":\"b) El TLC causará una completa transformación de la economía chilena.\"}","question_order":"[0]","trial_type":"survey-multi-choice","trial_index":9,"time_elapsed":422361,"internal_node_id":"0.0-5.0-4.0"},{"rt":8542.699999809265,"response":{"pregunta21 likert":2},"question_order":[0],"trial_type":"survey-likert","trial_index":10,"time_elapsed":430907,"internal_node_id":"0.0-5.0-5.0"},{"rt":83022.29999995232,"responses":"{\"pregunta15\":\"b) el uranio es el elemento natural con el mayor número de protones en el núcleo.\"}","question_order":"[0]","trial_type":"survey-multi-choice","trial_index":11,"time_elapsed":513932,"internal_node_id":"0.0-5.0-6.0"},{"rt":7289.900000095367,"response":{"pregunta15 likert":1},"question_order":[0],"trial_type":"survey-likert","trial_index":12,"time_elapsed":521226,"internal_node_id":"0.0-5.0-7.0"},{"rt":104101.19999980927,"responses":"{\"pregunta4\":\"d) En la literatura como en la vida, todo es metáfora.\"}","question_order":"[0]","trial_type":"survey-multi-choice","trial_index":13,"time_elapsed":625331,"internal_node_id":"0.0-5.0-8.0"},{"rt":2678.7999999523163,"response":{"pregunta4 likert":3},"question_order":[0],"trial_type":"survey-likert","trial_index":14,"time_elapsed":628012,"internal_node_id":"0.0-5.0-9.0"},{"rt":71808.5,"responses":"{\"pregunta12\":\"a) Homenajear a quienes murieron.\"}","question_order":"[0]","trial_type":"survey-multi-choice","trial_index":15,"time_elapsed":699823,"internal_node_id":"0.0-5.0-10.0"},{"rt":4866.700000047684,"response":{"pregunta12 likert":3},"question_order":[0],"trial_type":"survey-likert","trial_index":16,"time_elapsed":704693,"internal_node_id":"0.0-5.0-11.0"},{"rt":33575.59999990463,"responses":"{\"pregunta16\":\"b) Bomberos debería tener acceso a un seguro médico, al que pueda recurrir en caso de accidente.\"}","question_order":"[0]","trial_type":"survey-multi-choice","trial_index":17,"time_elapsed":738271,"internal_node_id":"0.0-5.0-12.0"},{"rt":2982.7999999523163,"response":{"pregunta16 likert":3},"question_order":[0],"trial_type":"survey-likert","trial_index":18,"time_elapsed":741257,"internal_node_id":"0.0-5.0-13.0"},{"rt":52006.90000009537,"responses":"{\"pregunta5\":\"c) Los momentos triviales de los viajes, en la escritura se vuelven significativos.\"}","question_order":"[0]","trial_type":"survey-multi-choice","trial_index":19,"time_elapsed":793267,"internal_node_id":"0.0-5.0-14.0"},{"rt":4556.599999904633,"response":{"pregunta5 likert":2},"question_order":[0],"trial_type":"survey-likert","trial_index":20,"time_elapsed":797827,"internal_node_id":"0.0-5.0-15.0"},{"rt":78375.70000004768,"responses":"{\"pregunta7\":\"c) se da como existente, y sólo se discute su relación con el cuerpo.\"}","question_order":"[0]","trial_type":"survey-multi-choice","trial_index":21,"time_elapsed":876205,"internal_node_id":"0.0-5.0-16.0"},{"rt":4046.9000000953674,"response":{"pregunta7 likert":2},"question_order":[0],"trial_type":"survey-likert","trial_index":22,"time_elapsed":880255,"internal_node_id":"0.0-5.0-17.0"},{"rt":54667.200000047684,"responses":"{\"pregunta3\":\"b) El inicio de la civilización china.\"}","question_order":"[0]","trial_type":"survey-multi-choice","trial_index":23,"time_elapsed":934925,"internal_node_id":"0.0-5.0-18.0"},{"rt":5358.300000190735,"response":{"pregunta3 likert":3},"question_order":[0],"trial_type":"survey-likert","trial_index":24,"time_elapsed":940286,"internal_node_id":"0.0-5.0-19.0"},{"rt":145341.59999990463,"responses":"{\"pregunta20\":\"d) para Aristóteles la virtud estaba en el justo equilibrio.\"}","question_order":"[0]","trial_type":"survey-multi-choice","trial_index":25,"time_elapsed":1085632,"internal_node_id":"0.0-5.0-20.0"},{"rt":3167.2000000476837,"response":{"pregunta20 likert":1},"question_order":[0],"trial_type":"survey-likert","trial_index":26,"time_elapsed":1088803,"internal_node_id":"0.0-5.0-21.0"},{"rt":56595.299999952316,"responses":"{\"pregunta10\":\"d) ritualistas y obsesivos.\"}","question_order":"[0]","trial_type":"survey-multi-choice","trial_index":27,"time_elapsed":1145401,"internal_node_id":"0.0-5.0-22.0"},{"rt":2607.7000000476837,"response":{"pregunta10 likert":2},"question_order":[0],"trial_type":"survey-likert","trial_index":28,"time_elapsed":1148012,"internal_node_id":"0.0-5.0-23.0"},{"rt":83235.5,"responses":"{\"pregunta18\":\"c) El receptor es habitualmente pasivo frente a la publicidad.\"}","question_order":"[0]","trial_type":"survey-multi-choice","trial_index":29,"time_elapsed":1231250,"internal_node_id":"0.0-5.0-24.0"},{"rt":6049.900000095367,"response":{"pregunta18 likert":2},"question_order":[0],"trial_type":"survey-likert","trial_index":30,"time_elapsed":1237302,"internal_node_id":"0.0-5.0-25.0"},{"rt":33044.10000014305,"responses":"{\"pregunta1\":\"a) Aportan informaciones con las que se reconstruye el personaje dentro de un relato.\"}","question_order":"[0]","trial_type":"survey-multi-choice","trial_index":31,"time_elapsed":1270349,"internal_node_id":"0.0-5.0-26.0"},{"rt":4177.399999856949,"response":{"pregunta1 likert":3},"question_order":[0],"trial_type":"survey-likert","trial_index":32,"time_elapsed":1274529,"internal_node_id":"0.0-5.0-27.0"},{"rt":50982.699999809265,"responses":"{\"pregunta9\":\"d) preparar los recuerdos del mañana.\"}","question_order":"[0]","trial_type":"survey-multi-choice","trial_index":33,"time_elapsed":1325515,"internal_node_id":"0.0-5.0-28.0"},{"rt":3893,"response":{"pregunta9 likert":2},"question_order":[0],"trial_type":"survey-likert","trial_index":34,"time_elapsed":1329411,"internal_node_id":"0.0-5.0-29.0"},{"rt":73317.79999995232,"responses":"{\"pregunta8\":\"d) El ser humano se comporta de acuerdo con las circunstancias.\"}","question_order":"[0]","trial_type":"survey-multi-choice","trial_index":35,"time_elapsed":1402731,"internal_node_id":"0.0-5.0-30.0"},{"rt":2742.0999999046326,"response":{"pregunta8 likert":2},"question_order":[0],"trial_type":"survey-likert","trial_index":36,"time_elapsed":1405476,"internal_node_id":"0.0-5.0-31.0"},{"rt":42285.09999990463,"responses":"{\"pregunta17\":\"c) A la influencia de grupos que rechazaban su música.\"}","question_order":"[0]","trial_type":"survey-multi-choice","trial_index":37,"time_elapsed":1447764,"internal_node_id":"0.0-5.0-32.0"},{"rt":2615.0999999046326,"response":{"pregunta17 likert":3},"question_order":[0],"trial_type":"survey-likert","trial_index":38,"time_elapsed":1450381,"internal_node_id":"0.0-5.0-33.0"},{"rt":58898.5,"responses":"{\"pregunta6\":\"c) Promover la asistencia a un evento específico de decoración a través de una atractiva descripción.\"}","question_order":"[0]","trial_type":"survey-multi-choice","trial_index":39,"time_elapsed":1509282,"internal_node_id":"0.0-5.0-34.0"},{"rt":3727.7999999523163,"response":{"pregunta6 likert":3},"question_order":[0],"trial_type":"survey-likert","trial_index":40,"time_elapsed":1513012,"internal_node_id":"0.0-5.0-35.0"},{"rt":75748.29999995232,"responses":"{\"pregunta23\":\"b) la Muerte vaticina el futuro mediante gestos.\"}","question_order":"[0]","trial_type":"survey-multi-choice","trial_index":41,"time_elapsed":1588763,"internal_node_id":"0.0-5.0-36.0"},{"rt":2232.9000000953674,"response":{"pregunta23 likert":1},"question_order":[0],"trial_type":"survey-likert","trial_index":42,"time_elapsed":1590999,"internal_node_id":"0.0-5.0-37.0"},{"rt":48503.799999952316,"responses":"{\"pregunta13\":\"a) Al premio merecido después de tantos esfuerzos.\"}","question_order":"[0]","trial_type":"survey-multi-choice","trial_index":43,"time_elapsed":1639506,"internal_node_id":"0.0-5.0-38.0"},{"rt":3102.2999999523163,"response":{"pregunta13 likert":2},"question_order":[0],"trial_type":"survey-likert","trial_index":44,"time_elapsed":1642611,"internal_node_id":"0.0-5.0-39.0"},{"rt":79641.39999985695,"responses":"{\"pregunta19\":\"d) llevan un control grupal de su embarazo.\"}","question_order":"[0]","trial_type":"survey-multi-choice","trial_index":45,"time_elapsed":1722255,"internal_node_id":"0.0-5.0-40.0"},{"rt":3062.4000000953674,"response":{"pregunta19 likert":1},"question_order":[0],"trial_type":"survey-likert","trial_index":46,"time_elapsed":1725320,"internal_node_id":"0.0-5.0-41.0"},{"rt":73044.29999995232,"responses":"{\"pregunta22\":\"d) Se necesita un marco legal para delimitar lo público y lo privado en materia informativa.\"}","question_order":"[0]","trial_type":"survey-multi-choice","trial_index":47,"time_elapsed":1798367,"internal_node_id":"0.0-5.0-42.0"},{"rt":2536.800000190735,"response":{"pregunta22 likert":2},"question_order":[0],"trial_type":"survey-likert","trial_index":48,"time_elapsed":1800907,"internal_node_id":"0.0-5.0-43.0"},{"rt":62684.59999990463,"responses":"{\"pregunta24\":\"c) la muerte es distinta en las grandes ciudades.\"}","question_order":"[0]","trial_type":"survey-multi-choice","trial_index":49,"time_elapsed":1863595,"internal_node_id":"0.0-5.0-44.0"},{"rt":3316.399999856949,"response":{"pregunta24 likert":2},"question_order":[0],"trial_type":"survey-likert","trial_index":50,"time_elapsed":1866913,"internal_node_id":"0.0-5.0-45.0"},{"rt":18563.299999952316,"responses":"{\"pregunta11\":\"b) Deleitar a sus receptores por medio de la belleza y el confort\"}","question_order":"[0]","trial_type":"survey-multi-choice","trial_index":51,"time_elapsed":1885479,"internal_node_id":"0.0-5.0-46.0"},{"rt":2566.399999856949,"response":{"pregunta11 likert":1},"question_order":[0],"trial_type":"survey-likert","trial_index":52,"time_elapsed":1888048,"internal_node_id":"0.0-5.0-47.0"},{"rt":1643.2999999523163,"stimulus":"<p style=\"font-size: 120%\">Gracias por completar esta etapa del estudio. Ahora te invitamos a responder el cuestionario.<br><br></p>","response":0,"trial_type":"html-button-response","trial_index":53,"time_elapsed":1889698,"internal_node_id":"0.0-6.0"},{"rt":8959.299999952316,"stimulus":"<h1 style=\"margin-top: 5%\">Cuestionario para la Evaluación de Metas Académicas</h1><p style=\"font-size: 120%; margin-left: 3%; margin-top: 5%\">Este es un cuestionario que permite conocer cuáles son los principales motivos por los que los estudiantes se esfuerzan en su trabajo académico. A continuación, se te presentarán una serie de afirmaciones acerca de los motivos que puedes tener para estudiar.<br>Te pedimos que contestes a dichas afirmaciones reflexionando sobre el contenido de cada una de ellas, que, aunque te parezcan semejantes, en realidad, no lo son.<br>NO HAY RESPUESTAS CORRECTAS o INCORRECTAS, sólo queremos que respondas con la mayor precisión y sinceridad posible a las preguntas que se plantean.","response":0,"trial_type":"html-button-response","trial_index":54,"time_elapsed":1898659,"internal_node_id":"0.0-7.0"},{"rt":103042.60000014305,"response":{"Metas cuestionario pregunta1":2,"Metas cuestionario pregunta2":1,"Metas cuestionario pregunta3":2,"Metas cuestionario pregunta4":1,"Metas cuestionario pregunta5":2,"Metas cuestionario pregunta6":1,"Metas cuestionario pregunta7":1,"Metas cuestionario pregunta8":2,"Metas cuestionario pregunta9":1,"Metas cuestionario pregunta10":1,"Metas cuestionario pregunta11":0,"Metas cuestionario pregunta12":0,"Metas cuestionario pregunta13":2,"Metas cuestionario pregunta14":2,"Metas cuestionario pregunta15":3,"Metas cuestionario pregunta16":3,"Metas cuestionario pregunta17":4,"Metas cuestionario pregunta18":3,"Metas cuestionario pregunta19":4,"Metas cuestionario pregunta20":4},"question_order":[0,1,2,3,4,5,6,7,8,9,10,11,12,13,14,15,16,17,18,19],"trial_type":"survey-likert","trial_index":55,"time_elapsed":2001710,"internal_node_id":"0.0-8.0"},{"rt":1631.8000001907349,"stimulus":"<p style=\"font-size: 120%\">Gracias por responder el cuestionario. Ahora te invitamos a seguir con el juego, que es muy breve.<br><br></p>","response":0,"trial_type":"html-button-response","trial_index":56,"time_elapsed":2003349,"internal_node_id":"0.0-9.0"},{"rt":11197.900000095367,"stimulus":"<h1>Juego</h1><p style=\"font-size: 120%;\">A continuación se te presentarán 16 pequeñas historias.<br>Por favor lee el texto presentado en cada una de ellas y luego haz click en el objeto de tu elección.<br>Si estás listo(a),<span style=\"color:red;\"> haz click en \"comenzar\"</span>.</p>","response":0,"trial_type":"html-button-response","trial_index":57,"time_elapsed":2014549,"internal_node_id":"0.0-10.0"},{"rt":24047.200000047684,"grid":[[1,1,1,1],[1,1,1,1],[1,1,1,1],[1,1,1,1],[1,1,1,1],[1,1,1,1],[1,1,1,1],[1,1,1,1],[1,1,1,1]],"target":[0,0],"response":[5,2],"correct":false,"juego":15,"trial_type":"serial-reaction-time-mouse","trial_index":58,"time_elapsed":2038599,"internal_node_id":"0.0-11.0-0.0"},{"rt":4116.5,"grid":[[1,1,1,1]],"target":[0,0],"response":[0,2],"correct":false,"juego":1,"trial_type":"serial-reaction-time-mouse","trial_index":59,"time_elapsed":2042719,"internal_node_id":"0.0-11.0-1.0"},{"rt":11668.899999856949,"grid":[[1,1,1,1],[1,1,1,1],[1,1,1,1],[1,1,1,1],[1,1,1,1],[1,1,1,1],[1,1,1,1],[1,1,1,1],[1,1,1,1]],"target":[0,0],"response":[3,2],"correct":false,"juego":14,"trial_type":"serial-reaction-time-mouse","trial_index":60,"time_elapsed":2054392,"internal_node_id":"0.0-11.0-2.0"},{"rt":22718.799999952316,"grid":[[1,1,1],[1,1,1],[1,1,1],[1,1,1],[1,1,1],[1,1,1],[1,1,1],[1,1,1],[1,1,1]],"target":[0,0],"response":[1,2],"correct":false,"juego":10,"trial_type":"serial-reaction-time-mouse","trial_index":61,"time_elapsed":2077114,"internal_node_id":"0.0-11.0-3.0"},{"rt":15989.599999904633,"grid":[[1,1,1,1]],"target":[0,0],"response":[0,1],"correct":false,"juego":2,"trial_type":"serial-reaction-time-mouse","trial_index":62,"time_elapsed":2093105,"internal_node_id":"0.0-11.0-4.0"},{"rt":8275.899999856949,"grid":[[1,1,1,1]],"target":[0,0],"response":[0,2],"correct":false,"juego":8,"trial_type":"serial-reaction-time-mouse","trial_index":63,"time_elapsed":2101383,"internal_node_id":"0.0-11.0-5.0"},{"rt":15104.399999856949,"grid":[[1,1,1,1]],"target":[0,0],"response":[0,1],"correct":false,"juego":12,"trial_type":"serial-reaction-time-mouse","trial_index":64,"time_elapsed":2116490,"internal_node_id":"0.0-11.0-6.0"},{"rt":13205,"grid":[[1,1,1],[1,1,1],[1,1,1],[1,1,1],[1,1,1],[1,1,1],[1,1,1],[1,1,1],[1,1,1]],"target":[0,0],"response":[1,1],"correct":false,"juego":6,"trial_type":"serial-reaction-time-mouse","trial_index":65,"time_elapsed":2129698,"internal_node_id":"0.0-11.0-7.0"},{"rt":14203.800000190735,"grid":[[1,1,1,1]],"target":[0,0],"response":[0,2],"correct":false,"juego":11,"trial_type":"serial-reaction-time-mouse","trial_index":66,"time_elapsed":2143904,"internal_node_id":"0.0-11.0-8.0"},{"rt":13779.5,"grid":[[1,1,1],[1,1,1],[1,1,1],[1,1,1],[1,1,1],[1,1,1],[1,1,1],[1,1,1],[1,1,1]],"target":[0,0],"response":[3,1],"correct":false,"juego":13,"trial_type":"serial-reaction-time-mouse","trial_index":67,"time_elapsed":2157686,"internal_node_id":"0.0-11.0-9.0"},{"rt":5801.299999952316,"grid":[[1,1,1,1]],"target":[0,0],"response":[0,2],"correct":false,"juego":9,"trial_type":"serial-reaction-time-mouse","trial_index":68,"time_elapsed":2163489,"internal_node_id":"0.0-11.0-10.0"},{"rt":6615.700000047684,"grid":[[1,1,1],[1,1,1],[1,1,1],[1,1,1],[1,1,1],[1,1,1],[1,1,1],[1,1,1],[1,1,1]],"target":[0,0],"response":[3,1],"correct":false,"juego":5,"trial_type":"serial-reaction-time-mouse","trial_index":69,"time_elapsed":2170108,"internal_node_id":"0.0-11.0-11.0"},{"rt":3431.4000000953674,"grid":[[1],[1],[1],[1]],"target":[0,0],"response":[1,0],"correct":false,"juego":4,"trial_type":"serial-reaction-time-mouse","trial_index":70,"time_elapsed":2173541,"internal_node_id":"0.0-11.0-12.0"},{"rt":10815.800000190735,"grid":[[1,1,1,1]],"target":[0,0],"response":[0,3],"correct":false,"juego":3,"trial_type":"serial-reaction-time-mouse","trial_index":71,"time_elapsed":2184358,"internal_node_id":"0.0-11.0-13.0"},{"rt":4323.5,"grid":[[1,1,1,1]],"target":[0,0],"response":[0,1],"correct":false,"juego":7,"trial_type":"serial-reaction-time-mouse","trial_index":72,"time_elapsed":2188684,"internal_node_id":"0.0-11.0-14.0"},{"rt":9008.100000143051,"stimulus":"<h1>Último juego</h1><p style=\"font-size: 130%;\">Tienes <span style=\"color:red\">25</span> segundos para recordar los pares de palabras que aparecerán a continuación. <br></p>","response":0,"trial_type":"html-button-response","trial_index":73,"time_elapsed":2197697,"internal_node_id":"0.0-12.0"},{"animation_sequence":[{"stimulus":"imagen_juego_interferencia.jpg","time":502.5},{"stimulus":"imagen_juego_interferencia.jpg","time":1001.9000000953674},{"stimulus":"imagen_juego_interferencia.jpg","time":1501.6000001430511},{"stimulus":"imagen_juego_interferencia.jpg","time":2003.1000001430511},{"stimulus":"imagen_juego_interferencia.jpg","time":2502.2999999523163},{"stimulus":"imagen_juego_interferencia.jpg","time":3001.4000000953674},{"stimulus":"imagen_juego_interferencia.jpg","time":3501.4000000953674},{"stimulus":"imagen_juego_interferencia.jpg","time":4002.4000000953674},{"stimulus":"imagen_juego_interferencia.jpg","time":4501.400000095367},{"stimulus":"imagen_juego_interferencia.jpg","time":5002.600000143051},{"stimulus":"imagen_juego_interferencia.jpg","time":5501.700000047684},{"stimulus":"imagen_juego_interferencia.jpg","time":6002},{"stimulus":"imagen_juego_interferencia.jpg","time":6503.200000047684},{"stimulus":"imagen_juego_interferencia.jpg","time":7002.700000047684},{"stimulus":"imagen_juego_interferencia.jpg","time":7502},{"stimulus":"imagen_juego_interferencia.jpg","time":8002.100000143051},{"stimulus":"imagen_juego_interferencia.jpg","time":8501.400000095367},{"stimulus":"imagen_juego_interferencia.jpg","time":9002.700000047684},{"stimulus":"imagen_juego_interferencia.jpg","time":9502.100000143051},{"stimulus":"imagen_juego_interferencia.jpg","time":10002},{"stimulus":"imagen_juego_interferencia.jpg","time":10502},{"stimulus":"imagen_juego_interferencia.jpg","time":11002.100000143051},{"stimulus":"imagen_juego_interferencia.jpg","time":11503.200000047684},{"stimulus":"imagen_juego_interferencia.jpg","time":12002.100000143051},{"stimulus":"imagen_juego_interferencia.jpg","time":12501.600000143051},{"stimulus":"imagen_juego_interferencia.jpg","time":13001.600000143051},{"stimulus":"imagen_juego_interferencia.jpg","time":13501.200000047684},{"stimulus":"imagen_juego_interferencia.jpg","time":14000.900000095367},{"stimulus":"imagen_juego_interferencia.jpg","time":14501.5},{"stimulus":"imagen_juego_interferencia.jpg","time":15001.400000095367},{"stimulus":"imagen_juego_interferencia.jpg","time":15501.5},{"stimulus":"imagen_juego_interferencia.jpg","time":16001.900000095367},{"stimulus":"imagen_juego_interferencia.jpg","time":16501.60000014305},{"stimulus":"imagen_juego_interferencia.jpg","time":17001.799999952316},{"stimulus":"imagen_juego_interferencia.jpg","time":17502.299999952316},{"stimulus":"imagen_juego_interferencia.jpg","time":18001.60000014305},{"stimulus":"imagen_juego_interferencia.jpg","time":18501.200000047684},{"stimulus":"imagen_juego_interferencia.jpg","time":19001.700000047684},{"stimulus":"imagen_juego_interferencia.jpg","time":19501.799999952316},{"stimulus":"imagen_juego_interferencia.jpg","time":20002.10000014305},{"stimulus":"imagen_juego_interferencia.jpg","time":20501.799999952316},{"stimulus":"imagen_juego_interferencia.jpg","time":21002.200000047684},{"stimulus":"imagen_juego_interferencia.jpg","time":21501.700000047684},{"stimulus":"imagen_juego_interferencia.jpg","time":22001.700000047684},{"stimulus":"imagen_juego_interferencia.jpg","time":22501.400000095367},{"stimulus":"imagen_juego_interferencia.jpg","time":23001.60000014305},{"stimulus":"imagen_juego_interferencia.jpg","time":23501.400000095367},{"stimulus":"imagen_juego_interferencia.jpg","time":24002.700000047684},{"stimulus":"imagen_juego_interferencia.jpg","time":24502.200000047684},{"stimulus":"imagen_juego_interferencia.jpg","time":25001.700000047684}],"response":[],"trial_type":"animation","trial_index":74,"time_elapsed":2223200,"internal_node_id":"0.0-13.0"},{"rt":7681.100000143051,"responses":"{\"pregunta interferencia1\":\"naranja\"}","question_order":"[0]","trial_type":"survey-multi-choice-cuest","trial_index":75,"time_elapsed":2230884,"internal_node_id":"0.0-14.0-0.0"},{"rt":3386.9000000953674,"responses":"{\"pregunta interferencia3\":\"aluminio\"}","question_order":"[0]","trial_type":"survey-multi-choice-cuest","trial_index":76,"time_elapsed":2234274,"internal_node_id":"0.0-14.0-1.0"},{"rt":7503,"responses":"{\"pregunta interferencia2\":\"cucaracha\"}","question_order":"[0]","trial_type":"survey-multi-choice-cuest","trial_index":77,"time_elapsed":2241780,"internal_node_id":"0.0-14.0-2.0"},{"rt":2878.5999999046326,"responses":"{\"pregunta interferencia4\":\"contador\"}","question_order":"[0]","trial_type":"survey-multi-choice-cuest","trial_index":78,"time_elapsed":2244662,"internal_node_id":"0.0-14.0-3.0"},{"success":true,"trial_type":"fullscreen","trial_index":79,"time_elapsed":2245665,"internal_node_id":"0.0-15.0"},{"rt":14460.200000047684,"responses":"{\"Telefono\":\"\"}","trial_type":"survey-text","trial_index":80,"time_elapsed":2260138,"internal_node_id":"0.0-16.0"}]