[{"rt":10977.800000011921,"stimulus":"<h1 style=\"color:red; margin-top: 3%;\">¡Bienvenido(a)!</h1><p style=\"text-align:left; justify-content:space-between; margin-right: 5%; margin-left: 5%; margin-top: 5%\"> Antes de empezar el estudio, necesitamos que nos confirmes que estás de acuerdo con participar. Recuerda que tu participación es 100% voluntaria y que lo único que te pedimos es responder lo mejor que puedas. Recuerda también que el estudio incluye:</p><ol style=\"text-align:left; justify-content:space-between; margin-right: 5%; margin-left: 5%;\"><li> un ejercicio de resolución de preguntas de selección múltiple (30’),</li><li>un cuestionario breve (5’),</li><li>un juego muy breve (3’),</li></ol><p style=\"text-align:left; justify-content:space-between; margin-right: 5%; margin-left: 5%;\">Si quieres participar, haz clic en “Acepto” luego de leer lo siguiente:<br></p><p style=\"text-align:left; justify-content:space-between; margin-right: 5%; margin-left: 5%;\">Acepto participar en el estudio “Estrategias de lectura y resolución de preguntas de selección múltiple”, en los términos aquí señalados:<br></p><p style=\"text-align:left; justify-content:space-between; margin-right: 5%; margin-left: 5%;\"><a href=\"http://ciae.uchile.cl/download.php?file=noticias/Asentimiento.pdf\" target=\"_blank\">Link a la hoja de información del Consentimiento.</a></p><p style=\"text-align:left; justify-content:space-between; margin-right: 5%; margin-left: 5%;\">Declaro que he leído (o se me ha leído) y (he) comprendido, las condiciones de mi participación en este estudio. He tenido la oportunidad de hacer preguntas y éstas han sido respondidas. No tengo dudas al respecto.</p>","response":0,"condicion_MCQ":11,"condicion_JUEGO":23,"condicion_INTER":23,"numero_participante":71,"numero_version":2,"dimx":1366,"dimy":768,"color_profundidad":24,"pixel_profundidad":24,"Browser":"Google Chrome","dia":9,"mes":5,"hora":12,"minuto":10,"segundo":6,"trial_type":"html-button-response","trial_index":0,"time_elapsed":10981,"internal_node_id":"0.0-0.0"},{"success":true,"trial_type":"fullscreen","trial_index":1,"time_elapsed":18732,"internal_node_id":"0.0-1.0"},{"rt":82614.20000001788,"responses":"{\"Nombres\":\"Amanda Carolina\",\"Apellidos\":\"Orellana Moya\",\"Edad\":\"18\",\"Sexo\":\"mujer\",\"Curso\":\"Sección 204\",\"Colegio\":\"Universidad\",\"Contacto\":\"amanda.orellanam@gmail.com\"}","trial_type":"survey-text","trial_index":2,"time_elapsed":101379,"internal_node_id":"0.0-2.0"},{"success":true,"timeout":false,"failed_images":[],"failed_audio":[],"failed_video":[],"trial_type":"preload","trial_index":3,"time_elapsed":104215,"internal_node_id":"0.0-3.0"},{"rt":12042.199999988079,"stimulus":"<h1 style:\"margin-top: 5%;\">Ejercicios de Comprensión de Lectura de la Universidad de Chile</h1><p style=\"font-size: 120%;\">En esta actividad, debes responder 24 preguntas de selección múltiple. Cada pregunta presenta 4 respuestas alternativas, pero sólo una de ellas es correcta. Por lo tanto, debes escoger una sola alternativa para cada pregunta. Además, debes reportar qué tan seguro(a) estás de la respuesta que das, con un:</p><ol style=\"font-size: 120%;text-align:left;margin-left: 40%;\"><li>No estoy seguro(a) para nada</li><li>No estoy muy seguro(a)</li><li>Estoy bastante seguro(a)</li><li>Estoy totalmente seguro(a)</li></ol><p style=\"font-size: 120%;\">Por favor lee bien los enunciados antes de responder. ¡Éxito!</p>","response":0,"trial_type":"html-button-response","trial_index":4,"time_elapsed":116258,"internal_node_id":"0.0-4.0"},{"rt":74982.40000000596,"responses":"{\"pregunta8\":\"b) El ser humano se comporta de acuerdo con las circunstancias.\"}","question_order":"[0]","trial_type":"survey-multi-choice","trial_index":5,"time_elapsed":191243,"internal_node_id":"0.0-5.0-0.0"},{"rt":3621.4000000059605,"response":{"pregunta8 likert":2},"question_order":[0],"trial_type":"survey-likert","trial_index":6,"time_elapsed":194867,"internal_node_id":"0.0-5.0-1.0"},{"rt":61773.80000001192,"responses":"{\"pregunta17\":\"d) A la inexistencia de un recinto adecuado para el recital.\"}","question_order":"[0]","trial_type":"survey-multi-choice","trial_index":7,"time_elapsed":256643,"internal_node_id":"0.0-5.0-2.0"},{"rt":1885.5999999940395,"response":{"pregunta17 likert":3},"question_order":[0],"trial_type":"survey-likert","trial_index":8,"time_elapsed":258530,"internal_node_id":"0.0-5.0-3.0"},{"rt":108118.09999999404,"responses":"{\"pregunta19\":\"b) sufren dolores de espalda.\"}","question_order":"[0]","trial_type":"survey-multi-choice","trial_index":9,"time_elapsed":366650,"internal_node_id":"0.0-5.0-4.0"},{"rt":5814.0999999940395,"response":{"pregunta19 likert":2},"question_order":[0],"trial_type":"survey-likert","trial_index":10,"time_elapsed":372466,"internal_node_id":"0.0-5.0-5.0"},{"rt":131845.69999998808,"responses":"{\"pregunta9\":\"c) preparar los recuerdos del mañana.\"}","question_order":"[0]","trial_type":"survey-multi-choice","trial_index":11,"time_elapsed":504313,"internal_node_id":"0.0-5.0-6.0"},{"rt":1974,"response":{"pregunta9 likert":1},"question_order":[0],"trial_type":"survey-likert","trial_index":12,"time_elapsed":506289,"internal_node_id":"0.0-5.0-7.0"},{"rt":87133.59999999404,"responses":"{\"pregunta2\":\"d) A la relación entre pensamiento y estructura social.\"}","question_order":"[0]","trial_type":"survey-multi-choice","trial_index":13,"time_elapsed":593425,"internal_node_id":"0.0-5.0-8.0"},{"rt":1622.5,"response":{"pregunta2 likert":2},"question_order":[0],"trial_type":"survey-likert","trial_index":14,"time_elapsed":595049,"internal_node_id":"0.0-5.0-9.0"},{"rt":67566.30000001192,"responses":"{\"pregunta21\":\"c) Nuestra economía vivirá un proceso de ajuste a la nueva realidad.\"}","question_order":"[0]","trial_type":"survey-multi-choice","trial_index":15,"time_elapsed":662616,"internal_node_id":"0.0-5.0-10.0"},{"rt":1526.5999999940395,"response":{"pregunta21 likert":3},"question_order":[0],"trial_type":"survey-likert","trial_index":16,"time_elapsed":664145,"internal_node_id":"0.0-5.0-11.0"},{"rt":86022.09999999404,"responses":"{\"pregunta13\":\"d) Al premio merecido después de tantos esfuerzos.\"}","question_order":"[0]","trial_type":"survey-multi-choice","trial_index":17,"time_elapsed":750168,"internal_node_id":"0.0-5.0-12.0"},{"rt":5934,"response":{"pregunta13 likert":1},"question_order":[0],"trial_type":"survey-likert","trial_index":18,"time_elapsed":756104,"internal_node_id":"0.0-5.0-13.0"},{"rt":35702.79999998212,"responses":"{\"pregunta16\":\"a) Bomberos debería tener acceso a un seguro médico, al que pueda recurrir en caso de accidente.\"}","question_order":"[0]","trial_type":"survey-multi-choice","trial_index":19,"time_elapsed":791807,"internal_node_id":"0.0-5.0-14.0"},{"rt":1542.5999999940395,"response":{"pregunta16 likert":3},"question_order":[0],"trial_type":"survey-likert","trial_index":20,"time_elapsed":793351,"internal_node_id":"0.0-5.0-15.0"},{"rt":132093.40000000596,"responses":"{\"pregunta15\":\"a) el uranio es el elemento natural con el mayor número de protones en el núcleo.\"}","question_order":"[0]","trial_type":"survey-multi-choice","trial_index":21,"time_elapsed":925447,"internal_node_id":"0.0-5.0-16.0"},{"rt":1806.5999999940395,"response":{"pregunta15 likert":2},"question_order":[0],"trial_type":"survey-likert","trial_index":22,"time_elapsed":927255,"internal_node_id":"0.0-5.0-17.0"},{"rt":54549.90000000596,"responses":"{\"pregunta5\":\"d) La escritura plasma los mejores momentos de los viajes.\"}","question_order":"[0]","trial_type":"survey-multi-choice","trial_index":23,"time_elapsed":981807,"internal_node_id":"0.0-5.0-18.0"},{"rt":1854.4000000059605,"response":{"pregunta5 likert":2},"question_order":[0],"trial_type":"survey-likert","trial_index":24,"time_elapsed":983663,"internal_node_id":"0.0-5.0-19.0"},{"rt":78525.29999998212,"responses":"{\"pregunta23\":\"c) el jardinero estará muerto al día siguiente.\"}","question_order":"[0]","trial_type":"survey-multi-choice","trial_index":25,"time_elapsed":1062191,"internal_node_id":"0.0-5.0-20.0"},{"rt":1710.2000000178814,"response":{"pregunta23 likert":3},"question_order":[0],"trial_type":"survey-likert","trial_index":26,"time_elapsed":1063903,"internal_node_id":"0.0-5.0-21.0"},{"rt":116365.40000000596,"responses":"{\"pregunta20\":\"c) el hombre excesivo es inmoral.\"}","question_order":"[0]","trial_type":"survey-multi-choice","trial_index":27,"time_elapsed":1180271,"internal_node_id":"0.0-5.0-22.0"},{"rt":3718.300000011921,"response":{"pregunta20 likert":1},"question_order":[0],"trial_type":"survey-likert","trial_index":28,"time_elapsed":1183990,"internal_node_id":"0.0-5.0-23.0"},{"rt":54437.89999997616,"responses":"{\"pregunta18\":\"c) La publicidad ejerce una influencia positiva sobre la sociedad.\"}","question_order":"[0]","trial_type":"survey-multi-choice","trial_index":29,"time_elapsed":1238430,"internal_node_id":"0.0-5.0-24.0"},{"rt":1839,"response":{"pregunta18 likert":2},"question_order":[0],"trial_type":"survey-likert","trial_index":30,"time_elapsed":1240271,"internal_node_id":"0.0-5.0-25.0"},{"rt":27597.90000000596,"responses":"{\"pregunta22\":\"c) Se necesita un marco legal para delimitar lo público y lo privado en materia informativa.\"}","question_order":"[0]","trial_type":"survey-multi-choice","trial_index":31,"time_elapsed":1267870,"internal_node_id":"0.0-5.0-26.0"},{"rt":1510.199999988079,"response":{"pregunta22 likert":3},"question_order":[0],"trial_type":"survey-likert","trial_index":32,"time_elapsed":1269382,"internal_node_id":"0.0-5.0-27.0"},{"rt":15694.09999999404,"responses":"{\"pregunta24\":\"d) para el mexicano, la muerte es cotidiana.\"}","question_order":"[0]","trial_type":"survey-multi-choice","trial_index":33,"time_elapsed":1285078,"internal_node_id":"0.0-5.0-28.0"},{"rt":1222.300000011921,"response":{"pregunta24 likert":3},"question_order":[0],"trial_type":"survey-likert","trial_index":34,"time_elapsed":1286302,"internal_node_id":"0.0-5.0-29.0"},{"rt":50085.79999998212,"responses":"{\"pregunta1\":\"b) Muestran las opiniones expuestas por los personajes en un relato.\"}","question_order":"[0]","trial_type":"survey-multi-choice","trial_index":35,"time_elapsed":1336389,"internal_node_id":"0.0-5.0-30.0"},{"rt":1430.5,"response":{"pregunta1 likert":2},"question_order":[0],"trial_type":"survey-likert","trial_index":36,"time_elapsed":1337821,"internal_node_id":"0.0-5.0-31.0"},{"rt":44094.40000000596,"responses":"{\"pregunta10\":\"c) ritualistas y obsesivos.\"}","question_order":"[0]","trial_type":"survey-multi-choice","trial_index":37,"time_elapsed":1381917,"internal_node_id":"0.0-5.0-32.0"},{"rt":1654.7000000178814,"response":{"pregunta10 likert":2},"question_order":[0],"trial_type":"survey-likert","trial_index":38,"time_elapsed":1383573,"internal_node_id":"0.0-5.0-33.0"},{"rt":60974.39999997616,"responses":"{\"pregunta4\":\"a) En la literatura como en la vida, lo importante son las preguntas.\"}","question_order":"[0]","trial_type":"survey-multi-choice","trial_index":39,"time_elapsed":1444549,"internal_node_id":"0.0-5.0-34.0"},{"rt":1206.5,"response":{"pregunta4 likert":3},"question_order":[0],"trial_type":"survey-likert","trial_index":40,"time_elapsed":1445757,"internal_node_id":"0.0-5.0-35.0"},{"rt":62566.10000002384,"responses":"{\"pregunta11\":\"c) Provocar el deseo de la adquisición vertiginosa.\"}","question_order":"[0]","trial_type":"survey-multi-choice","trial_index":41,"time_elapsed":1508325,"internal_node_id":"0.0-5.0-36.0"},{"rt":1854.5,"response":{"pregunta11 likert":3},"question_order":[0],"trial_type":"survey-likert","trial_index":42,"time_elapsed":1510181,"internal_node_id":"0.0-5.0-37.0"},{"rt":67950,"responses":"{\"pregunta3\":\"b) El inicio de la dinastía Chang.\"}","question_order":"[0]","trial_type":"survey-multi-choice","trial_index":43,"time_elapsed":1578132,"internal_node_id":"0.0-5.0-38.0"},{"rt":1646.3999999761581,"response":{"pregunta3 likert":2},"question_order":[0],"trial_type":"survey-likert","trial_index":44,"time_elapsed":1579781,"internal_node_id":"0.0-5.0-39.0"},{"rt":31366.09999999404,"responses":"{\"pregunta6\":\"c) Criticar la mezcla de estilos que se puede observar en la muestra que exhibe Casa Mater.\"}","question_order":"[0]","trial_type":"survey-multi-choice","trial_index":45,"time_elapsed":1611148,"internal_node_id":"0.0-5.0-40.0"},{"rt":1486,"response":{"pregunta6 likert":2},"question_order":[0],"trial_type":"survey-likert","trial_index":46,"time_elapsed":1612636,"internal_node_id":"0.0-5.0-41.0"},{"rt":61222,"responses":"{\"pregunta12\":\"d) Homenajear a quienes murieron.\"}","question_order":"[0]","trial_type":"survey-multi-choice","trial_index":47,"time_elapsed":1673860,"internal_node_id":"0.0-5.0-42.0"},{"rt":1358.300000011921,"response":{"pregunta12 likert":2},"question_order":[0],"trial_type":"survey-likert","trial_index":48,"time_elapsed":1675220,"internal_node_id":"0.0-5.0-43.0"},{"rt":31693.90000000596,"responses":"{\"pregunta7\":\"b) se da como existente, y sólo se discute su relación con el cuerpo.\"}","question_order":"[0]","trial_type":"survey-multi-choice","trial_index":49,"time_elapsed":1706916,"internal_node_id":"0.0-5.0-44.0"},{"rt":1462.5999999940395,"response":{"pregunta7 likert":2},"question_order":[0],"trial_type":"survey-likert","trial_index":50,"time_elapsed":1708380,"internal_node_id":"0.0-5.0-45.0"},{"rt":54398.5,"responses":"{\"pregunta14\":\"d) el mejor emperador es el que está muerto.\"}","question_order":"[0]","trial_type":"survey-multi-choice","trial_index":51,"time_elapsed":1762779,"internal_node_id":"0.0-5.0-46.0"},{"rt":1478.5999999940395,"response":{"pregunta14 likert":2},"question_order":[0],"trial_type":"survey-likert","trial_index":52,"time_elapsed":1764259,"internal_node_id":"0.0-5.0-47.0"},{"rt":2539.5999999940395,"stimulus":"<p style=\"font-size: 120%\">Gracias por completar esta etapa del estudio. Ahora te invitamos a responder el cuestionario.<br><br></p>","response":0,"trial_type":"html-button-response","trial_index":53,"time_elapsed":1766803,"internal_node_id":"0.0-6.0"},{"rt":15111.09999999404,"stimulus":"<h1 style=\"margin-top: 5%\">Cuestionario para la Evaluación de Metas Académicas</h1><p style=\"font-size: 120%; margin-left: 3%; margin-top: 5%\">Este es un cuestionario que permite conocer cuáles son los principales motivos por los que los estudiantes se esfuerzan en su trabajo académico. A continuación, se te presentarán una serie de afirmaciones acerca de los motivos que puedes tener para estudiar.<br>Te pedimos que contestes a dichas afirmaciones reflexionando sobre el contenido de cada una de ellas, que, aunque te parezcan semejantes, en realidad, no lo son.<br>NO HAY RESPUESTAS CORRECTAS o INCORRECTAS, sólo queremos que respondas con la mayor precisión y sinceridad posible a las preguntas que se plantean.","response":0,"trial_type":"html-button-response","trial_index":54,"time_elapsed":1781915,"internal_node_id":"0.0-7.0"},{"rt":157877.90000000596,"response":{"Metas cuestionario pregunta1":3,"Metas cuestionario pregunta2":4,"Metas cuestionario pregunta3":4,"Metas cuestionario pregunta4":2,"Metas cuestionario pregunta5":4,"Metas cuestionario pregunta6":4,"Metas cuestionario pregunta7":4,"Metas cuestionario pregunta8":3,"Metas cuestionario pregunta9":2,"Metas cuestionario pregunta10":1,"Metas cuestionario pregunta11":3,"Metas cuestionario pregunta12":4,"Metas cuestionario pregunta13":4,"Metas cuestionario pregunta14":2,"Metas cuestionario pregunta15":3,"Metas cuestionario pregunta16":3,"Metas cuestionario pregunta17":4,"Metas cuestionario pregunta18":2,"Metas cuestionario pregunta19":3,"Metas cuestionario pregunta20":2},"question_order":[0,1,2,3,4,5,6,7,8,9,10,11,12,13,14,15,16,17,18,19],"trial_type":"survey-likert","trial_index":55,"time_elapsed":1939799,"internal_node_id":"0.0-8.0"},{"rt":2215.9000000059605,"stimulus":"<p style=\"font-size: 120%\">Gracias por responder el cuestionario. Ahora te invitamos a seguir con el juego, que es muy breve.<br><br></p>","response":0,"trial_type":"html-button-response","trial_index":56,"time_elapsed":1942019,"internal_node_id":"0.0-9.0"},{"rt":4438.299999982119,"stimulus":"<h1>Juego</h1><p style=\"font-size: 120%;\">A continuación se te presentarán 16 pequeñas historias.<br>Por favor lee el texto presentado en cada una de ellas y luego haz click en el objeto de tu elección.<br>Si estás listo(a),<span style=\"color:red;\"> haz click en \"comenzar\"</span>.</p>","response":0,"trial_type":"html-button-response","trial_index":57,"time_elapsed":1946459,"internal_node_id":"0.0-10.0"},{"rt":8362.59999999404,"grid":[[1,1,1,1]],"target":[0,0],"response":[0,0],"correct":true,"juego":11,"trial_type":"serial-reaction-time-mouse","trial_index":58,"time_elapsed":1954823,"internal_node_id":"0.0-11.0-0.0"},{"rt":24685,"grid":[[1,1,1],[1,1,1],[1,1,1],[1,1,1],[1,1,1],[1,1,1],[1,1,1],[1,1,1],[1,1,1]],"target":[0,0],"response":[5,2],"correct":false,"juego":10,"trial_type":"serial-reaction-time-mouse","trial_index":59,"time_elapsed":1979512,"internal_node_id":"0.0-11.0-1.0"},{"rt":15395.700000017881,"grid":[[1,1,1],[1,1,1],[1,1,1],[1,1,1],[1,1,1],[1,1,1],[1,1,1],[1,1,1],[1,1,1]],"target":[0,0],"response":[5,1],"correct":false,"juego":5,"trial_type":"serial-reaction-time-mouse","trial_index":60,"time_elapsed":1994912,"internal_node_id":"0.0-11.0-2.0"},{"rt":29909.5,"grid":[[1,1,1,1]],"target":[0,0],"response":[0,1],"correct":false,"juego":12,"trial_type":"serial-reaction-time-mouse","trial_index":61,"time_elapsed":2024824,"internal_node_id":"0.0-11.0-3.0"},{"rt":18540.600000023842,"grid":[[1,1,1],[1,1,1],[1,1,1],[1,1,1],[1,1,1],[1,1,1],[1,1,1],[1,1,1],[1,1,1]],"target":[0,0],"response":[1,1],"correct":false,"juego":13,"trial_type":"serial-reaction-time-mouse","trial_index":62,"time_elapsed":2043368,"internal_node_id":"0.0-11.0-4.0"},{"rt":2756.5,"grid":[[1,1,1,1]],"target":[0,0],"response":[0,0],"correct":true,"juego":1,"trial_type":"serial-reaction-time-mouse","trial_index":63,"time_elapsed":2046127,"internal_node_id":"0.0-11.0-5.0"},{"rt":13989.300000011921,"grid":[[1,1,1,1]],"target":[0,0],"response":[0,1],"correct":false,"juego":3,"trial_type":"serial-reaction-time-mouse","trial_index":64,"time_elapsed":2060119,"internal_node_id":"0.0-11.0-6.0"},{"rt":6805.4000000059605,"grid":[[1],[1],[1],[1]],"target":[0,0],"response":[2,0],"correct":false,"juego":4,"trial_type":"serial-reaction-time-mouse","trial_index":65,"time_elapsed":2066926,"internal_node_id":"0.0-11.0-7.0"},{"rt":20054.79999998212,"grid":[[1,1,1,1]],"target":[0,0],"response":[0,2],"correct":false,"juego":7,"trial_type":"serial-reaction-time-mouse","trial_index":66,"time_elapsed":2086983,"internal_node_id":"0.0-11.0-8.0"},{"rt":10027.699999988079,"grid":[[1,1,1,1],[1,1,1,1],[1,1,1,1],[1,1,1,1],[1,1,1,1],[1,1,1,1],[1,1,1,1],[1,1,1,1],[1,1,1,1]],"target":[0,0],"response":[5,2],"correct":false,"juego":15,"trial_type":"serial-reaction-time-mouse","trial_index":67,"time_elapsed":2097015,"internal_node_id":"0.0-11.0-9.0"},{"rt":9196.199999988079,"grid":[[1,1,1,1]],"target":[0,0],"response":[0,1],"correct":false,"juego":2,"trial_type":"serial-reaction-time-mouse","trial_index":68,"time_elapsed":2106214,"internal_node_id":"0.0-11.0-10.0"},{"rt":3406.399999976158,"grid":[[1,1,1],[1,1,1],[1,1,1],[1,1,1],[1,1,1],[1,1,1],[1,1,1],[1,1,1],[1,1,1]],"target":[0,0],"response":[3,1],"correct":false,"juego":6,"trial_type":"serial-reaction-time-mouse","trial_index":69,"time_elapsed":2109624,"internal_node_id":"0.0-11.0-11.0"},{"rt":9418.199999988079,"grid":[[1,1,1,1],[1,1,1,1],[1,1,1,1],[1,1,1,1],[1,1,1,1],[1,1,1,1],[1,1,1,1],[1,1,1,1],[1,1,1,1]],"target":[0,0],"response":[3,2],"correct":false,"juego":14,"trial_type":"serial-reaction-time-mouse","trial_index":70,"time_elapsed":2119047,"internal_node_id":"0.0-11.0-12.0"},{"rt":7101.700000017881,"grid":[[1,1,1,1]],"target":[0,0],"response":[0,0],"correct":true,"juego":9,"trial_type":"serial-reaction-time-mouse","trial_index":71,"time_elapsed":2126150,"internal_node_id":"0.0-11.0-13.0"},{"rt":13574.699999988079,"grid":[[1,1,1,1]],"target":[0,0],"response":[0,1],"correct":false,"juego":8,"trial_type":"serial-reaction-time-mouse","trial_index":72,"time_elapsed":2139727,"internal_node_id":"0.0-11.0-14.0"},{"rt":5469.4000000059605,"stimulus":"<h1>Último juego</h1><p style=\"font-size: 130%;\">Tienes <span style=\"color:red\">25</span> segundos para recordar los pares de palabras que aparecerán a continuación. <br></p>","response":0,"trial_type":"html-button-response","trial_index":73,"time_elapsed":2145202,"internal_node_id":"0.0-12.0"},{"animation_sequence":[{"stimulus":"imagen_juego_interferencia.jpg","time":537.0999999940395},{"stimulus":"imagen_juego_interferencia.jpg","time":1004.3000000119209},{"stimulus":"imagen_juego_interferencia.jpg","time":1504.800000011921},{"stimulus":"imagen_juego_interferencia.jpg","time":2002.5},{"stimulus":"imagen_juego_interferencia.jpg","time":2501.800000011921},{"stimulus":"imagen_juego_interferencia.jpg","time":3013.2000000178814},{"stimulus":"imagen_juego_interferencia.jpg","time":3509.800000011921},{"stimulus":"imagen_juego_interferencia.jpg","time":4011},{"stimulus":"imagen_juego_interferencia.jpg","time":4509.0999999940395},{"stimulus":"imagen_juego_interferencia.jpg","time":5009.200000017881},{"stimulus":"imagen_juego_interferencia.jpg","time":5518.4000000059605},{"stimulus":"imagen_juego_interferencia.jpg","time":6015.0999999940395},{"stimulus":"imagen_juego_interferencia.jpg","time":6502.4000000059605},{"stimulus":"imagen_juego_interferencia.jpg","time":7005.4000000059605},{"stimulus":"imagen_juego_interferencia.jpg","time":7502.5},{"stimulus":"imagen_juego_interferencia.jpg","time":8005.4000000059605},{"stimulus":"imagen_juego_interferencia.jpg","time":8516.09999999404},{"stimulus":"imagen_juego_interferencia.jpg","time":9016},{"stimulus":"imagen_juego_interferencia.jpg","time":9515},{"stimulus":"imagen_juego_interferencia.jpg","time":10016.800000011921},{"stimulus":"imagen_juego_interferencia.jpg","time":10501.800000011921},{"stimulus":"imagen_juego_interferencia.jpg","time":11006.300000011921},{"stimulus":"imagen_juego_interferencia.jpg","time":11507},{"stimulus":"imagen_juego_interferencia.jpg","time":12005.700000017881},{"stimulus":"imagen_juego_interferencia.jpg","time":12501.800000011921},{"stimulus":"imagen_juego_interferencia.jpg","time":13015.800000011921},{"stimulus":"imagen_juego_interferencia.jpg","time":13502.5},{"stimulus":"imagen_juego_interferencia.jpg","time":14015.5},{"stimulus":"imagen_juego_interferencia.jpg","time":14510.300000011921},{"stimulus":"imagen_juego_interferencia.jpg","time":15007.800000011921},{"stimulus":"imagen_juego_interferencia.jpg","time":15504.40000000596},{"stimulus":"imagen_juego_interferencia.jpg","time":16001.700000017881},{"stimulus":"imagen_juego_interferencia.jpg","time":16513.40000000596},{"stimulus":"imagen_juego_interferencia.jpg","time":17003.70000001788},{"stimulus":"imagen_juego_interferencia.jpg","time":17508.20000001788},{"stimulus":"imagen_juego_interferencia.jpg","time":18006.09999999404},{"stimulus":"imagen_juego_interferencia.jpg","time":18504.5},{"stimulus":"imagen_juego_interferencia.jpg","time":19013.70000001788},{"stimulus":"imagen_juego_interferencia.jpg","time":19512.20000001788},{"stimulus":"imagen_juego_interferencia.jpg","time":20014.40000000596},{"stimulus":"imagen_juego_interferencia.jpg","time":20507.70000001788},{"stimulus":"imagen_juego_interferencia.jpg","time":21002},{"stimulus":"imagen_juego_interferencia.jpg","time":21507.80000001192},{"stimulus":"imagen_juego_interferencia.jpg","time":22016.20000001788},{"stimulus":"imagen_juego_interferencia.jpg","time":22502.5},{"stimulus":"imagen_juego_interferencia.jpg","time":23012.30000001192},{"stimulus":"imagen_juego_interferencia.jpg","time":23507.90000000596},{"stimulus":"imagen_juego_interferencia.jpg","time":24001.90000000596},{"stimulus":"imagen_juego_interferencia.jpg","time":24502.90000000596},{"stimulus":"imagen_juego_interferencia.jpg","time":25002}],"response":[],"trial_type":"animation","trial_index":74,"time_elapsed":2170717,"internal_node_id":"0.0-13.0"},{"rt":4034.5999999940395,"responses":"{\"pregunta interferencia3\":\"aluminio\"}","question_order":"[0]","trial_type":"survey-multi-choice-cuest","trial_index":75,"time_elapsed":2174754,"internal_node_id":"0.0-14.0-0.0"},{"rt":4567.0999999940395,"responses":"{\"pregunta interferencia1\":\"naranja\"}","question_order":"[0]","trial_type":"survey-multi-choice-cuest","trial_index":76,"time_elapsed":2179323,"internal_node_id":"0.0-14.0-1.0"},{"rt":3245.2000000178814,"responses":"{\"pregunta interferencia2\":\"saltamontes\"}","question_order":"[0]","trial_type":"survey-multi-choice-cuest","trial_index":77,"time_elapsed":2182570,"internal_node_id":"0.0-14.0-2.0"},{"rt":2463.100000023842,"responses":"{\"pregunta interferencia4\":\"contador\"}","question_order":"[0]","trial_type":"survey-multi-choice-cuest","trial_index":78,"time_elapsed":2185035,"internal_node_id":"0.0-14.0-3.0"},{"success":true,"trial_type":"fullscreen","trial_index":79,"time_elapsed":2186045,"internal_node_id":"0.0-15.0"},{"rt":21602.90000000596,"responses":"{\"Telefono\":\"+56982897293\"}","trial_type":"survey-text","trial_index":80,"time_elapsed":2207658,"internal_node_id":"0.0-16.0"}]