[{"rt":2452994.699999988,"stimulus":"<h1 style=\"color:red; margin-top: 3%;\">¡Bienvenido(a)!</h1><p style=\"text-align:left; justify-content:space-between; margin-right: 5%; margin-left: 5%; margin-top: 5%\"> Antes de empezar el estudio, necesitamos que nos confirmes que estás de acuerdo con participar. Recuerda que tu participación es 100% voluntaria y que lo único que te pedimos es responder lo mejor que puedas. Recuerda también que el estudio incluye:</p><ol style=\"text-align:left; justify-content:space-between; margin-right: 5%; margin-left: 5%;\"><li> un ejercicio de resolución de preguntas de selección múltiple (30’),</li><li>un cuestionario breve (5’),</li><li>un juego muy breve (3’),</li></ol><p style=\"text-align:left; justify-content:space-between; margin-right: 5%; margin-left: 5%;\">Si quieres participar, haz clic en “Acepto” luego de leer lo siguiente:<br></p><p style=\"text-align:left; justify-content:space-between; margin-right: 5%; margin-left: 5%;\">Acepto participar en el estudio “Estrategias de lectura y resolución de preguntas de selección múltiple”, en los términos aquí señalados:<br></p><p style=\"text-align:left; justify-content:space-between; margin-right: 5%; margin-left: 5%;\"><a href=\"http://ciae.uchile.cl/download.php?file=noticias/Asentimiento.pdf\" target=\"_blank\">Link a la hoja de información del Consentimiento.</a></p><p style=\"text-align:left; justify-content:space-between; margin-right: 5%; margin-left: 5%;\">Declaro que he leído (o se me ha leído) y (he) comprendido, las condiciones de mi participación en este estudio. He tenido la oportunidad de hacer preguntas y éstas han sido respondidas. No tengo dudas al respecto.</p>","response":0,"condicion_MCQ":6,"condicion_JUEGO":6,"condicion_INTER":6,"numero_participante":30,"numero_version":1,"dimx":1366,"dimy":768,"color_profundidad":24,"pixel_profundidad":24,"Browser":"Google Chrome","dia":3,"mes":5,"hora":13,"minuto":21,"segundo":22,"trial_type":"html-button-response","trial_index":0,"time_elapsed":2453000,"internal_node_id":"0.0-0.0"},{"success":true,"trial_type":"fullscreen","trial_index":1,"time_elapsed":2514130,"internal_node_id":"0.0-1.0"},{"rt":264993.10000002384,"responses":"{\"Nombres\":\"Camila Andrea\",\"Apellidos\":\"Elgueta Miranda\",\"Edad\":\"19\",\"Sexo\":\"mujer\",\"Curso\":\"Seccion 204\",\"Colegio\":\"Universidad Andres Bello\",\"Contacto\":\"c.elguetamiranda@uandresbello.edu\"}","trial_type":"survey-text","trial_index":2,"time_elapsed":2779147,"internal_node_id":"0.0-2.0"},{"success":true,"timeout":false,"failed_images":[],"failed_audio":[],"failed_video":[],"trial_type":"preload","trial_index":3,"time_elapsed":2780563,"internal_node_id":"0.0-3.0"},{"rt":30379.90000000596,"stimulus":"<h1 style:\"margin-top: 5%;\">Ejercicios de Comprensión de Lectura de la Universidad de Chile</h1><p style=\"font-size: 120%;\">En esta actividad, debes responder 24 preguntas de selección múltiple. Cada pregunta presenta 4 respuestas alternativas, pero sólo una de ellas es correcta. Por lo tanto, debes escoger una sola alternativa para cada pregunta. Además, debes reportar qué tan seguro(a) estás de la respuesta que das, con un:</p><ol style=\"font-size: 120%;text-align:left;margin-left: 40%;\"><li>No estoy seguro(a) para nada</li><li>No estoy muy seguro(a)</li><li>Estoy bastante seguro(a)</li><li>Estoy totalmente seguro(a)</li></ol><p style=\"font-size: 120%;\">Por favor lee bien los enunciados antes de responder. ¡Éxito!</p>","response":0,"trial_type":"html-button-response","trial_index":4,"time_elapsed":2810946,"internal_node_id":"0.0-4.0"},{"rt":162205.30000001192,"responses":"{\"pregunta4\":\"c) En la literatura como en la vida, lo importante son las preguntas.\"}","question_order":"[0]","trial_type":"survey-multi-choice","trial_index":5,"time_elapsed":2973154,"internal_node_id":"0.0-5.0-0.0"},{"rt":7632.800000011921,"response":{"pregunta4 likert":1},"question_order":[0],"trial_type":"survey-likert","trial_index":6,"time_elapsed":2980794,"internal_node_id":"0.0-5.0-1.0"},{"rt":143891.79999998212,"responses":"{\"pregunta20\":\"c) las personas excesivas son más felices.\"}","question_order":"[0]","trial_type":"survey-multi-choice","trial_index":7,"time_elapsed":3124686,"internal_node_id":"0.0-5.0-2.0"},{"rt":2558.5,"response":{"pregunta20 likert":1},"question_order":[0],"trial_type":"survey-likert","trial_index":8,"time_elapsed":3127253,"internal_node_id":"0.0-5.0-3.0"},{"rt":136569.59999999404,"responses":"{\"pregunta10\":\"a) ritualistas y obsesivos.\"}","question_order":"[0]","trial_type":"survey-multi-choice","trial_index":9,"time_elapsed":3263832,"internal_node_id":"0.0-5.0-4.0"},{"rt":5473.0999999940395,"response":{"pregunta10 likert":1},"question_order":[0],"trial_type":"survey-likert","trial_index":10,"time_elapsed":3269312,"internal_node_id":"0.0-5.0-5.0"},{"rt":99985.5,"responses":"{\"pregunta9\":\"c) un recuerdo nostálgico.\"}","question_order":"[0]","trial_type":"survey-multi-choice","trial_index":11,"time_elapsed":3369304,"internal_node_id":"0.0-5.0-6.0"},{"rt":3122.199999988079,"response":{"pregunta9 likert":2},"question_order":[0],"trial_type":"survey-likert","trial_index":12,"time_elapsed":3372432,"internal_node_id":"0.0-5.0-7.0"},{"rt":97922.09999999404,"responses":"{\"pregunta19\":\"d) sufren dolores de espalda.\"}","question_order":"[0]","trial_type":"survey-multi-choice","trial_index":13,"time_elapsed":3470361,"internal_node_id":"0.0-5.0-8.0"},{"rt":2236,"response":{"pregunta19 likert":3},"question_order":[0],"trial_type":"survey-likert","trial_index":14,"time_elapsed":3472603,"internal_node_id":"0.0-5.0-9.0"},{"rt":84366.90000000596,"responses":"{\"pregunta11\":\"b) Provocar el deseo de la adquisición vertiginosa.\"}","question_order":"[0]","trial_type":"survey-multi-choice","trial_index":15,"time_elapsed":3556976,"internal_node_id":"0.0-5.0-10.0"},{"rt":3136.5999999940395,"response":{"pregunta11 likert":2},"question_order":[0],"trial_type":"survey-likert","trial_index":16,"time_elapsed":3560120,"internal_node_id":"0.0-5.0-11.0"},{"rt":127491.30000001192,"responses":"{\"pregunta18\":\"d) El receptor es habitualmente pasivo frente a la publicidad.\"}","question_order":"[0]","trial_type":"survey-multi-choice","trial_index":17,"time_elapsed":3687618,"internal_node_id":"0.0-5.0-12.0"},{"rt":2005.7999999821186,"response":{"pregunta18 likert":1},"question_order":[0],"trial_type":"survey-likert","trial_index":18,"time_elapsed":3689633,"internal_node_id":"0.0-5.0-13.0"},{"rt":58321.90000000596,"responses":"{\"pregunta24\":\"c) la muerte es distinta en las grandes ciudades.\"}","question_order":"[0]","trial_type":"survey-multi-choice","trial_index":19,"time_elapsed":3747957,"internal_node_id":"0.0-5.0-14.0"},{"rt":1891.5,"response":{"pregunta24 likert":2},"question_order":[0],"trial_type":"survey-likert","trial_index":20,"time_elapsed":3749854,"internal_node_id":"0.0-5.0-15.0"},{"rt":61808.39999997616,"responses":"{\"pregunta3\":\"c) El inicio de la civilización china.\"}","question_order":"[0]","trial_type":"survey-multi-choice","trial_index":21,"time_elapsed":3811672,"internal_node_id":"0.0-5.0-16.0"},{"rt":2369.9000000059605,"response":{"pregunta3 likert":2},"question_order":[0],"trial_type":"survey-likert","trial_index":22,"time_elapsed":3814047,"internal_node_id":"0.0-5.0-17.0"},{"rt":127874.39999997616,"responses":"{\"pregunta5\":\"a) La escritura plasma los mejores momentos de los viajes.\"}","question_order":"[0]","trial_type":"survey-multi-choice","trial_index":23,"time_elapsed":3941927,"internal_node_id":"0.0-5.0-18.0"},{"rt":3274.5,"response":{"pregunta5 likert":1},"question_order":[0],"trial_type":"survey-likert","trial_index":24,"time_elapsed":3945207,"internal_node_id":"0.0-5.0-19.0"},{"rt":67914.40000000596,"responses":"{\"pregunta1\":\"b) Aportan informaciones con las que se reconstruye el personaje dentro de un relato.\"}","question_order":"[0]","trial_type":"survey-multi-choice","trial_index":25,"time_elapsed":4013129,"internal_node_id":"0.0-5.0-20.0"},{"rt":2027.300000011921,"response":{"pregunta1 likert":2},"question_order":[0],"trial_type":"survey-likert","trial_index":26,"time_elapsed":4015162,"internal_node_id":"0.0-5.0-21.0"},{"rt":112537.59999999404,"responses":"{\"pregunta21\":\"a) Nuestra economía vivirá un proceso de ajuste a la nueva realidad.\"}","question_order":"[0]","trial_type":"survey-multi-choice","trial_index":27,"time_elapsed":4127704,"internal_node_id":"0.0-5.0-22.0"},{"rt":1689.5999999940395,"response":{"pregunta21 likert":1},"question_order":[0],"trial_type":"survey-likert","trial_index":28,"time_elapsed":4129400,"internal_node_id":"0.0-5.0-23.0"},{"rt":130895.90000000596,"responses":"{\"pregunta13\":\"a) A la conveniencia de no postergar el descanso personal.\"}","question_order":"[0]","trial_type":"survey-multi-choice","trial_index":29,"time_elapsed":4260303,"internal_node_id":"0.0-5.0-24.0"},{"rt":1915.800000011921,"response":{"pregunta13 likert":2},"question_order":[0],"trial_type":"survey-likert","trial_index":30,"time_elapsed":4262225,"internal_node_id":"0.0-5.0-25.0"},{"rt":60664.40000000596,"responses":"{\"pregunta15\":\"c) el uranio es el elemento natural con el mayor número de protones en el núcleo.\"}","question_order":"[0]","trial_type":"survey-multi-choice","trial_index":31,"time_elapsed":4322896,"internal_node_id":"0.0-5.0-26.0"},{"rt":1722.800000011921,"response":{"pregunta15 likert":2},"question_order":[0],"trial_type":"survey-likert","trial_index":32,"time_elapsed":4324624,"internal_node_id":"0.0-5.0-27.0"},{"rt":58914.59999999404,"responses":"{\"pregunta8\":\"a) El ser humano se comporta de acuerdo con las circunstancias.\"}","question_order":"[0]","trial_type":"survey-multi-choice","trial_index":33,"time_elapsed":4383543,"internal_node_id":"0.0-5.0-28.0"},{"rt":1883.4000000059605,"response":{"pregunta8 likert":2},"question_order":[0],"trial_type":"survey-likert","trial_index":34,"time_elapsed":4385433,"internal_node_id":"0.0-5.0-29.0"},{"rt":65841.40000000596,"responses":"{\"pregunta14\":\"c) el mejor emperador es el que está muerto.\"}","question_order":"[0]","trial_type":"survey-multi-choice","trial_index":35,"time_elapsed":4451278,"internal_node_id":"0.0-5.0-30.0"},{"rt":2684.300000011921,"response":{"pregunta14 likert":2},"question_order":[0],"trial_type":"survey-likert","trial_index":36,"time_elapsed":4453968,"internal_node_id":"0.0-5.0-31.0"},{"rt":71741.90000000596,"responses":"{\"pregunta16\":\"c) Bomberos debería tener acceso a un seguro médico, al que pueda recurrir en caso de accidente.\"}","question_order":"[0]","trial_type":"survey-multi-choice","trial_index":37,"time_elapsed":4525721,"internal_node_id":"0.0-5.0-32.0"},{"rt":2170.4000000059605,"response":{"pregunta16 likert":2},"question_order":[0],"trial_type":"survey-likert","trial_index":38,"time_elapsed":4527897,"internal_node_id":"0.0-5.0-33.0"},{"rt":74266.09999999404,"responses":"{\"pregunta7\":\"d) se da como existente, y sólo se discute su relación con el cuerpo.\"}","question_order":"[0]","trial_type":"survey-multi-choice","trial_index":39,"time_elapsed":4602165,"internal_node_id":"0.0-5.0-34.0"},{"rt":2018.2000000178814,"response":{"pregunta7 likert":2},"question_order":[0],"trial_type":"survey-likert","trial_index":40,"time_elapsed":4604190,"internal_node_id":"0.0-5.0-35.0"},{"rt":58162.70000001788,"responses":"{\"pregunta22\":\"a) Se necesita un marco legal para delimitar lo público y lo privado en materia informativa.\"}","question_order":"[0]","trial_type":"survey-multi-choice","trial_index":41,"time_elapsed":4662360,"internal_node_id":"0.0-5.0-36.0"},{"rt":1806.5,"response":{"pregunta22 likert":2},"question_order":[0],"trial_type":"survey-likert","trial_index":42,"time_elapsed":4664175,"internal_node_id":"0.0-5.0-37.0"},{"rt":70433.39999997616,"responses":"{\"pregunta17\":\"d) A la influencia de grupos que rechazaban su música.\"}","question_order":"[0]","trial_type":"survey-multi-choice","trial_index":43,"time_elapsed":4734612,"internal_node_id":"0.0-5.0-38.0"},{"rt":1939.7000000178814,"response":{"pregunta17 likert":3},"question_order":[0],"trial_type":"survey-likert","trial_index":44,"time_elapsed":4736557,"internal_node_id":"0.0-5.0-39.0"},{"rt":86776.89999997616,"responses":"{\"pregunta6\":\"d) Promover la asistencia a un evento específico de decoración a través de una atractiva descripción.\"}","question_order":"[0]","trial_type":"survey-multi-choice","trial_index":45,"time_elapsed":4823342,"internal_node_id":"0.0-5.0-40.0"},{"rt":1746.5999999940395,"response":{"pregunta6 likert":3},"question_order":[0],"trial_type":"survey-likert","trial_index":46,"time_elapsed":4825094,"internal_node_id":"0.0-5.0-41.0"},{"rt":79569.40000000596,"responses":"{\"pregunta2\":\"c) A la relación entre pensamiento y estructura social.\"}","question_order":"[0]","trial_type":"survey-multi-choice","trial_index":47,"time_elapsed":4904670,"internal_node_id":"0.0-5.0-42.0"},{"rt":2795.199999988079,"response":{"pregunta2 likert":2},"question_order":[0],"trial_type":"survey-likert","trial_index":48,"time_elapsed":4907472,"internal_node_id":"0.0-5.0-43.0"},{"rt":91296.40000000596,"responses":"{\"pregunta12\":\"b) Homenajear a quienes murieron.\"}","question_order":"[0]","trial_type":"survey-multi-choice","trial_index":49,"time_elapsed":4998777,"internal_node_id":"0.0-5.0-44.0"},{"rt":1937.699999988079,"response":{"pregunta12 likert":2},"question_order":[0],"trial_type":"survey-likert","trial_index":50,"time_elapsed":5000721,"internal_node_id":"0.0-5.0-45.0"},{"rt":113305.59999999404,"responses":"{\"pregunta23\":\"b) el jardinero estará muerto al día siguiente.\"}","question_order":"[0]","trial_type":"survey-multi-choice","trial_index":51,"time_elapsed":5114030,"internal_node_id":"0.0-5.0-46.0"},{"rt":1834.0999999940395,"response":{"pregunta23 likert":3},"question_order":[0],"trial_type":"survey-likert","trial_index":52,"time_elapsed":5115871,"internal_node_id":"0.0-5.0-47.0"},{"rt":3389.800000011921,"stimulus":"<p style=\"font-size: 120%\">Gracias por completar esta etapa del estudio. Ahora te invitamos a responder el cuestionario.<br><br></p>","response":0,"trial_type":"html-button-response","trial_index":53,"time_elapsed":5119271,"internal_node_id":"0.0-6.0"},{"rt":79644.80000001192,"stimulus":"<h1 style=\"margin-top: 5%\">Cuestionario para la Evaluación de Metas Académicas</h1><p style=\"font-size: 120%; margin-left: 3%; margin-top: 5%\">Este es un cuestionario que permite conocer cuáles son los principales motivos por los que los estudiantes se esfuerzan en su trabajo académico. A continuación, se te presentarán una serie de afirmaciones acerca de los motivos que puedes tener para estudiar.<br>Te pedimos que contestes a dichas afirmaciones reflexionando sobre el contenido de cada una de ellas, que, aunque te parezcan semejantes, en realidad, no lo son.<br>NO HAY RESPUESTAS CORRECTAS o INCORRECTAS, sólo queremos que respondas con la mayor precisión y sinceridad posible a las preguntas que se plantean.","response":0,"trial_type":"html-button-response","trial_index":54,"time_elapsed":5198916,"internal_node_id":"0.0-7.0"},{"rt":136253.80000001192,"response":{"Metas cuestionario pregunta1":2,"Metas cuestionario pregunta2":3,"Metas cuestionario pregunta3":3,"Metas cuestionario pregunta4":2,"Metas cuestionario pregunta5":3,"Metas cuestionario pregunta6":3,"Metas cuestionario pregunta7":4,"Metas cuestionario pregunta8":4,"Metas cuestionario pregunta9":2,"Metas cuestionario pregunta10":2,"Metas cuestionario pregunta11":2,"Metas cuestionario pregunta12":1,"Metas cuestionario pregunta13":2,"Metas cuestionario pregunta14":3,"Metas cuestionario pregunta15":4,"Metas cuestionario pregunta16":4,"Metas cuestionario pregunta17":4,"Metas cuestionario pregunta18":4,"Metas cuestionario pregunta19":4,"Metas cuestionario pregunta20":4},"question_order":[0,1,2,3,4,5,6,7,8,9,10,11,12,13,14,15,16,17,18,19],"trial_type":"survey-likert","trial_index":55,"time_elapsed":5335182,"internal_node_id":"0.0-8.0"}]