[{"rt":7523.200000047684,"stimulus":"<h1 style=\"color:red; margin-top: 3%;\">¡Bienvenido(a)!</h1><p style=\"text-align:left; justify-content:space-between; margin-right: 5%; margin-left: 5%; margin-top: 5%\"> Antes de empezar el estudio, necesitamos que nos confirmes que estás de acuerdo con participar. Recuerda que tu participación es 100% voluntaria y que lo único que te pedimos es responder lo mejor que puedas. Recuerda también que el estudio incluye:</p><ol style=\"text-align:left; justify-content:space-between; margin-right: 5%; margin-left: 5%;\"><li> un ejercicio de resolución de preguntas de selección múltiple (30’),</li><li>un cuestionario breve (5’),</li><li>un juego muy breve (3’),</li></ol><p style=\"text-align:left; justify-content:space-between; margin-right: 5%; margin-left: 5%;\">Si quieres participar, haz clic en “Acepto” luego de leer lo siguiente:<br></p><p style=\"text-align:left; justify-content:space-between; margin-right: 5%; margin-left: 5%;\">Acepto participar en el estudio “Estrategias de lectura y resolución de preguntas de selección múltiple”, en los términos aquí señalados:<br></p><p style=\"text-align:left; justify-content:space-between; margin-right: 5%; margin-left: 5%;\"><a href=\"http://ciae.uchile.cl/download.php?file=noticias/Asentimiento.pdf\" target=\"_blank\">Link a la hoja de información del Consentimiento.</a></p><p style=\"text-align:left; justify-content:space-between; margin-right: 5%; margin-left: 5%;\">Declaro que he leído (o se me ha leído) y (he) comprendido, las condiciones de mi participación en este estudio. He tenido la oportunidad de hacer preguntas y éstas han sido respondidas. No tengo dudas al respecto.</p>","response":0,"condicion_MCQ":5,"condicion_JUEGO":5,"condicion_INTER":5,"numero_participante":53,"numero_version":1,"dimx":1536,"dimy":864,"color_profundidad":24,"pixel_profundidad":24,"Browser":"Google Chrome","dia":6,"mes":5,"hora":16,"minuto":40,"segundo":21,"trial_type":"html-button-response","trial_index":0,"time_elapsed":7528,"internal_node_id":"0.0-0.0"},{"success":true,"trial_type":"fullscreen","trial_index":1,"time_elapsed":16511,"internal_node_id":"0.0-1.0"},{"rt":233306.79999995232,"responses":"{\"Nombres\":\"Valentina Antonia\",\"Apellidos\":\"Mora Retamal\",\"Edad\":\"19\",\"Sexo\":\"mujer\",\"Curso\":\"sección 204\",\"Colegio\":\"Universidad Andrés bello\",\"Contacto\":\"antomora12346@gmail.com\"}","trial_type":"survey-text","trial_index":2,"time_elapsed":249830,"internal_node_id":"0.0-2.0"},{"success":true,"timeout":false,"failed_images":[],"failed_audio":[],"failed_video":[],"trial_type":"preload","trial_index":3,"time_elapsed":251787,"internal_node_id":"0.0-3.0"},{"rt":16571.5,"stimulus":"<h1 style:\"margin-top: 5%;\">Ejercicios de Comprensión de Lectura de la Universidad de Chile</h1><p style=\"font-size: 120%;\">En esta actividad, debes responder 24 preguntas de selección múltiple. Cada pregunta presenta 4 respuestas alternativas, pero sólo una de ellas es correcta. Por lo tanto, debes escoger una sola alternativa para cada pregunta. Además, debes reportar qué tan seguro(a) estás de la respuesta que das, con un:</p><ol style=\"font-size: 120%;text-align:left;margin-left: 40%;\"><li>No estoy seguro(a) para nada</li><li>No estoy muy seguro(a)</li><li>Estoy bastante seguro(a)</li><li>Estoy totalmente seguro(a)</li></ol><p style=\"font-size: 120%;\">Por favor lee bien los enunciados antes de responder. ¡Éxito!</p>","response":0,"trial_type":"html-button-response","trial_index":4,"time_elapsed":268360,"internal_node_id":"0.0-4.0"},{"rt":57420.10000014305,"responses":"{\"pregunta21\":\"a) Nuestra economía vivirá un proceso de ajuste a la nueva realidad.\"}","question_order":"[0]","trial_type":"survey-multi-choice","trial_index":5,"time_elapsed":325784,"internal_node_id":"0.0-5.0-0.0"},{"rt":4171.200000047684,"response":{"pregunta21 likert":2},"question_order":[0],"trial_type":"survey-likert","trial_index":6,"time_elapsed":329959,"internal_node_id":"0.0-5.0-1.0"},{"rt":51867,"responses":"{\"pregunta23\":\"a) el jardinero estará muerto al día siguiente.\"}","question_order":"[0]","trial_type":"survey-multi-choice","trial_index":7,"time_elapsed":381829,"internal_node_id":"0.0-5.0-2.0"},{"rt":2948.699999809265,"response":{"pregunta23 likert":3},"question_order":[0],"trial_type":"survey-likert","trial_index":8,"time_elapsed":384784,"internal_node_id":"0.0-5.0-3.0"},{"rt":106157.30000019073,"responses":"{\"pregunta18\":\"b) La publicidad ejerce una influencia positiva sobre la sociedad.\"}","question_order":"[0]","trial_type":"survey-multi-choice","trial_index":9,"time_elapsed":490945,"internal_node_id":"0.0-5.0-4.0"},{"rt":1842.5999999046326,"response":{"pregunta18 likert":1},"question_order":[0],"trial_type":"survey-likert","trial_index":10,"time_elapsed":492792,"internal_node_id":"0.0-5.0-5.0"},{"rt":42762.300000190735,"responses":"{\"pregunta16\":\"c) Bomberos debería tener acceso a un seguro médico, al que pueda recurrir en caso de accidente.\"}","question_order":"[0]","trial_type":"survey-multi-choice","trial_index":11,"time_elapsed":535558,"internal_node_id":"0.0-5.0-6.0"},{"rt":2860.5,"response":{"pregunta16 likert":3},"question_order":[0],"trial_type":"survey-likert","trial_index":12,"time_elapsed":538421,"internal_node_id":"0.0-5.0-7.0"},{"rt":110418.39999985695,"responses":"{\"pregunta6\":\"a) Presentar positivamente las diversas tendencias del diseño de interiores a través de un comentario.\"}","question_order":"[0]","trial_type":"survey-multi-choice","trial_index":13,"time_elapsed":648843,"internal_node_id":"0.0-5.0-8.0"},{"rt":3274.7999999523163,"response":{"pregunta6 likert":1},"question_order":[0],"trial_type":"survey-likert","trial_index":14,"time_elapsed":652122,"internal_node_id":"0.0-5.0-9.0"},{"rt":66429.39999985695,"responses":"{\"pregunta4\":\"c) En la literatura como en la vida, lo importante son las preguntas.\"}","question_order":"[0]","trial_type":"survey-multi-choice","trial_index":15,"time_elapsed":718555,"internal_node_id":"0.0-5.0-10.0"},{"rt":3393.899999856949,"response":{"pregunta4 likert":3},"question_order":[0],"trial_type":"survey-likert","trial_index":16,"time_elapsed":721953,"internal_node_id":"0.0-5.0-11.0"},{"rt":42073.90000009537,"responses":"{\"pregunta1\":\"b) Aportan informaciones con las que se reconstruye el personaje dentro de un relato.\"}","question_order":"[0]","trial_type":"survey-multi-choice","trial_index":17,"time_elapsed":764030,"internal_node_id":"0.0-5.0-12.0"},{"rt":2149.5999999046326,"response":{"pregunta1 likert":3},"question_order":[0],"trial_type":"survey-likert","trial_index":18,"time_elapsed":766184,"internal_node_id":"0.0-5.0-13.0"},{"rt":77453.89999985695,"responses":"{\"pregunta19\":\"d) sufren dolores de espalda.\"}","question_order":"[0]","trial_type":"survey-multi-choice","trial_index":19,"time_elapsed":843642,"internal_node_id":"0.0-5.0-14.0"},{"rt":3268.7000000476837,"response":{"pregunta19 likert":2},"question_order":[0],"trial_type":"survey-likert","trial_index":20,"time_elapsed":846916,"internal_node_id":"0.0-5.0-15.0"},{"rt":98704.79999995232,"responses":"{\"pregunta9\":\"a) preparar los recuerdos del mañana.\"}","question_order":"[0]","trial_type":"survey-multi-choice","trial_index":21,"time_elapsed":945625,"internal_node_id":"0.0-5.0-16.0"},{"rt":1405.2999999523163,"response":{"pregunta9 likert":3},"question_order":[0],"trial_type":"survey-likert","trial_index":22,"time_elapsed":947035,"internal_node_id":"0.0-5.0-17.0"},{"rt":71394.29999995232,"responses":"{\"pregunta11\":\"a) Provocar el deseo de la adquisición vertiginosa.\"}","question_order":"[0]","trial_type":"survey-multi-choice","trial_index":23,"time_elapsed":1018432,"internal_node_id":"0.0-5.0-18.0"},{"rt":3468.7000000476837,"response":{"pregunta11 likert":2},"question_order":[0],"trial_type":"survey-likert","trial_index":24,"time_elapsed":1021904,"internal_node_id":"0.0-5.0-19.0"},{"rt":55466.59999990463,"responses":"{\"pregunta15\":\"a) la creación de elementos químicos artificiales ha resultado de la manipulación del uranio.\"}","question_order":"[0]","trial_type":"survey-multi-choice","trial_index":25,"time_elapsed":1077374,"internal_node_id":"0.0-5.0-20.0"},{"rt":1877.5999999046326,"response":{"pregunta15 likert":3},"question_order":[0],"trial_type":"survey-likert","trial_index":26,"time_elapsed":1079256,"internal_node_id":"0.0-5.0-21.0"},{"rt":29798.099999904633,"responses":"{\"pregunta22\":\"a) Se necesita un marco legal para delimitar lo público y lo privado en materia informativa.\"}","question_order":"[0]","trial_type":"survey-multi-choice","trial_index":27,"time_elapsed":1109058,"internal_node_id":"0.0-5.0-22.0"},{"rt":2269.0999999046326,"response":{"pregunta22 likert":3},"question_order":[0],"trial_type":"survey-likert","trial_index":28,"time_elapsed":1111330,"internal_node_id":"0.0-5.0-23.0"},{"rt":64504.59999990463,"responses":"{\"pregunta14\":\"b) el mejor emperador es el que está muerto.\"}","question_order":"[0]","trial_type":"survey-multi-choice","trial_index":29,"time_elapsed":1175839,"internal_node_id":"0.0-5.0-24.0"},{"rt":2499.0999999046326,"response":{"pregunta14 likert":3},"question_order":[0],"trial_type":"survey-likert","trial_index":30,"time_elapsed":1178342,"internal_node_id":"0.0-5.0-25.0"},{"rt":44531.300000190735,"responses":"{\"pregunta17\":\"d) A la inexistencia de un recinto adecuado para el recital.\"}","question_order":"[0]","trial_type":"survey-multi-choice","trial_index":31,"time_elapsed":1222877,"internal_node_id":"0.0-5.0-26.0"},{"rt":1794.8000001907349,"response":{"pregunta17 likert":3},"question_order":[0],"trial_type":"survey-likert","trial_index":32,"time_elapsed":1224675,"internal_node_id":"0.0-5.0-27.0"},{"rt":24720.5,"responses":"{\"pregunta24\":\"a) la muerte es distinta en las grandes ciudades.\"}","question_order":"[0]","trial_type":"survey-multi-choice","trial_index":33,"time_elapsed":1249399,"internal_node_id":"0.0-5.0-28.0"},{"rt":2260.399999856949,"response":{"pregunta24 likert":3},"question_order":[0],"trial_type":"survey-likert","trial_index":34,"time_elapsed":1251663,"internal_node_id":"0.0-5.0-29.0"},{"rt":40133.09999990463,"responses":"{\"pregunta3\":\"c) El inicio de la civilización china.\"}","question_order":"[0]","trial_type":"survey-multi-choice","trial_index":35,"time_elapsed":1291802,"internal_node_id":"0.0-5.0-30.0"},{"rt":3070.100000143051,"response":{"pregunta3 likert":3},"question_order":[0],"trial_type":"survey-likert","trial_index":36,"time_elapsed":1294875,"internal_node_id":"0.0-5.0-31.0"},{"rt":100255.29999995232,"responses":"{\"pregunta20\":\"a) las personas excesivas son más felices.\"}","question_order":"[0]","trial_type":"survey-multi-choice","trial_index":37,"time_elapsed":1395133,"internal_node_id":"0.0-5.0-32.0"},{"rt":3257.899999856949,"response":{"pregunta20 likert":2},"question_order":[0],"trial_type":"survey-likert","trial_index":38,"time_elapsed":1398395,"internal_node_id":"0.0-5.0-33.0"},{"rt":61209.09999990463,"responses":"{\"pregunta12\":\"b) Homenajear a quienes murieron.\"}","question_order":"[0]","trial_type":"survey-multi-choice","trial_index":39,"time_elapsed":1459610,"internal_node_id":"0.0-5.0-34.0"},{"rt":1581.5999999046326,"response":{"pregunta12 likert":3},"question_order":[0],"trial_type":"survey-likert","trial_index":40,"time_elapsed":1461195,"internal_node_id":"0.0-5.0-35.0"},{"rt":48817.299999952316,"responses":"{\"pregunta5\":\"c) Los momentos triviales de los viajes, en la escritura se vuelven significativos.\"}","question_order":"[0]","trial_type":"survey-multi-choice","trial_index":41,"time_elapsed":1510017,"internal_node_id":"0.0-5.0-36.0"},{"rt":3611.800000190735,"response":{"pregunta5 likert":2},"question_order":[0],"trial_type":"survey-likert","trial_index":42,"time_elapsed":1513633,"internal_node_id":"0.0-5.0-37.0"},{"rt":57009.09999990463,"responses":"{\"pregunta13\":\"a) A la conveniencia de no postergar el descanso personal.\"}","question_order":"[0]","trial_type":"survey-multi-choice","trial_index":43,"time_elapsed":1570645,"internal_node_id":"0.0-5.0-38.0"},{"rt":2067.399999856949,"response":{"pregunta13 likert":3},"question_order":[0],"trial_type":"survey-likert","trial_index":44,"time_elapsed":1572718,"internal_node_id":"0.0-5.0-39.0"},{"rt":84535.10000014305,"responses":"{\"pregunta10\":\"a) ritualistas y obsesivos.\"}","question_order":"[0]","trial_type":"survey-multi-choice","trial_index":45,"time_elapsed":1657257,"internal_node_id":"0.0-5.0-40.0"},{"rt":1668.7999999523163,"response":{"pregunta10 likert":2},"question_order":[0],"trial_type":"survey-likert","trial_index":46,"time_elapsed":1658929,"internal_node_id":"0.0-5.0-41.0"},{"rt":69131.80000019073,"responses":"{\"pregunta8\":\"a) Un asilo y un campo de concentración son instituciones similares.\"}","question_order":"[0]","trial_type":"survey-multi-choice","trial_index":47,"time_elapsed":1728065,"internal_node_id":"0.0-5.0-42.0"},{"rt":1436.5,"response":{"pregunta8 likert":1},"question_order":[0],"trial_type":"survey-likert","trial_index":48,"time_elapsed":1729504,"internal_node_id":"0.0-5.0-43.0"},{"rt":50678,"responses":"{\"pregunta7\":\"d) se da como existente, y sólo se discute su relación con el cuerpo.\"}","question_order":"[0]","trial_type":"survey-multi-choice","trial_index":49,"time_elapsed":1780187,"internal_node_id":"0.0-5.0-44.0"},{"rt":2444.300000190735,"response":{"pregunta7 likert":3},"question_order":[0],"trial_type":"survey-likert","trial_index":50,"time_elapsed":1782634,"internal_node_id":"0.0-5.0-45.0"},{"rt":47865.60000014305,"responses":"{\"pregunta2\":\"a) A la relación entre civilización y sociedad.\"}","question_order":"[0]","trial_type":"survey-multi-choice","trial_index":51,"time_elapsed":1830504,"internal_node_id":"0.0-5.0-46.0"},{"rt":1426.1000001430511,"response":{"pregunta2 likert":2},"question_order":[0],"trial_type":"survey-likert","trial_index":52,"time_elapsed":1831934,"internal_node_id":"0.0-5.0-47.0"},{"rt":2718.2000000476837,"stimulus":"<p style=\"font-size: 120%\">Gracias por completar esta etapa del estudio. Ahora te invitamos a responder el cuestionario.<br><br></p>","response":0,"trial_type":"html-button-response","trial_index":53,"time_elapsed":1834661,"internal_node_id":"0.0-6.0"},{"rt":19997,"stimulus":"<h1 style=\"margin-top: 5%\">Cuestionario para la Evaluación de Metas Académicas</h1><p style=\"font-size: 120%; margin-left: 3%; margin-top: 5%\">Este es un cuestionario que permite conocer cuáles son los principales motivos por los que los estudiantes se esfuerzan en su trabajo académico. A continuación, se te presentarán una serie de afirmaciones acerca de los motivos que puedes tener para estudiar.<br>Te pedimos que contestes a dichas afirmaciones reflexionando sobre el contenido de cada una de ellas, que, aunque te parezcan semejantes, en realidad, no lo son.<br>NO HAY RESPUESTAS CORRECTAS o INCORRECTAS, sólo queremos que respondas con la mayor precisión y sinceridad posible a las preguntas que se plantean.","response":0,"trial_type":"html-button-response","trial_index":54,"time_elapsed":1854663,"internal_node_id":"0.0-7.0"},{"rt":90356.89999985695,"response":{"Metas cuestionario pregunta1":3,"Metas cuestionario pregunta2":4,"Metas cuestionario pregunta3":4,"Metas cuestionario pregunta4":2,"Metas cuestionario pregunta5":4,"Metas cuestionario pregunta6":2,"Metas cuestionario pregunta7":4,"Metas cuestionario pregunta8":4,"Metas cuestionario pregunta9":4,"Metas cuestionario pregunta10":4,"Metas cuestionario pregunta11":3,"Metas cuestionario pregunta12":3,"Metas cuestionario pregunta13":4,"Metas cuestionario pregunta14":2,"Metas cuestionario pregunta15":4,"Metas cuestionario pregunta16":4,"Metas cuestionario pregunta17":4,"Metas cuestionario pregunta18":4,"Metas cuestionario pregunta19":4,"Metas cuestionario pregunta20":4},"question_order":[0,1,2,3,4,5,6,7,8,9,10,11,12,13,14,15,16,17,18,19],"trial_type":"survey-likert","trial_index":55,"time_elapsed":1945031,"internal_node_id":"0.0-8.0"},{"rt":2866.7000000476837,"stimulus":"<p style=\"font-size: 120%\">Gracias por responder el cuestionario. Ahora te invitamos a seguir con el juego, que es muy breve.<br><br></p>","response":0,"trial_type":"html-button-response","trial_index":56,"time_elapsed":1947906,"internal_node_id":"0.0-9.0"},{"rt":7324.700000047684,"stimulus":"<h1>Juego</h1><p style=\"font-size: 120%;\">A continuación se te presentarán 16 pequeñas historias.<br>Por favor lee el texto presentado en cada una de ellas y luego haz click en el objeto de tu elección.<br>Si estás listo(a),<span style=\"color:red;\"> haz click en \"comenzar\"</span>.</p>","response":0,"trial_type":"html-button-response","trial_index":57,"time_elapsed":1955234,"internal_node_id":"0.0-10.0"},{"rt":10927.900000095367,"grid":[[1,1,1,1]],"target":[0,0],"response":[0,3],"correct":false,"juego":3,"trial_type":"serial-reaction-time-mouse","trial_index":58,"time_elapsed":1966167,"internal_node_id":"0.0-11.0-0.0"},{"rt":11404,"grid":[[1,1,1,1]],"target":[0,0],"response":[0,1],"correct":false,"juego":11,"trial_type":"serial-reaction-time-mouse","trial_index":59,"time_elapsed":1977573,"internal_node_id":"0.0-11.0-1.0"},{"rt":7109.400000095367,"grid":[[1,1,1,1]],"target":[0,0],"response":[0,2],"correct":false,"juego":2,"trial_type":"serial-reaction-time-mouse","trial_index":60,"time_elapsed":1984685,"internal_node_id":"0.0-11.0-2.0"},{"rt":8062.699999809265,"grid":[[1,1,1],[1,1,1],[1,1,1],[1,1,1],[1,1,1],[1,1,1],[1,1,1],[1,1,1],[1,1,1]],"target":[0,0],"response":[7,1],"correct":false,"juego":13,"trial_type":"serial-reaction-time-mouse","trial_index":61,"time_elapsed":1992751,"internal_node_id":"0.0-11.0-3.0"},{"rt":10735,"grid":[[1,1,1,1]],"target":[0,0],"response":[0,0],"correct":true,"juego":12,"trial_type":"serial-reaction-time-mouse","trial_index":62,"time_elapsed":2003489,"internal_node_id":"0.0-11.0-4.0"},{"rt":12838.099999904633,"grid":[[1,1,1],[1,1,1],[1,1,1],[1,1,1],[1,1,1],[1,1,1],[1,1,1],[1,1,1],[1,1,1]],"target":[0,0],"response":[7,2],"correct":false,"juego":10,"trial_type":"serial-reaction-time-mouse","trial_index":63,"time_elapsed":2016331,"internal_node_id":"0.0-11.0-5.0"},{"rt":20637.300000190735,"grid":[[1,1,1,1],[1,1,1,1],[1,1,1,1],[1,1,1,1],[1,1,1,1],[1,1,1,1],[1,1,1,1],[1,1,1,1],[1,1,1,1]],"target":[0,0],"response":[5,2],"correct":false,"juego":15,"trial_type":"serial-reaction-time-mouse","trial_index":64,"time_elapsed":2036972,"internal_node_id":"0.0-11.0-6.0"},{"rt":14716.899999856949,"grid":[[1,1,1],[1,1,1],[1,1,1],[1,1,1],[1,1,1],[1,1,1],[1,1,1],[1,1,1],[1,1,1]],"target":[0,0],"response":[1,1],"correct":false,"juego":5,"trial_type":"serial-reaction-time-mouse","trial_index":65,"time_elapsed":2051693,"internal_node_id":"0.0-11.0-7.0"},{"rt":6766.399999856949,"grid":[[1,1,1,1]],"target":[0,0],"response":[0,1],"correct":false,"juego":1,"trial_type":"serial-reaction-time-mouse","trial_index":66,"time_elapsed":2058461,"internal_node_id":"0.0-11.0-8.0"},{"rt":6551.200000047684,"grid":[[1,1,1],[1,1,1],[1,1,1],[1,1,1],[1,1,1],[1,1,1],[1,1,1],[1,1,1],[1,1,1]],"target":[0,0],"response":[5,1],"correct":false,"juego":6,"trial_type":"serial-reaction-time-mouse","trial_index":67,"time_elapsed":2065015,"internal_node_id":"0.0-11.0-9.0"},{"rt":21046.39999985695,"grid":[[1,1,1,1]],"target":[0,0],"response":[0,2],"correct":false,"juego":7,"trial_type":"serial-reaction-time-mouse","trial_index":68,"time_elapsed":2086065,"internal_node_id":"0.0-11.0-10.0"},{"rt":14677.400000095367,"grid":[[1,1,1,1]],"target":[0,0],"response":[0,3],"correct":false,"juego":8,"trial_type":"serial-reaction-time-mouse","trial_index":69,"time_elapsed":2100745,"internal_node_id":"0.0-11.0-11.0"},{"rt":8107.699999809265,"grid":[[1,1,1,1],[1,1,1,1],[1,1,1,1],[1,1,1,1],[1,1,1,1],[1,1,1,1],[1,1,1,1],[1,1,1,1],[1,1,1,1]],"target":[0,0],"response":[1,2],"correct":false,"juego":14,"trial_type":"serial-reaction-time-mouse","trial_index":70,"time_elapsed":2108859,"internal_node_id":"0.0-11.0-12.0"},{"rt":6031,"grid":[[1],[1],[1],[1]],"target":[0,0],"response":[0,0],"correct":true,"juego":4,"trial_type":"serial-reaction-time-mouse","trial_index":71,"time_elapsed":2114892,"internal_node_id":"0.0-11.0-13.0"},{"rt":8612.900000095367,"grid":[[1,1,1,1]],"target":[0,0],"response":[0,2],"correct":false,"juego":9,"trial_type":"serial-reaction-time-mouse","trial_index":72,"time_elapsed":2123508,"internal_node_id":"0.0-11.0-14.0"},{"rt":3810.2999999523163,"stimulus":"<h1>Último juego</h1><p style=\"font-size: 130%;\">Tienes <span style=\"color:red\">25</span> segundos para recordar los pares de palabras que aparecerán a continuación. <br></p>","response":0,"trial_type":"html-button-response","trial_index":73,"time_elapsed":2127323,"internal_node_id":"0.0-12.0"},{"animation_sequence":[{"stimulus":"imagen_juego_interferencia.jpg","time":503.5},{"stimulus":"imagen_juego_interferencia.jpg","time":1011.8999998569489},{"stimulus":"imagen_juego_interferencia.jpg","time":1502.2999999523163},{"stimulus":"imagen_juego_interferencia.jpg","time":2002.2999999523163},{"stimulus":"imagen_juego_interferencia.jpg","time":2502.2999999523163},{"stimulus":"imagen_juego_interferencia.jpg","time":3002.2000000476837},{"stimulus":"imagen_juego_interferencia.jpg","time":3510.7000000476837},{"stimulus":"imagen_juego_interferencia.jpg","time":4002.0999999046326},{"stimulus":"imagen_juego_interferencia.jpg","time":4502.299999952316},{"stimulus":"imagen_juego_interferencia.jpg","time":5002.299999952316},{"stimulus":"imagen_juego_interferencia.jpg","time":5502.299999952316},{"stimulus":"imagen_juego_interferencia.jpg","time":6002.299999952316},{"stimulus":"imagen_juego_interferencia.jpg","time":6502.299999952316},{"stimulus":"imagen_juego_interferencia.jpg","time":7001.700000047684},{"stimulus":"imagen_juego_interferencia.jpg","time":7502.099999904633},{"stimulus":"imagen_juego_interferencia.jpg","time":8002.200000047684},{"stimulus":"imagen_juego_interferencia.jpg","time":8502.200000047684},{"stimulus":"imagen_juego_interferencia.jpg","time":9002.299999952316},{"stimulus":"imagen_juego_interferencia.jpg","time":9502},{"stimulus":"imagen_juego_interferencia.jpg","time":10001},{"stimulus":"imagen_juego_interferencia.jpg","time":10502.200000047684},{"stimulus":"imagen_juego_interferencia.jpg","time":11002.299999952316},{"stimulus":"imagen_juego_interferencia.jpg","time":11518.700000047684},{"stimulus":"imagen_juego_interferencia.jpg","time":12002.200000047684},{"stimulus":"imagen_juego_interferencia.jpg","time":12502.799999952316},{"stimulus":"imagen_juego_interferencia.jpg","time":13002},{"stimulus":"imagen_juego_interferencia.jpg","time":13501.200000047684},{"stimulus":"imagen_juego_interferencia.jpg","time":14001.899999856949},{"stimulus":"imagen_juego_interferencia.jpg","time":14503.799999952316},{"stimulus":"imagen_juego_interferencia.jpg","time":15003},{"stimulus":"imagen_juego_interferencia.jpg","time":15502.799999952316},{"stimulus":"imagen_juego_interferencia.jpg","time":16001},{"stimulus":"imagen_juego_interferencia.jpg","time":16502.89999985695},{"stimulus":"imagen_juego_interferencia.jpg","time":17002.200000047684},{"stimulus":"imagen_juego_interferencia.jpg","time":17502.200000047684},{"stimulus":"imagen_juego_interferencia.jpg","time":18001.89999985695},{"stimulus":"imagen_juego_interferencia.jpg","time":18503},{"stimulus":"imagen_juego_interferencia.jpg","time":19001.89999985695},{"stimulus":"imagen_juego_interferencia.jpg","time":19501.5},{"stimulus":"imagen_juego_interferencia.jpg","time":20002.799999952316},{"stimulus":"imagen_juego_interferencia.jpg","time":20503},{"stimulus":"imagen_juego_interferencia.jpg","time":21011.89999985695},{"stimulus":"imagen_juego_interferencia.jpg","time":21502.700000047684},{"stimulus":"imagen_juego_interferencia.jpg","time":22005.89999985695},{"stimulus":"imagen_juego_interferencia.jpg","time":22503.89999985695},{"stimulus":"imagen_juego_interferencia.jpg","time":23002.099999904633},{"stimulus":"imagen_juego_interferencia.jpg","time":23512.299999952316},{"stimulus":"imagen_juego_interferencia.jpg","time":24002.200000047684},{"stimulus":"imagen_juego_interferencia.jpg","time":24502.299999952316},{"stimulus":"imagen_juego_interferencia.jpg","time":25002.299999952316}],"response":[],"trial_type":"animation","trial_index":74,"time_elapsed":2152829,"internal_node_id":"0.0-13.0"},{"rt":4001.0999999046326,"responses":"{\"pregunta interferencia4\":\"contador\"}","question_order":"[0]","trial_type":"survey-multi-choice-cuest","trial_index":75,"time_elapsed":2156833,"internal_node_id":"0.0-14.0-0.0"},{"rt":5636.400000095367,"responses":"{\"pregunta interferencia2\":\"saltamontes\"}","question_order":"[0]","trial_type":"survey-multi-choice-cuest","trial_index":76,"time_elapsed":2162472,"internal_node_id":"0.0-14.0-1.0"},{"rt":3662.2999999523163,"responses":"{\"pregunta interferencia3\":\"aluminio\"}","question_order":"[0]","trial_type":"survey-multi-choice-cuest","trial_index":77,"time_elapsed":2166137,"internal_node_id":"0.0-14.0-2.0"},{"rt":3508.7999999523163,"responses":"{\"pregunta interferencia1\":\"naranja\"}","question_order":"[0]","trial_type":"survey-multi-choice-cuest","trial_index":78,"time_elapsed":2169650,"internal_node_id":"0.0-14.0-3.0"},{"success":true,"trial_type":"fullscreen","trial_index":79,"time_elapsed":2170657,"internal_node_id":"0.0-15.0"},{"rt":20622.5,"responses":"{\"Telefono\":\"+56958350599\"}","trial_type":"survey-text","trial_index":80,"time_elapsed":2191307,"internal_node_id":"0.0-16.0"}]