[{"rt":21305308.599999905,"stimulus":"<h1 style=\"color:red; margin-top: 3%;\">¡Bienvenido(a)!</h1><p style=\"text-align:left; justify-content:space-between; margin-right: 5%; margin-left: 5%; margin-top: 5%\"> Antes de empezar el estudio, necesitamos que nos confirmes que estás de acuerdo con participar. Recuerda que tu participación es 100% voluntaria y que lo único que te pedimos es responder lo mejor que puedas. Recuerda también que el estudio incluye:</p><ol style=\"text-align:left; justify-content:space-between; margin-right: 5%; margin-left: 5%;\"><li> un ejercicio de resolución de preguntas de selección múltiple (30’),</li><li>un cuestionario breve (5’),</li><li>un juego muy breve (3’),</li></ol><p style=\"text-align:left; justify-content:space-between; margin-right: 5%; margin-left: 5%;\">Si quieres participar, haz clic en “Acepto” luego de leer lo siguiente:<br></p><p style=\"text-align:left; justify-content:space-between; margin-right: 5%; margin-left: 5%;\">Acepto participar en el estudio “Estrategias de lectura y resolución de preguntas de selección múltiple”, en los términos aquí señalados:<br></p><p style=\"text-align:left; justify-content:space-between; margin-right: 5%; margin-left: 5%;\"><a href=\"http://ciae.uchile.cl/download.php?file=noticias/Asentimiento.pdf\" target=\"_blank\">Link a la hoja de información del Consentimiento.</a></p><p style=\"text-align:left; justify-content:space-between; margin-right: 5%; margin-left: 5%;\">Declaro que he leído (o se me ha leído) y (he) comprendido, las condiciones de mi participación en este estudio. He tenido la oportunidad de hacer preguntas y éstas han sido respondidas. No tengo dudas al respecto.</p>","response":0,"condicion_MCQ":5,"condicion_JUEGO":5,"condicion_INTER":5,"numero_participante":29,"numero_version":1,"dimx":1536,"dimy":864,"color_profundidad":24,"pixel_profundidad":24,"Browser":"Google Chrome","dia":3,"mes":5,"hora":12,"minuto":21,"segundo":24,"trial_type":"html-button-response","trial_index":0,"time_elapsed":21305255,"internal_node_id":"0.0-0.0"},{"success":true,"trial_type":"fullscreen","trial_index":1,"time_elapsed":21322418,"internal_node_id":"0.0-1.0"},{"rt":138832.89999985695,"responses":"{\"Nombres\":\"Carolina Andrea\",\"Apellidos\":\"Pereira Retamales \",\"Edad\":\"18\",\"Sexo\":\"Mujer\",\"Curso\":\"seccion 218\",\"Colegio\":\"Andres Bello \",\"Contacto\":\"carolina.pereira.retamales@gmail.com\"}","trial_type":"survey-text","trial_index":2,"time_elapsed":21461295,"internal_node_id":"0.0-2.0"},{"success":true,"timeout":false,"failed_images":[],"failed_audio":[],"failed_video":[],"trial_type":"preload","trial_index":3,"time_elapsed":21462320,"internal_node_id":"0.0-3.0"},{"rt":54787.10000014305,"stimulus":"<h1 style:\"margin-top: 5%;\">Ejercicios de Comprensión de Lectura de la Universidad de Chile</h1><p style=\"font-size: 120%;\">En esta actividad, debes responder 24 preguntas de selección múltiple. Cada pregunta presenta 4 respuestas alternativas, pero sólo una de ellas es correcta. Por lo tanto, debes escoger una sola alternativa para cada pregunta. Además, debes reportar qué tan seguro(a) estás de la respuesta que das, con un:</p><ol style=\"font-size: 120%;text-align:left;margin-left: 40%;\"><li>No estoy seguro(a) para nada</li><li>No estoy muy seguro(a)</li><li>Estoy bastante seguro(a)</li><li>Estoy totalmente seguro(a)</li></ol><p style=\"font-size: 120%;\">Por favor lee bien los enunciados antes de responder. ¡Éxito!</p>","response":0,"trial_type":"html-button-response","trial_index":4,"time_elapsed":21517110,"internal_node_id":"0.0-4.0"},{"rt":51650,"responses":"{\"pregunta24\":\"a) la muerte es distinta en las grandes ciudades.\"}","question_order":"[0]","trial_type":"survey-multi-choice","trial_index":5,"time_elapsed":21568763,"internal_node_id":"0.0-5.0-0.0"},{"rt":15987.200000047684,"response":{"pregunta24 likert":1},"question_order":[0],"trial_type":"survey-likert","trial_index":6,"time_elapsed":21584753,"internal_node_id":"0.0-5.0-1.0"},{"rt":263569.2999999523,"responses":"{\"pregunta8\":\"b) Lo que es normal en un asilo es anormal en un campo de concentración.\"}","question_order":"[0]","trial_type":"survey-multi-choice","trial_index":7,"time_elapsed":21848324,"internal_node_id":"0.0-5.0-2.0"},{"rt":3360,"response":{"pregunta8 likert":0},"question_order":[0],"trial_type":"survey-likert","trial_index":8,"time_elapsed":21851685,"internal_node_id":"0.0-5.0-3.0"},{"rt":84816.20000004768,"responses":"{\"pregunta2\":\"a) A la relación entre civilización y sociedad.\"}","question_order":"[0]","trial_type":"survey-multi-choice","trial_index":9,"time_elapsed":21936501,"internal_node_id":"0.0-5.0-4.0"},{"rt":2146.2999999523163,"response":{"pregunta2 likert":1},"question_order":[0],"trial_type":"survey-likert","trial_index":10,"time_elapsed":21938648,"internal_node_id":"0.0-5.0-5.0"},{"rt":92050.20000004768,"responses":"{\"pregunta14\":\"c) sólo las leyes bastan para gobernarse.\"}","question_order":"[0]","trial_type":"survey-multi-choice","trial_index":11,"time_elapsed":22030699,"internal_node_id":"0.0-5.0-6.0"},{"rt":2966.600000143051,"response":{"pregunta14 likert":1},"question_order":[0],"trial_type":"survey-likert","trial_index":12,"time_elapsed":22033667,"internal_node_id":"0.0-5.0-7.0"},{"rt":43434.299999952316,"responses":"{\"pregunta16\":\"c) Bomberos debería tener acceso a un seguro médico, al que pueda recurrir en caso de accidente.\"}","question_order":"[0]","trial_type":"survey-multi-choice","trial_index":13,"time_elapsed":22077103,"internal_node_id":"0.0-5.0-8.0"},{"rt":4203.5,"response":{"pregunta16 likert":2},"question_order":[0],"trial_type":"survey-likert","trial_index":14,"time_elapsed":22081308,"internal_node_id":"0.0-5.0-9.0"},{"rt":75369.29999995232,"responses":"{\"pregunta23\":\"b) el jardinero era un hombre viejo.\"}","question_order":"[0]","trial_type":"survey-multi-choice","trial_index":15,"time_elapsed":22156682,"internal_node_id":"0.0-5.0-10.0"},{"rt":2632.7999999523163,"response":{"pregunta23 likert":1},"question_order":[0],"trial_type":"survey-likert","trial_index":16,"time_elapsed":22159316,"internal_node_id":"0.0-5.0-11.0"},{"rt":87697.79999995232,"responses":"{\"pregunta13\":\"b) Al premio merecido después de tantos esfuerzos.\"}","question_order":"[0]","trial_type":"survey-multi-choice","trial_index":17,"time_elapsed":22247015,"internal_node_id":"0.0-5.0-12.0"},{"rt":5066.599999904633,"response":{"pregunta13 likert":0},"question_order":[0],"trial_type":"survey-likert","trial_index":18,"time_elapsed":22252083,"internal_node_id":"0.0-5.0-13.0"},{"rt":301123.10000014305,"responses":"{\"pregunta20\":\"c) el sujeto sufre con su modo de vida.\"}","question_order":"[0]","trial_type":"survey-multi-choice","trial_index":19,"time_elapsed":22553208,"internal_node_id":"0.0-5.0-14.0"},{"rt":2637.5999999046326,"response":{"pregunta20 likert":1},"question_order":[0],"trial_type":"survey-likert","trial_index":20,"time_elapsed":22555848,"internal_node_id":"0.0-5.0-15.0"},{"rt":262645.80000019073,"responses":"{\"pregunta22\":\"a) Se necesita un marco legal para delimitar lo público y lo privado en materia informativa.\"}","question_order":"[0]","trial_type":"survey-multi-choice","trial_index":21,"time_elapsed":22818493,"internal_node_id":"0.0-5.0-16.0"},{"rt":2649,"response":{"pregunta22 likert":1},"question_order":[0],"trial_type":"survey-likert","trial_index":22,"time_elapsed":22821144,"internal_node_id":"0.0-5.0-17.0"},{"rt":122510.5,"responses":"{\"pregunta10\":\"a) ritualistas y obsesivos.\"}","question_order":"[0]","trial_type":"survey-multi-choice","trial_index":23,"time_elapsed":22943657,"internal_node_id":"0.0-5.0-18.0"},{"rt":2203,"response":{"pregunta10 likert":1},"question_order":[0],"trial_type":"survey-likert","trial_index":24,"time_elapsed":22945892,"internal_node_id":"0.0-5.0-19.0"},{"rt":151259.59999990463,"responses":"{\"pregunta21\":\"b) El TLC causará una completa transformación de la economía chilena.\"}","question_order":"[0]","trial_type":"survey-multi-choice","trial_index":25,"time_elapsed":23097156,"internal_node_id":"0.0-5.0-20.0"},{"rt":3743.4000000953674,"response":{"pregunta21 likert":1},"question_order":[0],"trial_type":"survey-likert","trial_index":26,"time_elapsed":23100901,"internal_node_id":"0.0-5.0-21.0"},{"rt":101605.90000009537,"responses":"{\"pregunta19\":\"b) llevan un control grupal de su embarazo.\"}","question_order":"[0]","trial_type":"survey-multi-choice","trial_index":27,"time_elapsed":23202508,"internal_node_id":"0.0-5.0-22.0"},{"rt":2778.7999999523163,"response":{"pregunta19 likert":1},"question_order":[0],"trial_type":"survey-likert","trial_index":28,"time_elapsed":23205288,"internal_node_id":"0.0-5.0-23.0"},{"rt":159495.80000019073,"responses":"{\"pregunta11\":\"c) Poner en escena objetos y servicios.\"}","question_order":"[0]","trial_type":"survey-multi-choice","trial_index":29,"time_elapsed":23364785,"internal_node_id":"0.0-5.0-24.0"},{"rt":4187.399999856949,"response":{"pregunta11 likert":0},"question_order":[0],"trial_type":"survey-likert","trial_index":30,"time_elapsed":23368974,"internal_node_id":"0.0-5.0-25.0"},{"rt":64003,"responses":"{\"pregunta3\":\"a) El inicio de la dinastía Chang.\"}","question_order":"[0]","trial_type":"survey-multi-choice","trial_index":31,"time_elapsed":23432978,"internal_node_id":"0.0-5.0-26.0"},{"rt":4702.700000047684,"response":{"pregunta3 likert":1},"question_order":[0],"trial_type":"survey-likert","trial_index":32,"time_elapsed":23437682,"internal_node_id":"0.0-5.0-27.0"},{"rt":174322.89999985695,"responses":"{\"pregunta6\":\"a) Presentar positivamente las diversas tendencias del diseño de interiores a través de un comentario.\"}","question_order":"[0]","trial_type":"survey-multi-choice","trial_index":33,"time_elapsed":23612007,"internal_node_id":"0.0-5.0-28.0"},{"rt":5274.600000143051,"response":{"pregunta6 likert":0},"question_order":[0],"trial_type":"survey-likert","trial_index":34,"time_elapsed":23617284,"internal_node_id":"0.0-5.0-29.0"},{"rt":196258.79999995232,"responses":"{\"pregunta15\":\"c) el uranio es el elemento natural con el mayor número de protones en el núcleo.\"}","question_order":"[0]","trial_type":"survey-multi-choice","trial_index":35,"time_elapsed":23813542,"internal_node_id":"0.0-5.0-30.0"},{"rt":2854.4000000953674,"response":{"pregunta15 likert":0},"question_order":[0],"trial_type":"survey-likert","trial_index":36,"time_elapsed":23816398,"internal_node_id":"0.0-5.0-31.0"},{"rt":225906.29999995232,"responses":"{\"pregunta9\":\"d) la persistencia de la melancolía y la desesperanza.\"}","question_order":"[0]","trial_type":"survey-multi-choice","trial_index":37,"time_elapsed":24042309,"internal_node_id":"0.0-5.0-32.0"},{"rt":3609.7999999523163,"response":{"pregunta9 likert":0},"question_order":[0],"trial_type":"survey-likert","trial_index":38,"time_elapsed":24045920,"internal_node_id":"0.0-5.0-33.0"},{"rt":146252.89999985695,"responses":"{\"pregunta12\":\"b) Homenajear a quienes murieron.\"}","question_order":"[0]","trial_type":"survey-multi-choice","trial_index":39,"time_elapsed":24192174,"internal_node_id":"0.0-5.0-34.0"},{"rt":4282.299999952316,"response":{"pregunta12 likert":1},"question_order":[0],"trial_type":"survey-likert","trial_index":40,"time_elapsed":24196458,"internal_node_id":"0.0-5.0-35.0"},{"rt":281904,"responses":"{\"pregunta18\":\"d) El receptor es habitualmente pasivo frente a la publicidad.\"}","question_order":"[0]","trial_type":"survey-multi-choice","trial_index":41,"time_elapsed":24478364,"internal_node_id":"0.0-5.0-36.0"},{"rt":2582.600000143051,"response":{"pregunta18 likert":1},"question_order":[0],"trial_type":"survey-likert","trial_index":42,"time_elapsed":24480948,"internal_node_id":"0.0-5.0-37.0"},{"rt":137260.40000009537,"responses":"{\"pregunta4\":\"b) En la literatura como en la vida, todo es metáfora.\"}","question_order":"[0]","trial_type":"survey-multi-choice","trial_index":43,"time_elapsed":24618210,"internal_node_id":"0.0-5.0-38.0"},{"rt":3093.600000143051,"response":{"pregunta4 likert":1},"question_order":[0],"trial_type":"survey-likert","trial_index":44,"time_elapsed":24621305,"internal_node_id":"0.0-5.0-39.0"},{"rt":175938.60000014305,"responses":"{\"pregunta1\":\"c) Muestran las opiniones expuestas por los personajes en un relato.\"}","question_order":"[0]","trial_type":"survey-multi-choice","trial_index":45,"time_elapsed":24797244,"internal_node_id":"0.0-5.0-40.0"},{"rt":2204.0999999046326,"response":{"pregunta1 likert":0},"question_order":[0],"trial_type":"survey-likert","trial_index":46,"time_elapsed":24799450,"internal_node_id":"0.0-5.0-41.0"},{"rt":77487.89999985695,"responses":"{\"pregunta17\":\"d) A la inexistencia de un recinto adecuado para el recital.\"}","question_order":"[0]","trial_type":"survey-multi-choice","trial_index":47,"time_elapsed":24876939,"internal_node_id":"0.0-5.0-42.0"},{"rt":5756.800000190735,"response":{"pregunta17 likert":0},"question_order":[0],"trial_type":"survey-likert","trial_index":48,"time_elapsed":24882697,"internal_node_id":"0.0-5.0-43.0"},{"rt":148887.5,"responses":"{\"pregunta7\":\"d) se da como existente, y sólo se discute su relación con el cuerpo.\"}","question_order":"[0]","trial_type":"survey-multi-choice","trial_index":49,"time_elapsed":25031587,"internal_node_id":"0.0-5.0-44.0"},{"rt":2361.4000000953674,"response":{"pregunta7 likert":1},"question_order":[0],"trial_type":"survey-likert","trial_index":50,"time_elapsed":25033950,"internal_node_id":"0.0-5.0-45.0"},{"rt":68719.39999985695,"responses":"{\"pregunta5\":\"c) Los momentos triviales de los viajes, en la escritura se vuelven significativos.\"}","question_order":"[0]","trial_type":"survey-multi-choice","trial_index":51,"time_elapsed":25102669,"internal_node_id":"0.0-5.0-46.0"},{"rt":2141.7999999523163,"response":{"pregunta5 likert":1},"question_order":[0],"trial_type":"survey-likert","trial_index":52,"time_elapsed":25104813,"internal_node_id":"0.0-5.0-47.0"}]