[{"rt":354239,"stimulus":"<h1 style=\"color:red; margin-top: 3%;\">¡Bienvenido(a)!</h1><p style=\"text-align:left; justify-content:space-between; margin-right: 5%; margin-left: 5%; margin-top: 5%\"> Antes de empezar el estudio, necesitamos que nos confirmes que estás de acuerdo con participar. Recuerda que tu participación es 100% voluntaria y que lo único que te pedimos es responder lo mejor que puedas. Recuerda también que el estudio incluye:</p><ol style=\"text-align:left; justify-content:space-between; margin-right: 5%; margin-left: 5%;\"><li> un ejercicio de resolución de preguntas de selección múltiple (30’),</li><li>un cuestionario breve (5’),</li><li>un juego muy breve (3’),</li></ol><p style=\"text-align:left; justify-content:space-between; margin-right: 5%; margin-left: 5%;\">Si quieres participar, haz clic en “Acepto” luego de leer lo siguiente:<br></p><p style=\"text-align:left; justify-content:space-between; margin-right: 5%; margin-left: 5%;\">Acepto participar en el estudio “Estrategias de lectura y resolución de preguntas de selección múltiple”, en los términos aquí señalados:<br></p><p style=\"text-align:left; justify-content:space-between; margin-right: 5%; margin-left: 5%;\"><a href=\"http://ciae.uchile.cl/download.php?file=noticias/Asentimiento.pdf\" target=\"_blank\">Link a la hoja de información del Consentimiento.</a></p><p style=\"text-align:left; justify-content:space-between; margin-right: 5%; margin-left: 5%;\">Declaro que he leído (o se me ha leído) y (he) comprendido, las condiciones de mi participación en este estudio. He tenido la oportunidad de hacer preguntas y éstas han sido respondidas. No tengo dudas al respecto.</p>","response":0,"condicion_MCQ":7,"condicion_JUEGO":19,"condicion_INTER":19,"numero_participante":43,"numero_version":1,"dimx":1920,"dimy":1080,"color_profundidad":24,"pixel_profundidad":24,"Browser":"Mozilla Firefox","dia":4,"mes":5,"hora":12,"minuto":42,"segundo":56,"trial_type":"html-button-response","trial_index":0,"time_elapsed":354240,"internal_node_id":"0.0-0.0"},{"success":true,"trial_type":"fullscreen","trial_index":1,"time_elapsed":356584,"internal_node_id":"0.0-1.0"},{"rt":155507,"responses":"{\"Nombres\":\"Sergio Nicolás Ignacio\",\"Apellidos\":\"Vega Fernández\",\"Edad\":\"19\",\"Sexo\":\"masculino\",\"Curso\":\"25439\",\"Colegio\":\"unab\",\"Contacto\":\"sergio.vegaf.2002@gmail.com\"}","trial_type":"survey-text","trial_index":2,"time_elapsed":512095,"internal_node_id":"0.0-2.0"},{"success":true,"timeout":false,"failed_images":[],"failed_audio":[],"failed_video":[],"trial_type":"preload","trial_index":3,"time_elapsed":512539,"internal_node_id":"0.0-3.0"},{"rt":3188,"stimulus":"<h1 style:\"margin-top: 5%;\">Ejercicios de Comprensión de Lectura de la Universidad de Chile</h1><p style=\"font-size: 120%;\">En esta actividad, debes responder 24 preguntas de selección múltiple. Cada pregunta presenta 4 respuestas alternativas, pero sólo una de ellas es correcta. Por lo tanto, debes escoger una sola alternativa para cada pregunta. Además, debes reportar qué tan seguro(a) estás de la respuesta que das, con un:</p><ol style=\"font-size: 120%;text-align:left;margin-left: 40%;\"><li>No estoy seguro(a) para nada</li><li>No estoy muy seguro(a)</li><li>Estoy bastante seguro(a)</li><li>Estoy totalmente seguro(a)</li></ol><p style=\"font-size: 120%;\">Por favor lee bien los enunciados antes de responder. ¡Éxito!</p>","response":0,"trial_type":"html-button-response","trial_index":4,"time_elapsed":515727,"internal_node_id":"0.0-4.0"},{"rt":145303,"responses":"{\"pregunta19\":\"a) sufren dolores de espalda.\"}","question_order":"[0]","trial_type":"survey-multi-choice","trial_index":5,"time_elapsed":661031,"internal_node_id":"0.0-5.0-0.0"},{"rt":3909,"response":{"pregunta19 likert":1},"question_order":[0],"trial_type":"survey-likert","trial_index":6,"time_elapsed":664943,"internal_node_id":"0.0-5.0-1.0"},{"rt":46488,"responses":"{\"pregunta24\":\"b) para el mexicano, la muerte es cotidiana.\"}","question_order":"[0]","trial_type":"survey-multi-choice","trial_index":7,"time_elapsed":711431,"internal_node_id":"0.0-5.0-2.0"},{"rt":1463,"response":{"pregunta24 likert":1},"question_order":[0],"trial_type":"survey-likert","trial_index":8,"time_elapsed":712895,"internal_node_id":"0.0-5.0-3.0"},{"rt":52679,"responses":"{\"pregunta13\":\"a) A la inutilidad de tanto esfuerzo si el objetivo es el reposo.\"}","question_order":"[0]","trial_type":"survey-multi-choice","trial_index":9,"time_elapsed":765575,"internal_node_id":"0.0-5.0-4.0"},{"rt":2199,"response":{"pregunta13 likert":2},"question_order":[0],"trial_type":"survey-likert","trial_index":10,"time_elapsed":767776,"internal_node_id":"0.0-5.0-5.0"},{"rt":66358,"responses":"{\"pregunta22\":\"b) Se necesita un marco legal para delimitar lo público y lo privado en materia informativa.\"}","question_order":"[0]","trial_type":"survey-multi-choice","trial_index":11,"time_elapsed":834135,"internal_node_id":"0.0-5.0-6.0"},{"rt":2087,"response":{"pregunta22 likert":1},"question_order":[0],"trial_type":"survey-likert","trial_index":12,"time_elapsed":836223,"internal_node_id":"0.0-5.0-7.0"},{"rt":157615,"responses":"{\"pregunta1\":\"c) Aportan informaciones con las que se reconstruye el personaje dentro de un relato.\"}","question_order":"[0]","trial_type":"survey-multi-choice","trial_index":13,"time_elapsed":993839,"internal_node_id":"0.0-5.0-8.0"},{"rt":3351,"response":{"pregunta1 likert":1},"question_order":[0],"trial_type":"survey-likert","trial_index":14,"time_elapsed":997191,"internal_node_id":"0.0-5.0-9.0"},{"rt":150167,"responses":"{\"pregunta8\":\"a) El ser humano se comporta de acuerdo con las circunstancias.\"}","question_order":"[0]","trial_type":"survey-multi-choice","trial_index":15,"time_elapsed":1147359,"internal_node_id":"0.0-5.0-10.0"},{"rt":1766,"response":{"pregunta8 likert":0},"question_order":[0],"trial_type":"survey-likert","trial_index":16,"time_elapsed":1149126,"internal_node_id":"0.0-5.0-11.0"},{"rt":139152,"responses":"{\"pregunta11\":\"b) Provocar el deseo de la adquisición vertiginosa.\"}","question_order":"[0]","trial_type":"survey-multi-choice","trial_index":17,"time_elapsed":1288279,"internal_node_id":"0.0-5.0-12.0"},{"rt":1535,"response":{"pregunta11 likert":1},"question_order":[0],"trial_type":"survey-likert","trial_index":18,"time_elapsed":1289814,"internal_node_id":"0.0-5.0-13.0"},{"rt":56031,"responses":"{\"pregunta18\":\"d) El receptor es habitualmente pasivo frente a la publicidad.\"}","question_order":"[0]","trial_type":"survey-multi-choice","trial_index":19,"time_elapsed":1345847,"internal_node_id":"0.0-5.0-14.0"},{"rt":3215,"response":{"pregunta18 likert":0},"question_order":[0],"trial_type":"survey-likert","trial_index":20,"time_elapsed":1349062,"internal_node_id":"0.0-5.0-15.0"},{"rt":41975,"responses":"{\"pregunta21\":\"c) Será difícil que las empresas nacionales compitan con las estadounidenses.\"}","question_order":"[0]","trial_type":"survey-multi-choice","trial_index":21,"time_elapsed":1391038,"internal_node_id":"0.0-5.0-16.0"},{"rt":2815,"response":{"pregunta21 likert":0},"question_order":[0],"trial_type":"survey-likert","trial_index":22,"time_elapsed":1393854,"internal_node_id":"0.0-5.0-17.0"},{"rt":68703,"responses":"{\"pregunta20\":\"b) las personas excesivas son más felices.\"}","question_order":"[0]","trial_type":"survey-multi-choice","trial_index":23,"time_elapsed":1462558,"internal_node_id":"0.0-5.0-18.0"},{"rt":2311,"response":{"pregunta20 likert":0},"question_order":[0],"trial_type":"survey-likert","trial_index":24,"time_elapsed":1464870,"internal_node_id":"0.0-5.0-19.0"},{"rt":63399,"responses":"{\"pregunta23\":\"b) el jardinero estará muerto al día siguiente.\"}","question_order":"[0]","trial_type":"survey-multi-choice","trial_index":25,"time_elapsed":1528269,"internal_node_id":"0.0-5.0-20.0"},{"rt":2126,"response":{"pregunta23 likert":2},"question_order":[0],"trial_type":"survey-likert","trial_index":26,"time_elapsed":1530398,"internal_node_id":"0.0-5.0-21.0"},{"rt":345294,"responses":"{\"pregunta12\":\"b) Homenajear a quienes murieron.\"}","question_order":"[0]","trial_type":"survey-multi-choice","trial_index":27,"time_elapsed":1875693,"internal_node_id":"0.0-5.0-22.0"},{"rt":1535,"response":{"pregunta12 likert":0},"question_order":[0],"trial_type":"survey-likert","trial_index":28,"time_elapsed":1877229,"internal_node_id":"0.0-5.0-23.0"},{"rt":27231,"responses":"{\"pregunta4\":\"a) En la literatura como en la vida, todo es metáfora.\"}","question_order":"[0]","trial_type":"survey-multi-choice","trial_index":29,"time_elapsed":1904461,"internal_node_id":"0.0-5.0-24.0"},{"rt":999,"response":{"pregunta4 likert":0},"question_order":[0],"trial_type":"survey-likert","trial_index":30,"time_elapsed":1905462,"internal_node_id":"0.0-5.0-25.0"},{"rt":36800,"responses":"{\"pregunta9\":\"c) la persistencia de la melancolía y la desesperanza.\"}","question_order":"[0]","trial_type":"survey-multi-choice","trial_index":31,"time_elapsed":1942261,"internal_node_id":"0.0-5.0-26.0"},{"rt":1487,"response":{"pregunta9 likert":0},"question_order":[0],"trial_type":"survey-likert","trial_index":32,"time_elapsed":1943749,"internal_node_id":"0.0-5.0-27.0"},{"rt":46006,"responses":"{\"pregunta10\":\"a) religiosos y precavidos.\"}","question_order":"[0]","trial_type":"survey-multi-choice","trial_index":33,"time_elapsed":1989757,"internal_node_id":"0.0-5.0-28.0"},{"rt":1304,"response":{"pregunta10 likert":0},"question_order":[0],"trial_type":"survey-likert","trial_index":34,"time_elapsed":1991062,"internal_node_id":"0.0-5.0-29.0"},{"rt":35767,"responses":"{\"pregunta2\":\"b) A la relación entre sociedad y constitución social.\"}","question_order":"[0]","trial_type":"survey-multi-choice","trial_index":35,"time_elapsed":2026829,"internal_node_id":"0.0-5.0-30.0"},{"rt":1231,"response":{"pregunta2 likert":0},"question_order":[0],"trial_type":"survey-likert","trial_index":36,"time_elapsed":2028062,"internal_node_id":"0.0-5.0-31.0"},{"rt":3016,"responses":"{\"pregunta6\":\"c) Presentar positivamente las diversas tendencias del diseño de interiores a través de un comentario.\"}","question_order":"[0]","trial_type":"survey-multi-choice","trial_index":37,"time_elapsed":2031078,"internal_node_id":"0.0-5.0-32.0"},{"rt":1109,"response":{"pregunta6 likert":0},"question_order":[0],"trial_type":"survey-likert","trial_index":38,"time_elapsed":2032189,"internal_node_id":"0.0-5.0-33.0"},{"rt":43135,"responses":"{\"pregunta3\":\"c) El inicio de la civilización china.\"}","question_order":"[0]","trial_type":"survey-multi-choice","trial_index":39,"time_elapsed":2075325,"internal_node_id":"0.0-5.0-34.0"},{"rt":2136,"response":{"pregunta3 likert":1},"question_order":[0],"trial_type":"survey-likert","trial_index":40,"time_elapsed":2077462,"internal_node_id":"0.0-5.0-35.0"},{"rt":38727,"responses":"{\"pregunta7\":\"a) se da como existente, y sólo se discute su relación con el cuerpo.\"}","question_order":"[0]","trial_type":"survey-multi-choice","trial_index":41,"time_elapsed":2116190,"internal_node_id":"0.0-5.0-36.0"},{"rt":1503,"response":{"pregunta7 likert":1},"question_order":[0],"trial_type":"survey-likert","trial_index":42,"time_elapsed":2117693,"internal_node_id":"0.0-5.0-37.0"},{"rt":71231,"responses":"{\"pregunta17\":\"b) A la inexistencia de un recinto adecuado para el recital.\"}","question_order":"[0]","trial_type":"survey-multi-choice","trial_index":43,"time_elapsed":2188925,"internal_node_id":"0.0-5.0-38.0"},{"rt":1711,"response":{"pregunta17 likert":1},"question_order":[0],"trial_type":"survey-likert","trial_index":44,"time_elapsed":2190637,"internal_node_id":"0.0-5.0-39.0"},{"rt":77607,"responses":"{\"pregunta14\":\"a) el Primer Ministro debía morir por ambicioso.\"}","question_order":"[0]","trial_type":"survey-multi-choice","trial_index":45,"time_elapsed":2268245,"internal_node_id":"0.0-5.0-40.0"},{"rt":1638,"response":{"pregunta14 likert":1},"question_order":[0],"trial_type":"survey-likert","trial_index":46,"time_elapsed":2269885,"internal_node_id":"0.0-5.0-41.0"},{"rt":48151,"responses":"{\"pregunta15\":\"c) el uranio es el elemento natural con el mayor número de protones en el núcleo.\"}","question_order":"[0]","trial_type":"survey-multi-choice","trial_index":47,"time_elapsed":2318037,"internal_node_id":"0.0-5.0-42.0"},{"rt":1319,"response":{"pregunta15 likert":0},"question_order":[0],"trial_type":"survey-likert","trial_index":48,"time_elapsed":2319356,"internal_node_id":"0.0-5.0-43.0"},{"rt":49207,"responses":"{\"pregunta5\":\"c) En los viajes es esencial el momento mismo de la escritura.\"}","question_order":"[0]","trial_type":"survey-multi-choice","trial_index":49,"time_elapsed":2368564,"internal_node_id":"0.0-5.0-44.0"},{"rt":3687,"response":{"pregunta5 likert":1},"question_order":[0],"trial_type":"survey-likert","trial_index":50,"time_elapsed":2372253,"internal_node_id":"0.0-5.0-45.0"},{"rt":36312,"responses":"{\"pregunta16\":\"d) Bomberos debería tener acceso a un seguro médico, al que pueda recurrir en caso de accidente.\"}","question_order":"[0]","trial_type":"survey-multi-choice","trial_index":51,"time_elapsed":2408565,"internal_node_id":"0.0-5.0-46.0"},{"rt":1783,"response":{"pregunta16 likert":1},"question_order":[0],"trial_type":"survey-likert","trial_index":52,"time_elapsed":2410349,"internal_node_id":"0.0-5.0-47.0"},{"rt":990,"stimulus":"<p style=\"font-size: 120%\">Gracias por completar esta etapa del estudio. Ahora te invitamos a responder el cuestionario.<br><br></p>","response":0,"trial_type":"html-button-response","trial_index":53,"time_elapsed":2411340,"internal_node_id":"0.0-6.0"},{"rt":2697,"stimulus":"<h1 style=\"margin-top: 5%\">Cuestionario para la Evaluación de Metas Académicas</h1><p style=\"font-size: 120%; margin-left: 3%; margin-top: 5%\">Este es un cuestionario que permite conocer cuáles son los principales motivos por los que los estudiantes se esfuerzan en su trabajo académico. A continuación, se te presentarán una serie de afirmaciones acerca de los motivos que puedes tener para estudiar.<br>Te pedimos que contestes a dichas afirmaciones reflexionando sobre el contenido de cada una de ellas, que, aunque te parezcan semejantes, en realidad, no lo son.<br>NO HAY RESPUESTAS CORRECTAS o INCORRECTAS, sólo queremos que respondas con la mayor precisión y sinceridad posible a las preguntas que se plantean.","response":0,"trial_type":"html-button-response","trial_index":54,"time_elapsed":2414036,"internal_node_id":"0.0-7.0"},{"rt":84294,"response":{"Metas cuestionario pregunta1":3,"Metas cuestionario pregunta2":3,"Metas cuestionario pregunta3":2,"Metas cuestionario pregunta4":4,"Metas cuestionario pregunta5":2,"Metas cuestionario pregunta6":2,"Metas cuestionario pregunta7":3,"Metas cuestionario pregunta8":2,"Metas cuestionario pregunta9":0,"Metas cuestionario pregunta10":0,"Metas cuestionario pregunta11":0,"Metas cuestionario pregunta12":0,"Metas cuestionario pregunta13":0,"Metas cuestionario pregunta14":2,"Metas cuestionario pregunta15":4,"Metas cuestionario pregunta16":3,"Metas cuestionario pregunta17":4,"Metas cuestionario pregunta18":4,"Metas cuestionario pregunta19":3,"Metas cuestionario pregunta20":2},"question_order":[0,1,2,3,4,5,6,7,8,9,10,11,12,13,14,15,16,17,18,19],"trial_type":"survey-likert","trial_index":55,"time_elapsed":2498334,"internal_node_id":"0.0-8.0"},{"rt":1245,"stimulus":"<p style=\"font-size: 120%\">Gracias por responder el cuestionario. Ahora te invitamos a seguir con el juego, que es muy breve.<br><br></p>","response":0,"trial_type":"html-button-response","trial_index":56,"time_elapsed":2499580,"internal_node_id":"0.0-9.0"},{"rt":976,"stimulus":"<h1>Juego</h1><p style=\"font-size: 120%;\">A continuación se te presentarán 16 pequeñas historias.<br>Por favor lee el texto presentado en cada una de ellas y luego haz click en el objeto de tu elección.<br>Si estás listo(a),<span style=\"color:red;\"> haz click en \"comenzar\"</span>.</p>","response":0,"trial_type":"html-button-response","trial_index":57,"time_elapsed":2500556,"internal_node_id":"0.0-10.0"},{"rt":12072,"grid":[[1,1,1],[1,1,1],[1,1,1],[1,1,1],[1,1,1],[1,1,1],[1,1,1],[1,1,1],[1,1,1]],"target":[0,0],"response":[3,1],"correct":false,"juego":13,"trial_type":"serial-reaction-time-mouse","trial_index":58,"time_elapsed":2512629,"internal_node_id":"0.0-11.0-0.0"},{"rt":7456,"grid":[[1,1,1,1]],"target":[0,0],"response":[0,1],"correct":false,"juego":8,"trial_type":"serial-reaction-time-mouse","trial_index":59,"time_elapsed":2520086,"internal_node_id":"0.0-11.0-1.0"},{"rt":13792,"grid":[[1,1,1,1]],"target":[0,0],"response":[0,0],"correct":true,"juego":2,"trial_type":"serial-reaction-time-mouse","trial_index":60,"time_elapsed":2533878,"internal_node_id":"0.0-11.0-2.0"},{"rt":15728,"grid":[[1,1,1,1]],"target":[0,0],"response":[0,3],"correct":false,"juego":12,"trial_type":"serial-reaction-time-mouse","trial_index":61,"time_elapsed":2549606,"internal_node_id":"0.0-11.0-3.0"},{"rt":3671,"grid":[[1,1,1,1]],"target":[0,0],"response":[0,2],"correct":false,"juego":9,"trial_type":"serial-reaction-time-mouse","trial_index":62,"time_elapsed":2553277,"internal_node_id":"0.0-11.0-4.0"},{"rt":13047,"grid":[[1,1,1],[1,1,1],[1,1,1],[1,1,1],[1,1,1],[1,1,1],[1,1,1],[1,1,1],[1,1,1]],"target":[0,0],"response":[3,0],"correct":false,"juego":10,"trial_type":"serial-reaction-time-mouse","trial_index":63,"time_elapsed":2566325,"internal_node_id":"0.0-11.0-5.0"},{"rt":2471,"grid":[[1,1,1,1]],"target":[0,0],"response":[0,2],"correct":false,"juego":1,"trial_type":"serial-reaction-time-mouse","trial_index":64,"time_elapsed":2568798,"internal_node_id":"0.0-11.0-6.0"},{"rt":7432,"grid":[[1,1,1,1],[1,1,1,1],[1,1,1,1],[1,1,1,1],[1,1,1,1],[1,1,1,1],[1,1,1,1],[1,1,1,1],[1,1,1,1]],"target":[0,0],"response":[5,2],"correct":false,"juego":15,"trial_type":"serial-reaction-time-mouse","trial_index":65,"time_elapsed":2576231,"internal_node_id":"0.0-11.0-7.0"},{"rt":4424,"grid":[[1,1,1,1]],"target":[0,0],"response":[0,0],"correct":true,"juego":3,"trial_type":"serial-reaction-time-mouse","trial_index":66,"time_elapsed":2580655,"internal_node_id":"0.0-11.0-8.0"},{"rt":4054,"grid":[[1,1,1,1],[1,1,1,1],[1,1,1,1],[1,1,1,1],[1,1,1,1],[1,1,1,1],[1,1,1,1],[1,1,1,1],[1,1,1,1]],"target":[0,0],"response":[5,2],"correct":false,"juego":14,"trial_type":"serial-reaction-time-mouse","trial_index":67,"time_elapsed":2584709,"internal_node_id":"0.0-11.0-9.0"},{"rt":3080,"grid":[[1,1,1],[1,1,1],[1,1,1],[1,1,1],[1,1,1],[1,1,1],[1,1,1],[1,1,1],[1,1,1]],"target":[0,0],"response":[7,1],"correct":false,"juego":5,"trial_type":"serial-reaction-time-mouse","trial_index":68,"time_elapsed":2587790,"internal_node_id":"0.0-11.0-10.0"},{"rt":6440,"grid":[[1,1,1,1]],"target":[0,0],"response":[0,2],"correct":false,"juego":7,"trial_type":"serial-reaction-time-mouse","trial_index":69,"time_elapsed":2594230,"internal_node_id":"0.0-11.0-11.0"},{"rt":2687,"grid":[[1,1,1],[1,1,1],[1,1,1],[1,1,1],[1,1,1],[1,1,1],[1,1,1],[1,1,1],[1,1,1]],"target":[0,0],"response":[7,1],"correct":false,"juego":6,"trial_type":"serial-reaction-time-mouse","trial_index":70,"time_elapsed":2596919,"internal_node_id":"0.0-11.0-12.0"},{"rt":6232,"grid":[[1,1,1,1]],"target":[0,0],"response":[0,3],"correct":false,"juego":11,"trial_type":"serial-reaction-time-mouse","trial_index":71,"time_elapsed":2603151,"internal_node_id":"0.0-11.0-13.0"},{"rt":1758,"grid":[[1],[1],[1],[1]],"target":[0,0],"response":[1,0],"correct":false,"juego":4,"trial_type":"serial-reaction-time-mouse","trial_index":72,"time_elapsed":2604910,"internal_node_id":"0.0-11.0-14.0"},{"rt":1109,"stimulus":"<h1>Último juego</h1><p style=\"font-size: 130%;\">Tienes <span style=\"color:red\">25</span> segundos para recordar los pares de palabras que aparecerán a continuación. <br></p>","response":0,"trial_type":"html-button-response","trial_index":73,"time_elapsed":2606020,"internal_node_id":"0.0-12.0"},{"animation_sequence":[{"stimulus":"imagen_juego_interferencia.jpg","time":509},{"stimulus":"imagen_juego_interferencia.jpg","time":1014},{"stimulus":"imagen_juego_interferencia.jpg","time":1524},{"stimulus":"imagen_juego_interferencia.jpg","time":2036},{"stimulus":"imagen_juego_interferencia.jpg","time":2545},{"stimulus":"imagen_juego_interferencia.jpg","time":3056},{"stimulus":"imagen_juego_interferencia.jpg","time":3568},{"stimulus":"imagen_juego_interferencia.jpg","time":4082},{"stimulus":"imagen_juego_interferencia.jpg","time":4585},{"stimulus":"imagen_juego_interferencia.jpg","time":5088},{"stimulus":"imagen_juego_interferencia.jpg","time":5598},{"stimulus":"imagen_juego_interferencia.jpg","time":6111},{"stimulus":"imagen_juego_interferencia.jpg","time":6624},{"stimulus":"imagen_juego_interferencia.jpg","time":7134},{"stimulus":"imagen_juego_interferencia.jpg","time":7634},{"stimulus":"imagen_juego_interferencia.jpg","time":8134},{"stimulus":"imagen_juego_interferencia.jpg","time":8635},{"stimulus":"imagen_juego_interferencia.jpg","time":9147},{"stimulus":"imagen_juego_interferencia.jpg","time":9659},{"stimulus":"imagen_juego_interferencia.jpg","time":10172},{"stimulus":"imagen_juego_interferencia.jpg","time":10684},{"stimulus":"imagen_juego_interferencia.jpg","time":11194},{"stimulus":"imagen_juego_interferencia.jpg","time":11700},{"stimulus":"imagen_juego_interferencia.jpg","time":12215},{"stimulus":"imagen_juego_interferencia.jpg","time":12724},{"stimulus":"imagen_juego_interferencia.jpg","time":13236},{"stimulus":"imagen_juego_interferencia.jpg","time":13750},{"stimulus":"imagen_juego_interferencia.jpg","time":14250},{"stimulus":"imagen_juego_interferencia.jpg","time":14757},{"stimulus":"imagen_juego_interferencia.jpg","time":15267},{"stimulus":"imagen_juego_interferencia.jpg","time":15767},{"stimulus":"imagen_juego_interferencia.jpg","time":16267},{"stimulus":"imagen_juego_interferencia.jpg","time":16767},{"stimulus":"imagen_juego_interferencia.jpg","time":17268},{"stimulus":"imagen_juego_interferencia.jpg","time":17778},{"stimulus":"imagen_juego_interferencia.jpg","time":18284},{"stimulus":"imagen_juego_interferencia.jpg","time":18784},{"stimulus":"imagen_juego_interferencia.jpg","time":19298},{"stimulus":"imagen_juego_interferencia.jpg","time":19801},{"stimulus":"imagen_juego_interferencia.jpg","time":20300},{"stimulus":"imagen_juego_interferencia.jpg","time":20801},{"stimulus":"imagen_juego_interferencia.jpg","time":21301},{"stimulus":"imagen_juego_interferencia.jpg","time":21804},{"stimulus":"imagen_juego_interferencia.jpg","time":22305},{"stimulus":"imagen_juego_interferencia.jpg","time":22807},{"stimulus":"imagen_juego_interferencia.jpg","time":23318},{"stimulus":"imagen_juego_interferencia.jpg","time":23828},{"stimulus":"imagen_juego_interferencia.jpg","time":24339},{"stimulus":"imagen_juego_interferencia.jpg","time":24849},{"stimulus":"imagen_juego_interferencia.jpg","time":25358}],"response":[],"trial_type":"animation","trial_index":74,"time_elapsed":2631888,"internal_node_id":"0.0-13.0"},{"rt":30756,"responses":"{\"pregunta interferencia2\":\"cigarra\"}","question_order":"[0]","trial_type":"survey-multi-choice-cuest","trial_index":75,"time_elapsed":2662645,"internal_node_id":"0.0-14.0-0.0"},{"rt":4567,"responses":"{\"pregunta interferencia1\":\"plátano\"}","question_order":"[0]","trial_type":"survey-multi-choice-cuest","trial_index":76,"time_elapsed":2667212,"internal_node_id":"0.0-14.0-1.0"},{"rt":3471,"responses":"{\"pregunta interferencia4\":\"contador\"}","question_order":"[0]","trial_type":"survey-multi-choice-cuest","trial_index":77,"time_elapsed":2670685,"internal_node_id":"0.0-14.0-2.0"},{"rt":4855,"responses":"{\"pregunta interferencia3\":\"plata\"}","question_order":"[0]","trial_type":"survey-multi-choice-cuest","trial_index":78,"time_elapsed":2675541,"internal_node_id":"0.0-14.0-3.0"},{"success":true,"trial_type":"fullscreen","trial_index":79,"time_elapsed":2676549,"internal_node_id":"0.0-15.0"},{"rt":11038,"responses":"{\"Telefono\":\"+56987749670\"}","trial_type":"survey-text","trial_index":80,"time_elapsed":2687588,"internal_node_id":"0.0-16.0"}]