[{"rt":5344.60000000149,"stimulus":"<h1 style=\"color:red; margin-top: 3%;\">¡Bienvenido(a)!</h1><p style=\"text-align:left; justify-content:space-between; margin-right: 5%; margin-left: 5%; margin-top: 5%\"> Antes de empezar el estudio, necesitamos que nos confirmes que estás de acuerdo con participar. Recuerda que tu participación es 100% voluntaria y que lo único que te pedimos es responder lo mejor que puedas. Recuerda también que el estudio incluye:</p><ol style=\"text-align:left; justify-content:space-between; margin-right: 5%; margin-left: 5%;\"><li> un ejercicio de resolución de preguntas de selección múltiple (30’),</li><li>un cuestionario breve (5’),</li><li>un juego muy breve (3’),</li></ol><p style=\"text-align:left; justify-content:space-between; margin-right: 5%; margin-left: 5%;\">Si quieres participar, haz clic en “Acepto” luego de leer lo siguiente:<br></p><p style=\"text-align:left; justify-content:space-between; margin-right: 5%; margin-left: 5%;\">Acepto participar en el estudio “Estrategias de lectura y resolución de preguntas de selección múltiple”, en los términos aquí señalados:<br></p><p style=\"text-align:left; justify-content:space-between; margin-right: 5%; margin-left: 5%;\"><a href=\"http://ciae.uchile.cl/download.php?file=noticias/Asentimiento.pdf\" target=\"_blank\">Link a la hoja de información del Consentimiento.</a></p><p style=\"text-align:left; justify-content:space-between; margin-right: 5%; margin-left: 5%;\">Declaro que he leído (o se me ha leído) y (he) comprendido, las condiciones de mi participación en este estudio. He tenido la oportunidad de hacer preguntas y éstas han sido respondidas. No tengo dudas al respecto.</p>","response":0,"condicion_MCQ":12,"condicion_JUEGO":12,"condicion_INTER":12,"numero_participante":84,"numero_version":1,"dimx":1366,"dimy":768,"color_profundidad":24,"pixel_profundidad":24,"Browser":"Google Chrome","dia":12,"mes":5,"hora":23,"minuto":28,"segundo":6,"trial_type":"html-button-response","trial_index":0,"time_elapsed":5353,"internal_node_id":"0.0-0.0"},{"success":true,"trial_type":"fullscreen","trial_index":1,"time_elapsed":12642,"internal_node_id":"0.0-1.0"},{"rt":92726.59999999776,"responses":"{\"Nombres\":\"miranda\",\"Apellidos\":\"arredondo\",\"Edad\":\"18\",\"Sexo\":\"mujer\",\"Curso\":\"seccion 218\",\"Colegio\":\"andres bello\",\"Contacto\":\"mirxndx.4@gmail.com\"}","trial_type":"survey-text","trial_index":2,"time_elapsed":105399,"internal_node_id":"0.0-2.0"},{"success":true,"timeout":false,"failed_images":[],"failed_audio":[],"failed_video":[],"trial_type":"preload","trial_index":3,"time_elapsed":106228,"internal_node_id":"0.0-3.0"},{"rt":48027.199999999255,"stimulus":"<h1 style:\"margin-top: 5%;\">Ejercicios de Comprensión de Lectura de la Universidad de Chile</h1><p style=\"font-size: 120%;\">En esta actividad, debes responder 24 preguntas de selección múltiple. Cada pregunta presenta 4 respuestas alternativas, pero sólo una de ellas es correcta. Por lo tanto, debes escoger una sola alternativa para cada pregunta. Además, debes reportar qué tan seguro(a) estás de la respuesta que das, con un:</p><ol style=\"font-size: 120%;text-align:left;margin-left: 40%;\"><li>No estoy seguro(a) para nada</li><li>No estoy muy seguro(a)</li><li>Estoy bastante seguro(a)</li><li>Estoy totalmente seguro(a)</li></ol><p style=\"font-size: 120%;\">Por favor lee bien los enunciados antes de responder. ¡Éxito!</p>","response":0,"trial_type":"html-button-response","trial_index":4,"time_elapsed":154258,"internal_node_id":"0.0-4.0"},{"rt":23915,"responses":"{\"pregunta3\":\"a) El inicio de la civilización china.\"}","question_order":"[0]","trial_type":"survey-multi-choice","trial_index":5,"time_elapsed":178176,"internal_node_id":"0.0-5.0-0.0"},{"rt":6706.70000000298,"response":{"pregunta3 likert":0},"question_order":[0],"trial_type":"survey-likert","trial_index":6,"time_elapsed":184888,"internal_node_id":"0.0-5.0-1.0"},{"rt":56006.39999999851,"responses":"{\"pregunta2\":\"c) A la relación entre civilización y sociedad.\"}","question_order":"[0]","trial_type":"survey-multi-choice","trial_index":7,"time_elapsed":240899,"internal_node_id":"0.0-5.0-2.0"},{"rt":2322.599999997765,"response":{"pregunta2 likert":0},"question_order":[0],"trial_type":"survey-likert","trial_index":8,"time_elapsed":243227,"internal_node_id":"0.0-5.0-3.0"},{"rt":12550.099999997765,"responses":"{\"pregunta13\":\"c) A la inutilidad de tanto esfuerzo si el objetivo es el reposo.\"}","question_order":"[0]","trial_type":"survey-multi-choice","trial_index":9,"time_elapsed":255787,"internal_node_id":"0.0-5.0-4.0"},{"rt":9854.900000002235,"response":{"pregunta13 likert":0},"question_order":[0],"trial_type":"survey-likert","trial_index":10,"time_elapsed":265645,"internal_node_id":"0.0-5.0-5.0"},{"rt":3197.099999997765,"responses":"{\"pregunta1\":\"a) Entregan una característica detallada del personaje, a través de la voz narrativa.\"}","question_order":"[0]","trial_type":"survey-multi-choice","trial_index":11,"time_elapsed":268848,"internal_node_id":"0.0-5.0-6.0"},{"rt":2894,"response":{"pregunta1 likert":2},"question_order":[0],"trial_type":"survey-likert","trial_index":12,"time_elapsed":271745,"internal_node_id":"0.0-5.0-7.0"},{"rt":3530.300000000745,"responses":"{\"pregunta4\":\"c) Las personas importantes comparten el gusto por la literatura.\"}","question_order":"[0]","trial_type":"survey-multi-choice","trial_index":13,"time_elapsed":275280,"internal_node_id":"0.0-5.0-8.0"},{"rt":5125.89999999851,"response":{"pregunta4 likert":2},"question_order":[0],"trial_type":"survey-likert","trial_index":14,"time_elapsed":280409,"internal_node_id":"0.0-5.0-9.0"},{"rt":139263.5,"responses":"{\"pregunta20\":\"b) las personas excesivas son más felices.\"}","question_order":"[0]","trial_type":"survey-multi-choice","trial_index":15,"time_elapsed":419675,"internal_node_id":"0.0-5.0-10.0"},{"rt":11316.89999999851,"response":{"pregunta20 likert":2},"question_order":[0],"trial_type":"survey-likert","trial_index":16,"time_elapsed":430996,"internal_node_id":"0.0-5.0-11.0"},{"rt":29358.10000000149,"responses":"{\"pregunta22\":\"c) Se necesita un marco legal para delimitar lo público y lo privado en materia informativa.\"}","question_order":"[0]","trial_type":"survey-multi-choice","trial_index":17,"time_elapsed":460358,"internal_node_id":"0.0-5.0-12.0"},{"rt":3032.60000000149,"response":{"pregunta22 likert":2},"question_order":[0],"trial_type":"survey-likert","trial_index":18,"time_elapsed":463394,"internal_node_id":"0.0-5.0-13.0"},{"rt":2056.900000002235,"responses":"{\"pregunta15\":\"b) a partir de la manipulación del núcleo se han creado elementos químicos naturales.\"}","question_order":"[0]","trial_type":"survey-multi-choice","trial_index":19,"time_elapsed":465455,"internal_node_id":"0.0-5.0-14.0"},{"rt":2061.5,"response":{"pregunta15 likert":1},"question_order":[0],"trial_type":"survey-likert","trial_index":20,"time_elapsed":467519,"internal_node_id":"0.0-5.0-15.0"},{"rt":3355.699999999255,"responses":"{\"pregunta16\":\"a) Bomberos debería tener acceso a un seguro médico, al que pueda recurrir en caso de accidente.\"}","question_order":"[0]","trial_type":"survey-multi-choice","trial_index":21,"time_elapsed":470881,"internal_node_id":"0.0-5.0-16.0"},{"rt":3759.099999997765,"response":{"pregunta16 likert":2},"question_order":[0],"trial_type":"survey-likert","trial_index":22,"time_elapsed":474646,"internal_node_id":"0.0-5.0-17.0"},{"rt":2950.39999999851,"responses":"{\"pregunta10\":\"b) hedonistas y soñadores.\"}","question_order":"[0]","trial_type":"survey-multi-choice","trial_index":23,"time_elapsed":477599,"internal_node_id":"0.0-5.0-18.0"},{"rt":4174.199999999255,"response":{"pregunta10 likert":3},"question_order":[0],"trial_type":"survey-likert","trial_index":24,"time_elapsed":481777,"internal_node_id":"0.0-5.0-19.0"},{"rt":2763.599999997765,"responses":"{\"pregunta14\":\"a) el mejor emperador es el que está muerto.\"}","question_order":"[0]","trial_type":"survey-multi-choice","trial_index":25,"time_elapsed":484545,"internal_node_id":"0.0-5.0-20.0"},{"rt":2978.2999999970198,"response":{"pregunta14 likert":3},"question_order":[0],"trial_type":"survey-likert","trial_index":26,"time_elapsed":487527,"internal_node_id":"0.0-5.0-21.0"},{"rt":3410.800000000745,"responses":"{\"pregunta21\":\"d) Será difícil que las empresas nacionales compitan con las estadounidenses.\"}","question_order":"[0]","trial_type":"survey-multi-choice","trial_index":27,"time_elapsed":490942,"internal_node_id":"0.0-5.0-22.0"},{"rt":2329.699999999255,"response":{"pregunta21 likert":2},"question_order":[0],"trial_type":"survey-likert","trial_index":28,"time_elapsed":493276,"internal_node_id":"0.0-5.0-23.0"},{"rt":4311.800000000745,"responses":"{\"pregunta23\":\"b) el jardinero era un hombre viejo.\"}","question_order":"[0]","trial_type":"survey-multi-choice","trial_index":29,"time_elapsed":497591,"internal_node_id":"0.0-5.0-24.0"},{"rt":2825.800000000745,"response":{"pregunta23 likert":2},"question_order":[0],"trial_type":"survey-likert","trial_index":30,"time_elapsed":500420,"internal_node_id":"0.0-5.0-25.0"},{"rt":2913.7999999970198,"responses":"{\"pregunta17\":\"b) A la influencia de grupos que rechazaban su música.\"}","question_order":"[0]","trial_type":"survey-multi-choice","trial_index":31,"time_elapsed":503344,"internal_node_id":"0.0-5.0-26.0"},{"rt":2201,"response":{"pregunta17 likert":1},"question_order":[0],"trial_type":"survey-likert","trial_index":32,"time_elapsed":505552,"internal_node_id":"0.0-5.0-27.0"},{"rt":3242.900000002235,"responses":"{\"pregunta24\":\"c) en Nueva York, París o Londres, la muerte es tema superado.\"}","question_order":"[0]","trial_type":"survey-multi-choice","trial_index":33,"time_elapsed":508799,"internal_node_id":"0.0-5.0-28.0"},{"rt":3281.099999997765,"response":{"pregunta24 likert":1},"question_order":[0],"trial_type":"survey-likert","trial_index":34,"time_elapsed":512084,"internal_node_id":"0.0-5.0-29.0"},{"rt":5250.199999999255,"responses":"{\"pregunta5\":\"a) La escritura plasma los mejores momentos de los viajes.\"}","question_order":"[0]","trial_type":"survey-multi-choice","trial_index":35,"time_elapsed":517337,"internal_node_id":"0.0-5.0-30.0"},{"rt":2468.099999997765,"response":{"pregunta5 likert":2},"question_order":[0],"trial_type":"survey-likert","trial_index":36,"time_elapsed":519809,"internal_node_id":"0.0-5.0-31.0"},{"rt":2408.699999999255,"responses":"{\"pregunta9\":\"c) preparar los recuerdos del mañana.\"}","question_order":"[0]","trial_type":"survey-multi-choice","trial_index":37,"time_elapsed":522222,"internal_node_id":"0.0-5.0-32.0"},{"rt":2560.099999997765,"response":{"pregunta9 likert":1},"question_order":[0],"trial_type":"survey-likert","trial_index":38,"time_elapsed":524786,"internal_node_id":"0.0-5.0-33.0"},{"rt":4960.60000000149,"responses":"{\"pregunta11\":\"c) Poner en escena objetos y servicios.\"}","question_order":"[0]","trial_type":"survey-multi-choice","trial_index":39,"time_elapsed":529751,"internal_node_id":"0.0-5.0-34.0"},{"rt":3648.5,"response":{"pregunta11 likert":2},"question_order":[0],"trial_type":"survey-likert","trial_index":40,"time_elapsed":533406,"internal_node_id":"0.0-5.0-35.0"},{"rt":6464.199999999255,"responses":"{\"pregunta12\":\"b) Atraer a los turistas.\"}","question_order":"[0]","trial_type":"survey-multi-choice","trial_index":41,"time_elapsed":539873,"internal_node_id":"0.0-5.0-36.0"},{"rt":2940.099999997765,"response":{"pregunta12 likert":1},"question_order":[0],"trial_type":"survey-likert","trial_index":42,"time_elapsed":542817,"internal_node_id":"0.0-5.0-37.0"},{"rt":3408.800000000745,"responses":"{\"pregunta7\":\"c) es una noción que obedece a una visión pesimista de la vida.\"}","question_order":"[0]","trial_type":"survey-multi-choice","trial_index":43,"time_elapsed":546230,"internal_node_id":"0.0-5.0-38.0"},{"rt":3828.099999997765,"response":{"pregunta7 likert":2},"question_order":[0],"trial_type":"survey-likert","trial_index":44,"time_elapsed":550065,"internal_node_id":"0.0-5.0-39.0"},{"rt":4218.60000000149,"responses":"{\"pregunta8\":\"a) El concepto de normalidad es diferente para un psiquiatra que para nosotros.\"}","question_order":"[0]","trial_type":"survey-multi-choice","trial_index":45,"time_elapsed":554287,"internal_node_id":"0.0-5.0-40.0"},{"rt":3347.39999999851,"response":{"pregunta8 likert":3},"question_order":[0],"trial_type":"survey-likert","trial_index":46,"time_elapsed":557637,"internal_node_id":"0.0-5.0-41.0"},{"rt":2564.10000000149,"responses":"{\"pregunta19\":\"c) son propensas a fertilizar in vitro.\"}","question_order":"[0]","trial_type":"survey-multi-choice","trial_index":47,"time_elapsed":560205,"internal_node_id":"0.0-5.0-42.0"},{"rt":3548.2000000029802,"response":{"pregunta19 likert":2},"question_order":[0],"trial_type":"survey-likert","trial_index":48,"time_elapsed":563757,"internal_node_id":"0.0-5.0-43.0"},{"rt":5263.20000000298,"responses":"{\"pregunta6\":\"c) Presentar positivamente las diversas tendencias del diseño de interiores a través de un comentario.\"}","question_order":"[0]","trial_type":"survey-multi-choice","trial_index":49,"time_elapsed":569024,"internal_node_id":"0.0-5.0-44.0"},{"rt":3611.699999999255,"response":{"pregunta6 likert":1},"question_order":[0],"trial_type":"survey-likert","trial_index":50,"time_elapsed":572641,"internal_node_id":"0.0-5.0-45.0"},{"rt":3556.699999999255,"responses":"{\"pregunta18\":\"c) La publicidad es dañina para sus receptores.\"}","question_order":"[0]","trial_type":"survey-multi-choice","trial_index":51,"time_elapsed":576204,"internal_node_id":"0.0-5.0-46.0"},{"rt":2062,"response":{"pregunta18 likert":3},"question_order":[0],"trial_type":"survey-likert","trial_index":52,"time_elapsed":578269,"internal_node_id":"0.0-5.0-47.0"}]