[{"rt":181131.56499993056,"stimulus":"<h1 style=\"color:red; margin-top: 3%;\">¡Bienvenido(a)!</h1><p style=\"text-align:left; justify-content:space-between; margin-right: 5%; margin-left: 5%; margin-top: 5%\"> Antes de empezar el estudio, necesitamos que nos confirmes que estás de acuerdo con participar. Recuerda que tu participación es 100% voluntaria y que lo único que te pedimos es responder lo mejor que puedas. Recuerda también que el estudio incluye:</p><ol style=\"text-align:left; justify-content:space-between; margin-right: 5%; margin-left: 5%;\"><li> un ejercicio de resolución de preguntas de selección múltiple (30’),</li><li>un cuestionario breve (5’),</li><li>un juego muy breve (3’),</li></ol><p style=\"text-align:left; justify-content:space-between; margin-right: 5%; margin-left: 5%;\">Si quieres participar, haz clic en “Acepto” luego de leer lo siguiente:<br></p><p style=\"text-align:left; justify-content:space-between; margin-right: 5%; margin-left: 5%;\">Acepto participar en el estudio “Estrategias de lectura y resolución de preguntas de selección múltiple”, en los términos aquí señalados:<br></p><p style=\"text-align:left; justify-content:space-between; margin-right: 5%; margin-left: 5%;\"><a href=\"http://ciae.uchile.cl/download.php?file=noticias/Asentimiento.pdf\" target=\"_blank\">Link a la hoja de información del Consentimiento.</a></p><p style=\"text-align:left; justify-content:space-between; margin-right: 5%; margin-left: 5%;\">Declaro que he leído (o se me ha leído) y (he) comprendido, las condiciones de mi participación en este estudio. He tenido la oportunidad de hacer preguntas y éstas han sido respondidas. No tengo dudas al respecto.</p>","response":0,"condicion_MCQ":1,"condicion_JUEGO":13,"condicion_INTER":13,"numero_participante":37,"numero_version":1,"dimx":1366,"dimy":768,"color_profundidad":24,"pixel_profundidad":24,"Browser":"Google Chrome","dia":3,"mes":5,"hora":22,"minuto":51,"segundo":13,"trial_type":"html-button-response","trial_index":0,"time_elapsed":181139,"internal_node_id":"0.0-0.0"},{"success":true,"trial_type":"fullscreen","trial_index":1,"time_elapsed":195951,"internal_node_id":"0.0-1.0"},{"rt":79375.09000021964,"responses":"{\"Nombres\":\"Rebeca Macarena \",\"Apellidos\":\"Paredes Villagra\",\"Edad\":\"18\",\"Sexo\":\"Mujer \",\"Curso\":\"Sección 205\",\"Colegio\":\"Andres Bello \",\"Contacto\":\"Paredesrebeca2003@gmail.com\"}","trial_type":"survey-text","trial_index":2,"time_elapsed":275339,"internal_node_id":"0.0-2.0"},{"success":true,"timeout":false,"failed_images":[],"failed_audio":[],"failed_video":[],"trial_type":"preload","trial_index":3,"time_elapsed":276878,"internal_node_id":"0.0-3.0"},{"rt":26783.390000462532,"stimulus":"<h1 style:\"margin-top: 5%;\">Ejercicios de Comprensión de Lectura de la Universidad de Chile</h1><p style=\"font-size: 120%;\">En esta actividad, debes responder 24 preguntas de selección múltiple. Cada pregunta presenta 4 respuestas alternativas, pero sólo una de ellas es correcta. Por lo tanto, debes escoger una sola alternativa para cada pregunta. Además, debes reportar qué tan seguro(a) estás de la respuesta que das, con un:</p><ol style=\"font-size: 120%;text-align:left;margin-left: 40%;\"><li>No estoy seguro(a) para nada</li><li>No estoy muy seguro(a)</li><li>Estoy bastante seguro(a)</li><li>Estoy totalmente seguro(a)</li></ol><p style=\"font-size: 120%;\">Por favor lee bien los enunciados antes de responder. ¡Éxito!</p>","response":0,"trial_type":"html-button-response","trial_index":4,"time_elapsed":303662,"internal_node_id":"0.0-4.0"},{"rt":67242.2050004825,"responses":"{\"pregunta14\":\"a) el mejor emperador es el que está muerto.\"}","question_order":"[0]","trial_type":"survey-multi-choice","trial_index":5,"time_elapsed":370906,"internal_node_id":"0.0-5.0-0.0"},{"rt":2890.3999999165535,"response":{"pregunta14 likert":3},"question_order":[0],"trial_type":"survey-likert","trial_index":6,"time_elapsed":373798,"internal_node_id":"0.0-5.0-1.0"},{"rt":114118.97499952465,"responses":"{\"pregunta23\":\"d) el jardinero estará muerto al día siguiente.\"}","question_order":"[0]","trial_type":"survey-multi-choice","trial_index":7,"time_elapsed":487919,"internal_node_id":"0.0-5.0-2.0"},{"rt":12373.789999634027,"response":{"pregunta23 likert":1},"question_order":[0],"trial_type":"survey-likert","trial_index":8,"time_elapsed":500294,"internal_node_id":"0.0-5.0-3.0"},{"rt":63050.24500004947,"responses":"{\"pregunta9\":\"c) preparar los recuerdos del mañana.\"}","question_order":"[0]","trial_type":"survey-multi-choice","trial_index":9,"time_elapsed":563344,"internal_node_id":"0.0-5.0-4.0"},{"rt":2698.699999600649,"response":{"pregunta9 likert":3},"question_order":[0],"trial_type":"survey-likert","trial_index":10,"time_elapsed":566045,"internal_node_id":"0.0-5.0-5.0"},{"rt":85478.09499967843,"responses":"{\"pregunta4\":\"b) En la literatura como en la vida, lo importante son las preguntas.\"}","question_order":"[0]","trial_type":"survey-multi-choice","trial_index":11,"time_elapsed":651526,"internal_node_id":"0.0-5.0-6.0"},{"rt":2739.165000617504,"response":{"pregunta4 likert":3},"question_order":[0],"trial_type":"survey-likert","trial_index":12,"time_elapsed":654266,"internal_node_id":"0.0-5.0-7.0"},{"rt":105182.76999983937,"responses":"{\"pregunta7\":\"a) es una realidad discutida por algunos.\"}","question_order":"[0]","trial_type":"survey-multi-choice","trial_index":13,"time_elapsed":759450,"internal_node_id":"0.0-5.0-8.0"},{"rt":4522.140000015497,"response":{"pregunta7 likert":2},"question_order":[0],"trial_type":"survey-likert","trial_index":14,"time_elapsed":763973,"internal_node_id":"0.0-5.0-9.0"},{"rt":106322.6250000298,"responses":"{\"pregunta11\":\"c) Poner en escena objetos y servicios.\"}","question_order":"[0]","trial_type":"survey-multi-choice","trial_index":15,"time_elapsed":870297,"internal_node_id":"0.0-5.0-10.0"},{"rt":2250.345000065863,"response":{"pregunta11 likert":1},"question_order":[0],"trial_type":"survey-likert","trial_index":16,"time_elapsed":872549,"internal_node_id":"0.0-5.0-11.0"},{"rt":86394.89500038326,"responses":"{\"pregunta13\":\"b) A la inutilidad de tanto esfuerzo si el objetivo es el reposo.\"}","question_order":"[0]","trial_type":"survey-multi-choice","trial_index":17,"time_elapsed":958945,"internal_node_id":"0.0-5.0-12.0"},{"rt":2499.184999614954,"response":{"pregunta13 likert":1},"question_order":[0],"trial_type":"survey-likert","trial_index":18,"time_elapsed":961445,"internal_node_id":"0.0-5.0-13.0"},{"rt":78586.38999983668,"responses":"{\"pregunta21\":\"d) El TLC causará una completa transformación de la economía chilena.\"}","question_order":"[0]","trial_type":"survey-multi-choice","trial_index":19,"time_elapsed":1040033,"internal_node_id":"0.0-5.0-14.0"},{"rt":3042.925000190735,"response":{"pregunta21 likert":3},"question_order":[0],"trial_type":"survey-likert","trial_index":20,"time_elapsed":1043078,"internal_node_id":"0.0-5.0-15.0"},{"rt":29754.23500034958,"responses":"{\"pregunta16\":\"b) Bomberos debería tener acceso a un seguro médico, al que pueda recurrir en caso de accidente.\"}","question_order":"[0]","trial_type":"survey-multi-choice","trial_index":21,"time_elapsed":1072833,"internal_node_id":"0.0-5.0-16.0"},{"rt":2971.0100004449487,"response":{"pregunta16 likert":3},"question_order":[0],"trial_type":"survey-likert","trial_index":22,"time_elapsed":1075805,"internal_node_id":"0.0-5.0-17.0"},{"rt":82046.47000040859,"responses":"{\"pregunta2\":\"b) A la relación entre civilización y sociedad.\"}","question_order":"[0]","trial_type":"survey-multi-choice","trial_index":23,"time_elapsed":1157850,"internal_node_id":"0.0-5.0-18.0"},{"rt":6990.954999811947,"response":{"pregunta2 likert":0},"question_order":[0],"trial_type":"survey-likert","trial_index":24,"time_elapsed":1164842,"internal_node_id":"0.0-5.0-19.0"},{"rt":59246.27000000328,"responses":"{\"pregunta17\":\"c) A la inexistencia de un recinto adecuado para el recital.\"}","question_order":"[0]","trial_type":"survey-multi-choice","trial_index":25,"time_elapsed":1224086,"internal_node_id":"0.0-5.0-20.0"},{"rt":2770.940000191331,"response":{"pregunta17 likert":3},"question_order":[0],"trial_type":"survey-likert","trial_index":26,"time_elapsed":1226858,"internal_node_id":"0.0-5.0-21.0"},{"rt":74294.59000006318,"responses":"{\"pregunta12\":\"d) Homenajear a quienes murieron.\"}","question_order":"[0]","trial_type":"survey-multi-choice","trial_index":27,"time_elapsed":1301161,"internal_node_id":"0.0-5.0-22.0"},{"rt":2239.0000000596046,"response":{"pregunta12 likert":3},"question_order":[0],"trial_type":"survey-likert","trial_index":28,"time_elapsed":1303401,"internal_node_id":"0.0-5.0-23.0"},{"rt":89830.33500052989,"responses":"{\"pregunta15\":\"a) el uranio es el elemento natural con el mayor número de protones en el núcleo.\"}","question_order":"[0]","trial_type":"survey-multi-choice","trial_index":29,"time_elapsed":1393233,"internal_node_id":"0.0-5.0-24.0"},{"rt":2158.719999715686,"response":{"pregunta15 likert":3},"question_order":[0],"trial_type":"survey-likert","trial_index":30,"time_elapsed":1395393,"internal_node_id":"0.0-5.0-25.0"},{"rt":112862.25500050932,"responses":"{\"pregunta5\":\"b) Los momentos triviales de los viajes, en la escritura se vuelven significativos.\"}","question_order":"[0]","trial_type":"survey-multi-choice","trial_index":31,"time_elapsed":1508257,"internal_node_id":"0.0-5.0-26.0"},{"rt":3670.2399998903275,"response":{"pregunta5 likert":1},"question_order":[0],"trial_type":"survey-likert","trial_index":32,"time_elapsed":1511928,"internal_node_id":"0.0-5.0-27.0"},{"rt":66111.22000031173,"responses":"{\"pregunta10\":\"d) ritualistas y obsesivos.\"}","question_order":"[0]","trial_type":"survey-multi-choice","trial_index":33,"time_elapsed":1578040,"internal_node_id":"0.0-5.0-28.0"},{"rt":2035.1200001314282,"response":{"pregunta10 likert":3},"question_order":[0],"trial_type":"survey-likert","trial_index":34,"time_elapsed":1580077,"internal_node_id":"0.0-5.0-29.0"},{"rt":143930.86999934167,"responses":"{\"pregunta6\":\"a) Criticar la mezcla de estilos que se puede observar en la muestra que exhibe Casa Mater.\"}","question_order":"[0]","trial_type":"survey-multi-choice","trial_index":35,"time_elapsed":1724009,"internal_node_id":"0.0-5.0-30.0"},{"rt":4034.0249994769692,"response":{"pregunta6 likert":2},"question_order":[0],"trial_type":"survey-likert","trial_index":36,"time_elapsed":1728045,"internal_node_id":"0.0-5.0-31.0"},{"rt":116362.5600002706,"responses":"{\"pregunta8\":\"b) El concepto de normalidad es diferente para un psiquiatra que para nosotros.\"}","question_order":"[0]","trial_type":"survey-multi-choice","trial_index":37,"time_elapsed":1844408,"internal_node_id":"0.0-5.0-32.0"},{"rt":1954.3800000101328,"response":{"pregunta8 likert":1},"question_order":[0],"trial_type":"survey-likert","trial_index":38,"time_elapsed":1846364,"internal_node_id":"0.0-5.0-33.0"},{"rt":93810.48499979079,"responses":"{\"pregunta20\":\"b) el sujeto sufre con su modo de vida.\"}","question_order":"[0]","trial_type":"survey-multi-choice","trial_index":39,"time_elapsed":1940176,"internal_node_id":"0.0-5.0-34.0"},{"rt":5462.890000082552,"response":{"pregunta20 likert":1},"question_order":[0],"trial_type":"survey-likert","trial_index":40,"time_elapsed":1945640,"internal_node_id":"0.0-5.0-35.0"},{"rt":88190.48999994993,"responses":"{\"pregunta19\":\"c) sufren dolores de espalda.\"}","question_order":"[0]","trial_type":"survey-multi-choice","trial_index":41,"time_elapsed":2033832,"internal_node_id":"0.0-5.0-36.0"},{"rt":2354.484999552369,"response":{"pregunta19 likert":3},"question_order":[0],"trial_type":"survey-likert","trial_index":42,"time_elapsed":2036188,"internal_node_id":"0.0-5.0-37.0"},{"rt":42742.91000049561,"responses":"{\"pregunta24\":\"d) para el mexicano, la muerte es cotidiana.\"}","question_order":"[0]","trial_type":"survey-multi-choice","trial_index":43,"time_elapsed":2078932,"internal_node_id":"0.0-5.0-38.0"},{"rt":2858.54500066489,"response":{"pregunta24 likert":2},"question_order":[0],"trial_type":"survey-likert","trial_index":44,"time_elapsed":2081792,"internal_node_id":"0.0-5.0-39.0"},{"rt":76626.08500011265,"responses":"{\"pregunta1\":\"a) Aportan informaciones con las que se reconstruye el personaje dentro de un relato.\"}","question_order":"[0]","trial_type":"survey-multi-choice","trial_index":45,"time_elapsed":2158419,"internal_node_id":"0.0-5.0-40.0"},{"rt":2530.8150006458163,"response":{"pregunta1 likert":2},"question_order":[0],"trial_type":"survey-likert","trial_index":46,"time_elapsed":2160951,"internal_node_id":"0.0-5.0-41.0"},{"rt":45014.664999209344,"responses":"{\"pregunta3\":\"d) El inicio de la dinastía Chang.\"}","question_order":"[0]","trial_type":"survey-multi-choice","trial_index":47,"time_elapsed":2205968,"internal_node_id":"0.0-5.0-42.0"},{"rt":2046.424999833107,"response":{"pregunta3 likert":3},"question_order":[0],"trial_type":"survey-likert","trial_index":48,"time_elapsed":2208015,"internal_node_id":"0.0-5.0-43.0"},{"rt":45426.965000107884,"responses":"{\"pregunta22\":\"d) Se necesita un marco legal para delimitar lo público y lo privado en materia informativa.\"}","question_order":"[0]","trial_type":"survey-multi-choice","trial_index":49,"time_elapsed":2253444,"internal_node_id":"0.0-5.0-44.0"},{"rt":2162.3450005427003,"response":{"pregunta22 likert":3},"question_order":[0],"trial_type":"survey-likert","trial_index":50,"time_elapsed":2255608,"internal_node_id":"0.0-5.0-45.0"},{"rt":83986.26000061631,"responses":"{\"pregunta18\":\"b) El receptor es habitualmente pasivo frente a la publicidad.\"}","question_order":"[0]","trial_type":"survey-multi-choice","trial_index":51,"time_elapsed":2339596,"internal_node_id":"0.0-5.0-46.0"},{"rt":2722.400000318885,"response":{"pregunta18 likert":1},"question_order":[0],"trial_type":"survey-likert","trial_index":52,"time_elapsed":2342319,"internal_node_id":"0.0-5.0-47.0"}]