[{"rt":9878.44000000041,"stimulus":"<h1 style=\"color:red; margin-top: 3%;\">¡Bienvenido(a)!</h1><p style=\"text-align:left; justify-content:space-between; margin-right: 5%; margin-left: 5%; margin-top: 5%\"> Antes de empezar el estudio, necesitamos que nos confirmes que estás de acuerdo con participar. Recuerda que tu participación es 100% voluntaria y que lo único que te pedimos es responder lo mejor que puedas. Recuerda también que el estudio incluye:</p><ol style=\"text-align:left; justify-content:space-between; margin-right: 5%; margin-left: 5%;\"><li> un ejercicio de resolución de preguntas de selección múltiple (30’),</li><li>un cuestionario breve (5’),</li><li>un juego muy breve (3’),</li></ol><p style=\"text-align:left; justify-content:space-between; margin-right: 5%; margin-left: 5%;\">Si quieres participar, haz clic en “Acepto” luego de leer lo siguiente:<br></p><p style=\"text-align:left; justify-content:space-between; margin-right: 5%; margin-left: 5%;\">Acepto participar en el estudio “Estrategias de lectura y resolución de preguntas de selección múltiple”, en los términos aquí señalados:<br></p><p style=\"text-align:left; justify-content:space-between; margin-right: 5%; margin-left: 5%;\"><a href=\"http://ciae.uchile.cl/download.php?file=noticias/Asentimiento.pdf\" target=\"_blank\">Link a la hoja de información del Consentimiento.</a></p><p style=\"text-align:left; justify-content:space-between; margin-right: 5%; margin-left: 5%;\">Declaro que he leído (o se me ha leído) y (he) comprendido, las condiciones de mi participación en este estudio. He tenido la oportunidad de hacer preguntas y éstas han sido respondidas. No tengo dudas al respecto.</p>","response":0,"condicion_MCQ":10,"condicion_JUEGO":22,"condicion_INTER":22,"numero_participante":22,"numero_version":2,"dimx":1366,"dimy":768,"color_profundidad":24,"pixel_profundidad":24,"Browser":"Google Chrome","dia":3,"mes":5,"hora":10,"minuto":56,"segundo":14,"trial_type":"html-button-response","trial_index":0,"time_elapsed":9892,"internal_node_id":"0.0-0.0"},{"success":true,"trial_type":"fullscreen","trial_index":1,"time_elapsed":12637,"internal_node_id":"0.0-1.0"},{"rt":94484.82499999227,"responses":"{\"Nombres\":\"Bárbara Macarena\",\"Apellidos\":\"Jerez Figueroa\",\"Edad\":\"18\",\"Sexo\":\"Mujer\",\"Curso\":\"Sección 204\",\"Colegio\":\"Universidad Andrés Bello\",\"Contacto\":\"b.jerezfigueroa@uandresbello.edu\"}","trial_type":"survey-text","trial_index":2,"time_elapsed":107154,"internal_node_id":"0.0-2.0"},{"success":true,"timeout":false,"failed_images":[],"failed_audio":[],"failed_video":[],"trial_type":"preload","trial_index":3,"time_elapsed":109825,"internal_node_id":"0.0-3.0"},{"rt":17015.79999999376,"stimulus":"<h1 style:\"margin-top: 5%;\">Ejercicios de Comprensión de Lectura de la Universidad de Chile</h1><p style=\"font-size: 120%;\">En esta actividad, debes responder 24 preguntas de selección múltiple. Cada pregunta presenta 4 respuestas alternativas, pero sólo una de ellas es correcta. Por lo tanto, debes escoger una sola alternativa para cada pregunta. Además, debes reportar qué tan seguro(a) estás de la respuesta que das, con un:</p><ol style=\"font-size: 120%;text-align:left;margin-left: 40%;\"><li>No estoy seguro(a) para nada</li><li>No estoy muy seguro(a)</li><li>Estoy bastante seguro(a)</li><li>Estoy totalmente seguro(a)</li></ol><p style=\"font-size: 120%;\">Por favor lee bien los enunciados antes de responder. ¡Éxito!</p>","response":0,"trial_type":"html-button-response","trial_index":4,"time_elapsed":126847,"internal_node_id":"0.0-4.0"},{"rt":78352.24999999627,"responses":"{\"pregunta15\":\"d) el uranio es el elemento natural con el mayor número de protones en el núcleo.\"}","question_order":"[0]","trial_type":"survey-multi-choice","trial_index":5,"time_elapsed":205204,"internal_node_id":"0.0-5.0-0.0"},{"rt":4578.7750000017695,"response":{"pregunta15 likert":2},"question_order":[0],"trial_type":"survey-likert","trial_index":6,"time_elapsed":209791,"internal_node_id":"0.0-5.0-1.0"},{"rt":97017.14999999967,"responses":"{\"pregunta12\":\"c) Homenajear a quienes murieron.\"}","question_order":"[0]","trial_type":"survey-multi-choice","trial_index":7,"time_elapsed":306814,"internal_node_id":"0.0-5.0-2.0"},{"rt":3711.4850000070874,"response":{"pregunta12 likert":3},"question_order":[0],"trial_type":"survey-likert","trial_index":8,"time_elapsed":310531,"internal_node_id":"0.0-5.0-3.0"},{"rt":104092.39999999409,"responses":"{\"pregunta3\":\"c) El inicio de la dinastía Chang.\"}","question_order":"[0]","trial_type":"survey-multi-choice","trial_index":9,"time_elapsed":414628,"internal_node_id":"0.0-5.0-4.0"},{"rt":2568.6449999921024,"response":{"pregunta3 likert":2},"question_order":[0],"trial_type":"survey-likert","trial_index":10,"time_elapsed":417201,"internal_node_id":"0.0-5.0-5.0"},{"rt":84044.84499999671,"responses":"{\"pregunta14\":\"c) sólo las leyes bastan para gobernarse.\"}","question_order":"[0]","trial_type":"survey-multi-choice","trial_index":11,"time_elapsed":501251,"internal_node_id":"0.0-5.0-6.0"},{"rt":4078.204999997979,"response":{"pregunta14 likert":1},"question_order":[0],"trial_type":"survey-likert","trial_index":12,"time_elapsed":505334,"internal_node_id":"0.0-5.0-7.0"},{"rt":83079.99500000733,"responses":"{\"pregunta2\":\"b) A la relación entre sociedad y constitución social.\"}","question_order":"[0]","trial_type":"survey-multi-choice","trial_index":13,"time_elapsed":588420,"internal_node_id":"0.0-5.0-8.0"},{"rt":2435.6900000129826,"response":{"pregunta2 likert":2},"question_order":[0],"trial_type":"survey-likert","trial_index":14,"time_elapsed":590861,"internal_node_id":"0.0-5.0-9.0"},{"rt":88219.29000000819,"responses":"{\"pregunta13\":\"d) Al premio merecido después de tantos esfuerzos.\"}","question_order":"[0]","trial_type":"survey-multi-choice","trial_index":15,"time_elapsed":679084,"internal_node_id":"0.0-5.0-10.0"},{"rt":42394.87499999814,"response":{"pregunta13 likert":2},"question_order":[0],"trial_type":"survey-likert","trial_index":16,"time_elapsed":721486,"internal_node_id":"0.0-5.0-11.0"},{"rt":65581.59499999601,"responses":"{\"pregunta1\":\"d) Aportan informaciones con las que se reconstruye el personaje dentro de un relato.\"}","question_order":"[0]","trial_type":"survey-multi-choice","trial_index":17,"time_elapsed":787072,"internal_node_id":"0.0-5.0-12.0"},{"rt":5475.204999995185,"response":{"pregunta1 likert":3},"question_order":[0],"trial_type":"survey-likert","trial_index":18,"time_elapsed":792551,"internal_node_id":"0.0-5.0-13.0"},{"rt":188157.51999997883,"responses":"{\"pregunta4\":\"a) En la literatura como en la vida, lo importante son las preguntas.\"}","question_order":"[0]","trial_type":"survey-multi-choice","trial_index":19,"time_elapsed":980714,"internal_node_id":"0.0-5.0-14.0"},{"rt":5698.440000007395,"response":{"pregunta4 likert":0},"question_order":[0],"trial_type":"survey-likert","trial_index":20,"time_elapsed":986417,"internal_node_id":"0.0-5.0-15.0"},{"rt":47356.93499998888,"responses":"{\"pregunta24\":\"c) para el mexicano, la muerte es cotidiana.\"}","question_order":"[0]","trial_type":"survey-multi-choice","trial_index":21,"time_elapsed":1033779,"internal_node_id":"0.0-5.0-16.0"},{"rt":2807.759999996051,"response":{"pregunta24 likert":2},"question_order":[0],"trial_type":"survey-likert","trial_index":22,"time_elapsed":1036589,"internal_node_id":"0.0-5.0-17.0"},{"rt":88648.0300000112,"responses":"{\"pregunta5\":\"a) Los momentos triviales de los viajes, en la escritura se vuelven significativos.\"}","question_order":"[0]","trial_type":"survey-multi-choice","trial_index":23,"time_elapsed":1125244,"internal_node_id":"0.0-5.0-18.0"},{"rt":2669.579999987036,"response":{"pregunta5 likert":2},"question_order":[0],"trial_type":"survey-likert","trial_index":24,"time_elapsed":1127918,"internal_node_id":"0.0-5.0-19.0"},{"rt":116842.22500000033,"responses":"{\"pregunta7\":\"b) se da como existente, y sólo se discute su relación con el cuerpo.\"}","question_order":"[0]","trial_type":"survey-multi-choice","trial_index":25,"time_elapsed":1244764,"internal_node_id":"0.0-5.0-20.0"},{"rt":2609.505000000354,"response":{"pregunta7 likert":0},"question_order":[0],"trial_type":"survey-likert","trial_index":26,"time_elapsed":1247378,"internal_node_id":"0.0-5.0-21.0"},{"rt":161153.0550000025,"responses":"{\"pregunta22\":\"a) El derecho a informar y el derecho a la privacidad son inconciliables.\"}","question_order":"[0]","trial_type":"survey-multi-choice","trial_index":27,"time_elapsed":1408539,"internal_node_id":"0.0-5.0-22.0"},{"rt":2962.1850000112318,"response":{"pregunta22 likert":3},"question_order":[0],"trial_type":"survey-likert","trial_index":28,"time_elapsed":1411505,"internal_node_id":"0.0-5.0-23.0"},{"rt":75821.17499999003,"responses":"{\"pregunta9\":\"d) un recuerdo nostálgico.\"}","question_order":"[0]","trial_type":"survey-multi-choice","trial_index":29,"time_elapsed":1487330,"internal_node_id":"0.0-5.0-24.0"},{"rt":19350.81000000355,"response":{"pregunta9 likert":2},"question_order":[0],"trial_type":"survey-likert","trial_index":30,"time_elapsed":1506686,"internal_node_id":"0.0-5.0-25.0"},{"rt":114922.90000000503,"responses":"{\"pregunta17\":\"a) A la influencia de grupos que rechazaban su música.\"}","question_order":"[0]","trial_type":"survey-multi-choice","trial_index":31,"time_elapsed":1621614,"internal_node_id":"0.0-5.0-26.0"},{"rt":7343.965000007302,"response":{"pregunta17 likert":3},"question_order":[0],"trial_type":"survey-likert","trial_index":32,"time_elapsed":1628963,"internal_node_id":"0.0-5.0-27.0"},{"rt":148473.36500001256,"responses":"{\"pregunta11\":\"b) Deleitar a sus receptores por medio de la belleza y el confort\"}","question_order":"[0]","trial_type":"survey-multi-choice","trial_index":33,"time_elapsed":1777442,"internal_node_id":"0.0-5.0-28.0"},{"rt":2476.5300000144634,"response":{"pregunta11 likert":3},"question_order":[0],"trial_type":"survey-likert","trial_index":34,"time_elapsed":1779923,"internal_node_id":"0.0-5.0-29.0"},{"rt":117992.23500001244,"responses":"{\"pregunta23\":\"b) la Muerte vaticina el futuro mediante gestos.\"}","question_order":"[0]","trial_type":"survey-multi-choice","trial_index":35,"time_elapsed":1897920,"internal_node_id":"0.0-5.0-30.0"},{"rt":2597.36499999417,"response":{"pregunta23 likert":2},"question_order":[0],"trial_type":"survey-likert","trial_index":36,"time_elapsed":1900521,"internal_node_id":"0.0-5.0-31.0"},{"rt":57319.83500000206,"responses":"{\"pregunta21\":\"b) Nuestra economía vivirá un proceso de ajuste a la nueva realidad.\"}","question_order":"[0]","trial_type":"survey-multi-choice","trial_index":37,"time_elapsed":1957846,"internal_node_id":"0.0-5.0-32.0"},{"rt":3155.9800000104588,"response":{"pregunta21 likert":3},"question_order":[0],"trial_type":"survey-likert","trial_index":38,"time_elapsed":1961007,"internal_node_id":"0.0-5.0-33.0"},{"rt":116071.58499999787,"responses":"{\"pregunta19\":\"b) sufren dolores de espalda.\"}","question_order":"[0]","trial_type":"survey-multi-choice","trial_index":39,"time_elapsed":2077084,"internal_node_id":"0.0-5.0-34.0"},{"rt":3337.5899999809917,"response":{"pregunta19 likert":0},"question_order":[0],"trial_type":"survey-likert","trial_index":40,"time_elapsed":2080427,"internal_node_id":"0.0-5.0-35.0"},{"rt":54516.74999998091,"responses":"{\"pregunta8\":\"c) El concepto de normalidad es diferente para un psiquiatra que para nosotros.\"}","question_order":"[0]","trial_type":"survey-multi-choice","trial_index":41,"time_elapsed":2134946,"internal_node_id":"0.0-5.0-36.0"},{"rt":2496.625,"response":{"pregunta8 likert":1},"question_order":[0],"trial_type":"survey-likert","trial_index":42,"time_elapsed":2137447,"internal_node_id":"0.0-5.0-37.0"},{"rt":142842.41499999166,"responses":"{\"pregunta6\":\"c) Orientar la opción estética de un grupo de personas en lo que se refiere a la decoración de interiores.\"}","question_order":"[0]","trial_type":"survey-multi-choice","trial_index":43,"time_elapsed":2280296,"internal_node_id":"0.0-5.0-38.0"},{"rt":13627.299999992829,"response":{"pregunta6 likert":1},"question_order":[0],"trial_type":"survey-likert","trial_index":44,"time_elapsed":2293928,"internal_node_id":"0.0-5.0-39.0"},{"rt":35310.88500001328,"responses":"{\"pregunta16\":\"a) Bomberos debería tener acceso a un seguro médico, al que pueda recurrir en caso de accidente.\"}","question_order":"[0]","trial_type":"survey-multi-choice","trial_index":45,"time_elapsed":2329244,"internal_node_id":"0.0-5.0-40.0"},{"rt":3507.874999980908,"response":{"pregunta16 likert":3},"question_order":[0],"trial_type":"survey-likert","trial_index":46,"time_elapsed":2332756,"internal_node_id":"0.0-5.0-41.0"},{"rt":156537.92499998258,"responses":"{\"pregunta20\":\"b) para Aristóteles la virtud estaba en el justo equilibrio.\"}","question_order":"[0]","trial_type":"survey-multi-choice","trial_index":47,"time_elapsed":2489299,"internal_node_id":"0.0-5.0-42.0"},{"rt":3407.264999987092,"response":{"pregunta20 likert":2},"question_order":[0],"trial_type":"survey-likert","trial_index":48,"time_elapsed":2492712,"internal_node_id":"0.0-5.0-43.0"},{"rt":54548.85999998078,"responses":"{\"pregunta10\":\"c) ritualistas y obsesivos.\"}","question_order":"[0]","trial_type":"survey-multi-choice","trial_index":49,"time_elapsed":2547265,"internal_node_id":"0.0-5.0-44.0"},{"rt":2870.199999975506,"response":{"pregunta10 likert":0},"question_order":[0],"trial_type":"survey-likert","trial_index":50,"time_elapsed":2550140,"internal_node_id":"0.0-5.0-45.0"},{"rt":141310.38999999873,"responses":"{\"pregunta18\":\"a) El receptor es habitualmente pasivo frente a la publicidad.\"}","question_order":"[0]","trial_type":"survey-multi-choice","trial_index":51,"time_elapsed":2691454,"internal_node_id":"0.0-5.0-46.0"},{"rt":3932.34499997925,"response":{"pregunta18 likert":2},"question_order":[0],"trial_type":"survey-likert","trial_index":52,"time_elapsed":2695390,"internal_node_id":"0.0-5.0-47.0"},{"rt":31280.90500002168,"stimulus":"<p style=\"font-size: 120%\">Gracias por completar esta etapa del estudio. Ahora te invitamos a responder el cuestionario.<br><br></p>","response":0,"trial_type":"html-button-response","trial_index":53,"time_elapsed":2726685,"internal_node_id":"0.0-6.0"},{"rt":18217.654999985825,"stimulus":"<h1 style=\"margin-top: 5%\">Cuestionario para la Evaluación de Metas Académicas</h1><p style=\"font-size: 120%; margin-left: 3%; margin-top: 5%\">Este es un cuestionario que permite conocer cuáles son los principales motivos por los que los estudiantes se esfuerzan en su trabajo académico. A continuación, se te presentarán una serie de afirmaciones acerca de los motivos que puedes tener para estudiar.<br>Te pedimos que contestes a dichas afirmaciones reflexionando sobre el contenido de cada una de ellas, que, aunque te parezcan semejantes, en realidad, no lo son.<br>NO HAY RESPUESTAS CORRECTAS o INCORRECTAS, sólo queremos que respondas con la mayor precisión y sinceridad posible a las preguntas que se plantean.","response":0,"trial_type":"html-button-response","trial_index":54,"time_elapsed":2744902,"internal_node_id":"0.0-7.0"},{"rt":100074.369999988,"response":{"Metas cuestionario pregunta1":3,"Metas cuestionario pregunta2":4,"Metas cuestionario pregunta3":3,"Metas cuestionario pregunta4":2,"Metas cuestionario pregunta5":4,"Metas cuestionario pregunta6":3,"Metas cuestionario pregunta7":4,"Metas cuestionario pregunta8":3,"Metas cuestionario pregunta9":2,"Metas cuestionario pregunta10":2,"Metas cuestionario pregunta11":0,"Metas cuestionario pregunta12":3,"Metas cuestionario pregunta13":1,"Metas cuestionario pregunta14":0,"Metas cuestionario pregunta15":4,"Metas cuestionario pregunta16":4,"Metas cuestionario pregunta17":3,"Metas cuestionario pregunta18":4,"Metas cuestionario pregunta19":4,"Metas cuestionario pregunta20":4},"question_order":[0,1,2,3,4,5,6,7,8,9,10,11,12,13,14,15,16,17,18,19],"trial_type":"survey-likert","trial_index":55,"time_elapsed":2844999,"internal_node_id":"0.0-8.0"}]