[{"rt":66998681.400000036,"stimulus":"<h1 style=\"color:red; margin-top: 3%;\">¡Bienvenido(a)!</h1><p style=\"text-align:left; justify-content:space-between; margin-right: 5%; margin-left: 5%; margin-top: 5%\"> Antes de empezar el estudio, necesitamos que nos confirmes que estás de acuerdo con participar. Recuerda que tu participación es 100% voluntaria y que lo único que te pedimos es responder lo mejor que puedas. Recuerda también que el estudio incluye:</p><ol style=\"text-align:left; justify-content:space-between; margin-right: 5%; margin-left: 5%;\"><li> un ejercicio de resolución de preguntas de selección múltiple (30’),</li><li>un cuestionario breve (5’),</li><li>un juego muy breve (3’),</li></ol><p style=\"text-align:left; justify-content:space-between; margin-right: 5%; margin-left: 5%;\">Si quieres participar, haz clic en “Acepto” luego de leer lo siguiente:<br></p><p style=\"text-align:left; justify-content:space-between; margin-right: 5%; margin-left: 5%;\">Acepto participar en el estudio “Estrategias de lectura y resolución de preguntas de selección múltiple”, en los términos aquí señalados:<br></p><p style=\"text-align:left; justify-content:space-between; margin-right: 5%; margin-left: 5%;\"><a href=\"http://ciae.uchile.cl/download.php?file=noticias/Asentimiento.pdf\" target=\"_blank\">Link a la hoja de información del Consentimiento.</a></p><p style=\"text-align:left; justify-content:space-between; margin-right: 5%; margin-left: 5%;\">Declaro que he leído (o se me ha leído) y (he) comprendido, las condiciones de mi participación en este estudio. He tenido la oportunidad de hacer preguntas y éstas han sido respondidas. No tengo dudas al respecto.</p>","response":0,"condicion_MCQ":3,"condicion_JUEGO":15,"condicion_INTER":15,"numero_participante":39,"numero_version":4,"dimx":1536,"dimy":864,"color_profundidad":24,"pixel_profundidad":24,"Browser":"Google Chrome","dia":7,"mes":5,"hora":23,"minuto":31,"segundo":0,"trial_type":"html-button-response","trial_index":0,"time_elapsed":66993841,"internal_node_id":"0.0-0.0"},{"success":true,"trial_type":"fullscreen","trial_index":1,"time_elapsed":67003933,"internal_node_id":"0.0-1.0"},{"rt":136924.30000007153,"responses":"{\"Nombres\":\"Carlos\",\"Apellidos\":\"Martínez\",\"Edad\":\"19\",\"Sexo\":\"hombre\",\"Curso\":\"204\",\"Colegio\":\"universidad andres bello\",\"Contacto\":\"charlymr2002@gmail.com\"}","trial_type":"survey-text","trial_index":2,"time_elapsed":67140869,"internal_node_id":"0.0-2.0"},{"success":true,"timeout":false,"failed_images":[],"failed_audio":[],"failed_video":[],"trial_type":"preload","trial_index":3,"time_elapsed":67144382,"internal_node_id":"0.0-3.0"},{"rt":138851.30000007153,"stimulus":"<h1 style:\"margin-top: 5%;\">Ejercicios de Comprensión de Lectura de la Universidad de Chile</h1><p style=\"font-size: 120%;\">En esta actividad, debes responder 24 preguntas de selección múltiple. Cada pregunta presenta 4 respuestas alternativas, pero sólo una de ellas es correcta. Por lo tanto, debes escoger una sola alternativa para cada pregunta. Además, debes reportar qué tan seguro(a) estás de la respuesta que das, con un:</p><ol style=\"font-size: 120%;text-align:left;margin-left: 40%;\"><li>No estoy seguro(a) para nada</li><li>No estoy muy seguro(a)</li><li>Estoy bastante seguro(a)</li><li>Estoy totalmente seguro(a)</li></ol><p style=\"font-size: 120%;\">Por favor lee bien los enunciados antes de responder. ¡Éxito!</p>","response":0,"trial_type":"html-button-response","trial_index":4,"time_elapsed":67283233,"internal_node_id":"0.0-4.0"},{"rt":47495.39999997616,"responses":"{\"pregunta21\":\"b) El TLC causará una completa transformación de la economía chilena.\"}","question_order":"[0]","trial_type":"survey-multi-choice","trial_index":5,"time_elapsed":67330731,"internal_node_id":"0.0-5.0-0.0"},{"rt":13218,"response":{"pregunta21 likert":1},"question_order":[0],"trial_type":"survey-likert","trial_index":6,"time_elapsed":67343954,"internal_node_id":"0.0-5.0-1.0"},{"rt":132644.29999995232,"responses":"{\"pregunta14\":\"c) el Primer Ministro debía morir por ambicioso.\"}","question_order":"[0]","trial_type":"survey-multi-choice","trial_index":7,"time_elapsed":67476595,"internal_node_id":"0.0-5.0-2.0"},{"rt":3569.399999976158,"response":{"pregunta14 likert":2},"question_order":[0],"trial_type":"survey-likert","trial_index":8,"time_elapsed":67480167,"internal_node_id":"0.0-5.0-3.0"},{"rt":81078.79999995232,"responses":"{\"pregunta10\":\"d) ritualistas y obsesivos.\"}","question_order":"[0]","trial_type":"survey-multi-choice","trial_index":9,"time_elapsed":67561247,"internal_node_id":"0.0-5.0-4.0"},{"rt":2762.600000023842,"response":{"pregunta10 likert":1},"question_order":[0],"trial_type":"survey-likert","trial_index":10,"time_elapsed":67564012,"internal_node_id":"0.0-5.0-5.0"},{"rt":117737,"responses":"{\"pregunta15\":\"b) el uranio es el elemento natural con el mayor número de protones en el núcleo.\"}","question_order":"[0]","trial_type":"survey-multi-choice","trial_index":11,"time_elapsed":67681753,"internal_node_id":"0.0-5.0-6.0"},{"rt":4755.399999976158,"response":{"pregunta15 likert":2},"question_order":[0],"trial_type":"survey-likert","trial_index":12,"time_elapsed":67686512,"internal_node_id":"0.0-5.0-7.0"},{"rt":67256.59999990463,"responses":"{\"pregunta17\":\"c) A la influencia de grupos que rechazaban su música.\"}","question_order":"[0]","trial_type":"survey-multi-choice","trial_index":13,"time_elapsed":67753772,"internal_node_id":"0.0-5.0-8.0"},{"rt":2989.399999976158,"response":{"pregunta17 likert":2},"question_order":[0],"trial_type":"survey-likert","trial_index":14,"time_elapsed":67756763,"internal_node_id":"0.0-5.0-9.0"},{"rt":79149.80000007153,"responses":"{\"pregunta18\":\"a) La publicidad ejerce una influencia positiva sobre la sociedad.\"}","question_order":"[0]","trial_type":"survey-multi-choice","trial_index":15,"time_elapsed":67835916,"internal_node_id":"0.0-5.0-10.0"},{"rt":3891.2999999523163,"response":{"pregunta18 likert":3},"question_order":[0],"trial_type":"survey-likert","trial_index":16,"time_elapsed":67839810,"internal_node_id":"0.0-5.0-11.0"},{"rt":65417.10000002384,"responses":"{\"pregunta8\":\"d) El ser humano se comporta de acuerdo con las circunstancias.\"}","question_order":"[0]","trial_type":"survey-multi-choice","trial_index":17,"time_elapsed":67905228,"internal_node_id":"0.0-5.0-12.0"},{"rt":2856.100000023842,"response":{"pregunta8 likert":1},"question_order":[0],"trial_type":"survey-likert","trial_index":18,"time_elapsed":67908086,"internal_node_id":"0.0-5.0-13.0"},{"rt":93816.09999990463,"responses":"{\"pregunta19\":\"d) llevan un control grupal de su embarazo.\"}","question_order":"[0]","trial_type":"survey-multi-choice","trial_index":19,"time_elapsed":68001912,"internal_node_id":"0.0-5.0-14.0"},{"rt":2513.1999999284744,"response":{"pregunta19 likert":1},"question_order":[0],"trial_type":"survey-likert","trial_index":20,"time_elapsed":68004427,"internal_node_id":"0.0-5.0-15.0"},{"rt":36698.799999952316,"responses":"{\"pregunta1\":\"a) Aportan informaciones con las que se reconstruye el personaje dentro de un relato.\"}","question_order":"[0]","trial_type":"survey-multi-choice","trial_index":21,"time_elapsed":68041125,"internal_node_id":"0.0-5.0-16.0"},{"rt":3399.5,"response":{"pregunta1 likert":3},"question_order":[0],"trial_type":"survey-likert","trial_index":22,"time_elapsed":68044527,"internal_node_id":"0.0-5.0-17.0"},{"rt":200589.20000004768,"responses":"{\"pregunta12\":\"c) Atraer a los turistas.\"}","question_order":"[0]","trial_type":"survey-multi-choice","trial_index":23,"time_elapsed":68245120,"internal_node_id":"0.0-5.0-18.0"},{"rt":2286.5,"response":{"pregunta12 likert":2},"question_order":[0],"trial_type":"survey-likert","trial_index":24,"time_elapsed":68247409,"internal_node_id":"0.0-5.0-19.0"},{"rt":81065.40000009537,"responses":"{\"pregunta20\":\"d) para Aristóteles la virtud estaba en el justo equilibrio.\"}","question_order":"[0]","trial_type":"survey-multi-choice","trial_index":25,"time_elapsed":68328478,"internal_node_id":"0.0-5.0-20.0"},{"rt":3080.2999999523163,"response":{"pregunta20 likert":2},"question_order":[0],"trial_type":"survey-likert","trial_index":26,"time_elapsed":68331561,"internal_node_id":"0.0-5.0-21.0"},{"rt":49231.10000002384,"responses":"{\"pregunta4\":\"d) En la literatura como en la vida, todo es metáfora.\"}","question_order":"[0]","trial_type":"survey-multi-choice","trial_index":27,"time_elapsed":68380786,"internal_node_id":"0.0-5.0-22.0"},{"rt":3479.7999999523163,"response":{"pregunta4 likert":1},"question_order":[0],"trial_type":"survey-likert","trial_index":28,"time_elapsed":68384268,"internal_node_id":"0.0-5.0-23.0"},{"rt":6900.600000023842,"responses":"{\"pregunta5\":\"c) Los momentos triviales de los viajes, en la escritura se vuelven significativos.\"}","question_order":"[0]","trial_type":"survey-multi-choice","trial_index":29,"time_elapsed":68391172,"internal_node_id":"0.0-5.0-24.0"},{"rt":3586.8000000715256,"response":{"pregunta5 likert":1},"question_order":[0],"trial_type":"survey-likert","trial_index":30,"time_elapsed":68394761,"internal_node_id":"0.0-5.0-25.0"},{"rt":19428.299999952316,"responses":"{\"pregunta2\":\"a) A la relación entre sociedad y constitución social.\"}","question_order":"[0]","trial_type":"survey-multi-choice","trial_index":31,"time_elapsed":68414191,"internal_node_id":"0.0-5.0-26.0"},{"rt":3810.7999999523163,"response":{"pregunta2 likert":2},"question_order":[0],"trial_type":"survey-likert","trial_index":32,"time_elapsed":68418004,"internal_node_id":"0.0-5.0-27.0"},{"rt":71011.10000002384,"responses":"{\"pregunta6\":\"b) Presentar positivamente las diversas tendencias del diseño de interiores a través de un comentario.\"}","question_order":"[0]","trial_type":"survey-multi-choice","trial_index":33,"time_elapsed":68489021,"internal_node_id":"0.0-5.0-28.0"},{"rt":5603.899999976158,"response":{"pregunta6 likert":2},"question_order":[0],"trial_type":"survey-likert","trial_index":34,"time_elapsed":68494627,"internal_node_id":"0.0-5.0-29.0"},{"rt":57285.59999990463,"responses":"{\"pregunta13\":\"c) Al deseo de privilegiar el ocio por sobre el trabajo.\"}","question_order":"[0]","trial_type":"survey-multi-choice","trial_index":35,"time_elapsed":68551920,"internal_node_id":"0.0-5.0-30.0"},{"rt":3179.1999999284744,"response":{"pregunta13 likert":1},"question_order":[0],"trial_type":"survey-likert","trial_index":36,"time_elapsed":68555102,"internal_node_id":"0.0-5.0-31.0"},{"rt":62144.39999997616,"responses":"{\"pregunta11\":\"b) Deleitar a sus receptores por medio de la belleza y el confort\"}","question_order":"[0]","trial_type":"survey-multi-choice","trial_index":37,"time_elapsed":68617245,"internal_node_id":"0.0-5.0-32.0"},{"rt":4093.7999999523163,"response":{"pregunta11 likert":2},"question_order":[0],"trial_type":"survey-likert","trial_index":38,"time_elapsed":68621341,"internal_node_id":"0.0-5.0-33.0"},{"rt":48634.700000047684,"responses":"{\"pregunta9\":\"b) un recuerdo nostálgico.\"}","question_order":"[0]","trial_type":"survey-multi-choice","trial_index":39,"time_elapsed":68669978,"internal_node_id":"0.0-5.0-34.0"},{"rt":4656.799999952316,"response":{"pregunta9 likert":2},"question_order":[0],"trial_type":"survey-likert","trial_index":40,"time_elapsed":68674636,"internal_node_id":"0.0-5.0-35.0"},{"rt":29204.299999952316,"responses":"{\"pregunta24\":\"a) para el mexicano, la muerte es cotidiana.\"}","question_order":"[0]","trial_type":"survey-multi-choice","trial_index":41,"time_elapsed":68703842,"internal_node_id":"0.0-5.0-36.0"},{"rt":5771.600000023842,"response":{"pregunta24 likert":3},"question_order":[0],"trial_type":"survey-likert","trial_index":42,"time_elapsed":68709616,"internal_node_id":"0.0-5.0-37.0"},{"rt":64463.89999997616,"responses":"{\"pregunta23\":\"a) el jardinero estará muerto al día siguiente.\"}","question_order":"[0]","trial_type":"survey-multi-choice","trial_index":43,"time_elapsed":68774082,"internal_node_id":"0.0-5.0-38.0"},{"rt":2825.399999976158,"response":{"pregunta23 likert":2},"question_order":[0],"trial_type":"survey-likert","trial_index":44,"time_elapsed":68776910,"internal_node_id":"0.0-5.0-39.0"},{"rt":36092.5,"responses":"{\"pregunta16\":\"a) Se debe crear un seguro médico especial para esta institución, pues es de alto riesgo.\"}","question_order":"[0]","trial_type":"survey-multi-choice","trial_index":45,"time_elapsed":68813004,"internal_node_id":"0.0-5.0-40.0"},{"rt":3660.3000000715256,"response":{"pregunta16 likert":3},"question_order":[0],"trial_type":"survey-likert","trial_index":46,"time_elapsed":68816667,"internal_node_id":"0.0-5.0-41.0"},{"rt":47286,"responses":"{\"pregunta3\":\"c) El inicio de la dinastía Chang.\"}","question_order":"[0]","trial_type":"survey-multi-choice","trial_index":47,"time_elapsed":68863959,"internal_node_id":"0.0-5.0-42.0"},{"rt":3761.5,"response":{"pregunta3 likert":2},"question_order":[0],"trial_type":"survey-likert","trial_index":48,"time_elapsed":68867723,"internal_node_id":"0.0-5.0-43.0"},{"rt":36930.700000047684,"responses":"{\"pregunta22\":\"d) Se necesita un marco legal para delimitar lo público y lo privado en materia informativa.\"}","question_order":"[0]","trial_type":"survey-multi-choice","trial_index":49,"time_elapsed":68904656,"internal_node_id":"0.0-5.0-44.0"},{"rt":4603,"response":{"pregunta22 likert":2},"question_order":[0],"trial_type":"survey-likert","trial_index":50,"time_elapsed":68909262,"internal_node_id":"0.0-5.0-45.0"},{"rt":156768.79999995232,"responses":"{\"pregunta7\":\"a) es un concepto introducido en la cultura por Platón.\"}","question_order":"[0]","trial_type":"survey-multi-choice","trial_index":51,"time_elapsed":69066033,"internal_node_id":"0.0-5.0-46.0"},{"rt":4595.399999976158,"response":{"pregunta7 likert":1},"question_order":[0],"trial_type":"survey-likert","trial_index":52,"time_elapsed":69070631,"internal_node_id":"0.0-5.0-47.0"},{"rt":4369.5,"stimulus":"<p style=\"font-size: 120%\">Gracias por completar esta etapa del estudio. Ahora te invitamos a responder el cuestionario.<br><br></p>","response":0,"trial_type":"html-button-response","trial_index":53,"time_elapsed":69075018,"internal_node_id":"0.0-6.0"},{"rt":29763.399999976158,"stimulus":"<h1 style=\"margin-top: 5%\">Cuestionario para la Evaluación de Metas Académicas</h1><p style=\"font-size: 120%; margin-left: 3%; margin-top: 5%\">Este es un cuestionario que permite conocer cuáles son los principales motivos por los que los estudiantes se esfuerzan en su trabajo académico. A continuación, se te presentarán una serie de afirmaciones acerca de los motivos que puedes tener para estudiar.<br>Te pedimos que contestes a dichas afirmaciones reflexionando sobre el contenido de cada una de ellas, que, aunque te parezcan semejantes, en realidad, no lo son.<br>NO HAY RESPUESTAS CORRECTAS o INCORRECTAS, sólo queremos que respondas con la mayor precisión y sinceridad posible a las preguntas que se plantean.","response":0,"trial_type":"html-button-response","trial_index":54,"time_elapsed":69104783,"internal_node_id":"0.0-7.0"},{"rt":209896.79999995232,"response":{"Metas cuestionario pregunta1":1,"Metas cuestionario pregunta2":2,"Metas cuestionario pregunta3":3,"Metas cuestionario pregunta4":1,"Metas cuestionario pregunta5":3,"Metas cuestionario pregunta6":2,"Metas cuestionario pregunta7":2,"Metas cuestionario pregunta8":2,"Metas cuestionario pregunta9":3,"Metas cuestionario pregunta10":1,"Metas cuestionario pregunta11":0,"Metas cuestionario pregunta12":0,"Metas cuestionario pregunta13":0,"Metas cuestionario pregunta14":2,"Metas cuestionario pregunta15":3,"Metas cuestionario pregunta16":3,"Metas cuestionario pregunta17":3,"Metas cuestionario pregunta18":3,"Metas cuestionario pregunta19":4,"Metas cuestionario pregunta20":4},"question_order":[0,1,2,3,4,5,6,7,8,9,10,11,12,13,14,15,16,17,18,19],"trial_type":"survey-likert","trial_index":55,"time_elapsed":69314685,"internal_node_id":"0.0-8.0"},{"rt":3640.7999999523163,"stimulus":"<p style=\"font-size: 120%\">Gracias por responder el cuestionario. Ahora te invitamos a seguir con el juego, que es muy breve.<br><br></p>","response":0,"trial_type":"html-button-response","trial_index":56,"time_elapsed":69318330,"internal_node_id":"0.0-9.0"},{"rt":11600,"stimulus":"<h1>Juego</h1><p style=\"font-size: 120%;\">A continuación se te presentarán 16 pequeñas historias.<br>Por favor lee el texto presentado en cada una de ellas y luego haz click en el objeto de tu elección.<br>Si estás listo(a),<span style=\"color:red;\"> haz click en \"comenzar\"</span>.</p>","response":0,"trial_type":"html-button-response","trial_index":57,"time_elapsed":69329931,"internal_node_id":"0.0-10.0"},{"rt":14641,"grid":[[1,1,1,1],[1,1,1,1],[1,1,1,1],[1,1,1,1],[1,1,1,1],[1,1,1,1],[1,1,1,1],[1,1,1,1],[1,1,1,1]],"target":[0,0],"response":[5,2],"correct":false,"juego":14,"trial_type":"serial-reaction-time-mouse","trial_index":58,"time_elapsed":69344576,"internal_node_id":"0.0-11.0-0.0"},{"rt":19026.699999928474,"grid":[[1,1,1],[1,1,1],[1,1,1],[1,1,1],[1,1,1],[1,1,1],[1,1,1],[1,1,1],[1,1,1]],"target":[0,0],"response":[3,2],"correct":false,"juego":10,"trial_type":"serial-reaction-time-mouse","trial_index":59,"time_elapsed":69363605,"internal_node_id":"0.0-11.0-1.0"},{"rt":11856.799999952316,"grid":[[1,1,1,1]],"target":[0,0],"response":[0,2],"correct":false,"juego":9,"trial_type":"serial-reaction-time-mouse","trial_index":60,"time_elapsed":69375458,"internal_node_id":"0.0-11.0-2.0"},{"rt":7700.399999976158,"grid":[[1,1,1,1]],"target":[0,0],"response":[0,2],"correct":false,"juego":2,"trial_type":"serial-reaction-time-mouse","trial_index":61,"time_elapsed":69383160,"internal_node_id":"0.0-11.0-3.0"},{"rt":7031.5,"grid":[[1,1,1,1]],"target":[0,0],"response":[0,2],"correct":false,"juego":8,"trial_type":"serial-reaction-time-mouse","trial_index":62,"time_elapsed":69390192,"internal_node_id":"0.0-11.0-4.0"},{"rt":5252.299999952316,"grid":[[1,1,1,1]],"target":[0,0],"response":[0,1],"correct":false,"juego":1,"trial_type":"serial-reaction-time-mouse","trial_index":63,"time_elapsed":69395446,"internal_node_id":"0.0-11.0-5.0"},{"rt":6799.5,"grid":[[1,1,1],[1,1,1],[1,1,1],[1,1,1],[1,1,1],[1,1,1],[1,1,1],[1,1,1],[1,1,1]],"target":[0,0],"response":[1,1],"correct":false,"juego":6,"trial_type":"serial-reaction-time-mouse","trial_index":64,"time_elapsed":69402247,"internal_node_id":"0.0-11.0-6.0"},{"rt":15171.299999952316,"grid":[[1,1,1,1]],"target":[0,0],"response":[0,3],"correct":false,"juego":7,"trial_type":"serial-reaction-time-mouse","trial_index":65,"time_elapsed":69417420,"internal_node_id":"0.0-11.0-7.0"},{"rt":17728.199999928474,"grid":[[1,1,1,1]],"target":[0,0],"response":[0,3],"correct":false,"juego":3,"trial_type":"serial-reaction-time-mouse","trial_index":66,"time_elapsed":69435149,"internal_node_id":"0.0-11.0-8.0"},{"rt":12893.899999976158,"grid":[[1,1,1,1]],"target":[0,0],"response":[0,3],"correct":false,"juego":11,"trial_type":"serial-reaction-time-mouse","trial_index":67,"time_elapsed":69448044,"internal_node_id":"0.0-11.0-9.0"},{"rt":11735.300000071526,"grid":[[1,1,1],[1,1,1],[1,1,1],[1,1,1],[1,1,1],[1,1,1],[1,1,1],[1,1,1],[1,1,1]],"target":[0,0],"response":[1,1],"correct":false,"juego":13,"trial_type":"serial-reaction-time-mouse","trial_index":68,"time_elapsed":69459781,"internal_node_id":"0.0-11.0-10.0"},{"rt":4326.700000047684,"grid":[[1],[1],[1],[1]],"target":[0,0],"response":[2,0],"correct":false,"juego":4,"trial_type":"serial-reaction-time-mouse","trial_index":69,"time_elapsed":69464110,"internal_node_id":"0.0-11.0-11.0"},{"rt":10365,"grid":[[1,1,1,1],[1,1,1,1],[1,1,1,1],[1,1,1,1],[1,1,1,1],[1,1,1,1],[1,1,1,1],[1,1,1,1],[1,1,1,1]],"target":[0,0],"response":[3,2],"correct":false,"juego":15,"trial_type":"serial-reaction-time-mouse","trial_index":70,"time_elapsed":69474477,"internal_node_id":"0.0-11.0-12.0"},{"rt":6218.700000047684,"grid":[[1,1,1],[1,1,1],[1,1,1],[1,1,1],[1,1,1],[1,1,1],[1,1,1],[1,1,1],[1,1,1]],"target":[0,0],"response":[1,1],"correct":false,"juego":5,"trial_type":"serial-reaction-time-mouse","trial_index":71,"time_elapsed":69480697,"internal_node_id":"0.0-11.0-13.0"},{"rt":11992.600000023842,"grid":[[1,1,1,1]],"target":[0,0],"response":[0,0],"correct":true,"juego":12,"trial_type":"serial-reaction-time-mouse","trial_index":72,"time_elapsed":69492691,"internal_node_id":"0.0-11.0-14.0"},{"rt":7280.799999952316,"stimulus":"<h1>Último juego</h1><p style=\"font-size: 130%;\">Tienes <span style=\"color:red\">25</span> segundos para recordar los pares de palabras que aparecerán a continuación. <br></p>","response":0,"trial_type":"html-button-response","trial_index":73,"time_elapsed":69499977,"internal_node_id":"0.0-12.0"},{"animation_sequence":[{"stimulus":"imagen_juego_interferencia.jpg","time":517},{"stimulus":"imagen_juego_interferencia.jpg","time":1003.1999999284744},{"stimulus":"imagen_juego_interferencia.jpg","time":1501.6999999284744},{"stimulus":"imagen_juego_interferencia.jpg","time":2014.2999999523163},{"stimulus":"imagen_juego_interferencia.jpg","time":2503},{"stimulus":"imagen_juego_interferencia.jpg","time":3002.600000023842},{"stimulus":"imagen_juego_interferencia.jpg","time":3502.7999999523163},{"stimulus":"imagen_juego_interferencia.jpg","time":4002.899999976158},{"stimulus":"imagen_juego_interferencia.jpg","time":4502.600000023842},{"stimulus":"imagen_juego_interferencia.jpg","time":5002.799999952316},{"stimulus":"imagen_juego_interferencia.jpg","time":5504.199999928474},{"stimulus":"imagen_juego_interferencia.jpg","time":6002.799999952316},{"stimulus":"imagen_juego_interferencia.jpg","time":6502.699999928474},{"stimulus":"imagen_juego_interferencia.jpg","time":7007.799999952316},{"stimulus":"imagen_juego_interferencia.jpg","time":7507.699999928474},{"stimulus":"imagen_juego_interferencia.jpg","time":8009},{"stimulus":"imagen_juego_interferencia.jpg","time":8502},{"stimulus":"imagen_juego_interferencia.jpg","time":9002.199999928474},{"stimulus":"imagen_juego_interferencia.jpg","time":9507.299999952316},{"stimulus":"imagen_juego_interferencia.jpg","time":10002},{"stimulus":"imagen_juego_interferencia.jpg","time":10502},{"stimulus":"imagen_juego_interferencia.jpg","time":11004.5},{"stimulus":"imagen_juego_interferencia.jpg","time":11503.399999976158},{"stimulus":"imagen_juego_interferencia.jpg","time":12004.699999928474},{"stimulus":"imagen_juego_interferencia.jpg","time":12501.5},{"stimulus":"imagen_juego_interferencia.jpg","time":13001.5},{"stimulus":"imagen_juego_interferencia.jpg","time":13503},{"stimulus":"imagen_juego_interferencia.jpg","time":14001.600000023842},{"stimulus":"imagen_juego_interferencia.jpg","time":14505.5},{"stimulus":"imagen_juego_interferencia.jpg","time":15001.299999952316},{"stimulus":"imagen_juego_interferencia.jpg","time":15509.199999928474},{"stimulus":"imagen_juego_interferencia.jpg","time":16001},{"stimulus":"imagen_juego_interferencia.jpg","time":16501.199999928474},{"stimulus":"imagen_juego_interferencia.jpg","time":17006.100000023842},{"stimulus":"imagen_juego_interferencia.jpg","time":17501.199999928474},{"stimulus":"imagen_juego_interferencia.jpg","time":18001},{"stimulus":"imagen_juego_interferencia.jpg","time":18504.299999952316},{"stimulus":"imagen_juego_interferencia.jpg","time":19008.100000023842},{"stimulus":"imagen_juego_interferencia.jpg","time":19504.100000023842},{"stimulus":"imagen_juego_interferencia.jpg","time":20004.199999928474},{"stimulus":"imagen_juego_interferencia.jpg","time":20505.5},{"stimulus":"imagen_juego_interferencia.jpg","time":21006},{"stimulus":"imagen_juego_interferencia.jpg","time":21508.899999976158},{"stimulus":"imagen_juego_interferencia.jpg","time":22001},{"stimulus":"imagen_juego_interferencia.jpg","time":22504.199999928474},{"stimulus":"imagen_juego_interferencia.jpg","time":23006.199999928474},{"stimulus":"imagen_juego_interferencia.jpg","time":23508.399999976158},{"stimulus":"imagen_juego_interferencia.jpg","time":24002.699999928474},{"stimulus":"imagen_juego_interferencia.jpg","time":24502.699999928474},{"stimulus":"imagen_juego_interferencia.jpg","time":25002.799999952316}],"response":[],"trial_type":"animation","trial_index":74,"time_elapsed":69525482,"internal_node_id":"0.0-13.0"},{"rt":8948.199999928474,"responses":"{\"pregunta interferencia3\":\"plata\"}","question_order":"[0]","trial_type":"survey-multi-choice-cuest","trial_index":75,"time_elapsed":69534432,"internal_node_id":"0.0-14.0-0.0"},{"rt":7592.899999976158,"responses":"{\"pregunta interferencia1\":\"naranja\"}","question_order":"[0]","trial_type":"survey-multi-choice-cuest","trial_index":76,"time_elapsed":69542027,"internal_node_id":"0.0-14.0-1.0"},{"rt":4508.399999976158,"responses":"{\"pregunta interferencia2\":\"saltamontes\"}","question_order":"[0]","trial_type":"survey-multi-choice-cuest","trial_index":77,"time_elapsed":69546538,"internal_node_id":"0.0-14.0-2.0"},{"rt":6534.100000023842,"responses":"{\"pregunta interferencia4\":\"contador\"}","question_order":"[0]","trial_type":"survey-multi-choice-cuest","trial_index":78,"time_elapsed":69553074,"internal_node_id":"0.0-14.0-3.0"},{"success":true,"trial_type":"fullscreen","trial_index":79,"time_elapsed":69554080,"internal_node_id":"0.0-15.0"},{"rt":18865.900000095367,"responses":"{\"Telefono\":\"56983377887\"}","trial_type":"survey-text","trial_index":80,"time_elapsed":69572954,"internal_node_id":"0.0-16.0"}]