[{"rt":2962,"stimulus":"<h1 style=\"color:red; margin-top: 3%;\">¡Bienvenido(a)!</h1><p style=\"text-align:left; justify-content:space-between; margin-right: 5%; margin-left: 5%; margin-top: 5%\"> Antes de empezar el estudio, necesitamos que nos confirmes que estás de acuerdo con participar. Recuerda que tu participación es 100% voluntaria y que lo único que te pedimos es responder lo mejor que puedas. Recuerda también que el estudio incluye:</p><ol style=\"text-align:left; justify-content:space-between; margin-right: 5%; margin-left: 5%;\"><li> un ejercicio de resolución de preguntas de selección múltiple (30’),</li><li>un cuestionario breve (5’),</li><li>un juego muy breve (3’),</li></ol><p style=\"text-align:left; justify-content:space-between; margin-right: 5%; margin-left: 5%;\">Si quieres participar, haz clic en “Acepto” luego de leer lo siguiente:<br></p><p style=\"text-align:left; justify-content:space-between; margin-right: 5%; margin-left: 5%;\">Acepto participar en el estudio “Estrategias de lectura y resolución de preguntas de selección múltiple”, en los términos aquí señalados:<br></p><p style=\"text-align:left; justify-content:space-between; margin-right: 5%; margin-left: 5%;\"><a href=\"http://ciae.uchile.cl/download.php?file=noticias/Asentimiento.pdf\" target=\"_blank\">Link a la hoja de información del Consentimiento.</a></p><p style=\"text-align:left; justify-content:space-between; margin-right: 5%; margin-left: 5%;\">Declaro que he leído (o se me ha leído) y (he) comprendido, las condiciones de mi participación en este estudio. He tenido la oportunidad de hacer preguntas y éstas han sido respondidas. No tengo dudas al respecto.</p>","response":0,"condicion_MCQ":7,"condicion_JUEGO":7,"condicion_INTER":7,"numero_participante":79,"numero_version":2,"dimx":1600,"dimy":900,"color_profundidad":24,"pixel_profundidad":24,"Browser":"Mozilla Firefox","dia":13,"mes":5,"hora":14,"minuto":46,"segundo":41,"trial_type":"html-button-response","trial_index":0,"time_elapsed":2967,"internal_node_id":"0.0-0.0"},{"success":true,"trial_type":"fullscreen","trial_index":1,"time_elapsed":7603,"internal_node_id":"0.0-1.0"},{"rt":165377,"responses":"{\"Nombres\":\"María Jesús \",\"Apellidos\":\"González Sepulveda \",\"Edad\":\"18\",\"Sexo\":\"mujer \",\"Curso\":\"sección 209\",\"Colegio\":\"universidad \",\"Contacto\":\"katu.gonsepu@gmail.com \"}","trial_type":"survey-text","trial_index":2,"time_elapsed":173006,"internal_node_id":"0.0-2.0"},{"success":true,"timeout":false,"failed_images":[],"failed_audio":[],"failed_video":[],"trial_type":"preload","trial_index":3,"time_elapsed":174006,"internal_node_id":"0.0-3.0"},{"rt":78936,"stimulus":"<h1 style:\"margin-top: 5%;\">Ejercicios de Comprensión de Lectura de la Universidad de Chile</h1><p style=\"font-size: 120%;\">En esta actividad, debes responder 24 preguntas de selección múltiple. Cada pregunta presenta 4 respuestas alternativas, pero sólo una de ellas es correcta. Por lo tanto, debes escoger una sola alternativa para cada pregunta. Además, debes reportar qué tan seguro(a) estás de la respuesta que das, con un:</p><ol style=\"font-size: 120%;text-align:left;margin-left: 40%;\"><li>No estoy seguro(a) para nada</li><li>No estoy muy seguro(a)</li><li>Estoy bastante seguro(a)</li><li>Estoy totalmente seguro(a)</li></ol><p style=\"font-size: 120%;\">Por favor lee bien los enunciados antes de responder. ¡Éxito!</p>","response":0,"trial_type":"html-button-response","trial_index":4,"time_elapsed":252944,"internal_node_id":"0.0-4.0"},{"rt":83414,"responses":"{\"pregunta2\":\"d) A la relación entre hechos capitales y parámetros del pensamiento.\"}","question_order":"[0]","trial_type":"survey-multi-choice","trial_index":5,"time_elapsed":336361,"internal_node_id":"0.0-5.0-0.0"},{"rt":5116,"response":{"pregunta2 likert":1},"question_order":[0],"trial_type":"survey-likert","trial_index":6,"time_elapsed":341480,"internal_node_id":"0.0-5.0-1.0"},{"rt":57080,"responses":"{\"pregunta11\":\"c) Deleitar a sus receptores por medio de la belleza y el confort\"}","question_order":"[0]","trial_type":"survey-multi-choice","trial_index":7,"time_elapsed":398563,"internal_node_id":"0.0-5.0-2.0"},{"rt":3862,"response":{"pregunta11 likert":2},"question_order":[0],"trial_type":"survey-likert","trial_index":8,"time_elapsed":402426,"internal_node_id":"0.0-5.0-3.0"},{"rt":28437,"responses":"{\"pregunta24\":\"b) para el mexicano, la muerte es cotidiana.\"}","question_order":"[0]","trial_type":"survey-multi-choice","trial_index":9,"time_elapsed":430865,"internal_node_id":"0.0-5.0-4.0"},{"rt":2749,"response":{"pregunta24 likert":3},"question_order":[0],"trial_type":"survey-likert","trial_index":10,"time_elapsed":433615,"internal_node_id":"0.0-5.0-5.0"},{"rt":60621,"responses":"{\"pregunta16\":\"d) Bomberos debería tener acceso a un seguro médico, al que pueda recurrir en caso de accidente.\"}","question_order":"[0]","trial_type":"survey-multi-choice","trial_index":11,"time_elapsed":494239,"internal_node_id":"0.0-5.0-6.0"},{"rt":4821,"response":{"pregunta16 likert":2},"question_order":[0],"trial_type":"survey-likert","trial_index":12,"time_elapsed":499061,"internal_node_id":"0.0-5.0-7.0"},{"rt":126410,"responses":"{\"pregunta4\":\"d) En la literatura como en la vida, lo importante son las preguntas.\"}","question_order":"[0]","trial_type":"survey-multi-choice","trial_index":13,"time_elapsed":625473,"internal_node_id":"0.0-5.0-8.0"},{"rt":3832,"response":{"pregunta4 likert":1},"question_order":[0],"trial_type":"survey-likert","trial_index":14,"time_elapsed":629305,"internal_node_id":"0.0-5.0-9.0"},{"rt":135652,"responses":"{\"pregunta5\":\"d) Los momentos triviales de los viajes, en la escritura se vuelven significativos.\"}","question_order":"[0]","trial_type":"survey-multi-choice","trial_index":15,"time_elapsed":764959,"internal_node_id":"0.0-5.0-10.0"},{"rt":3994,"response":{"pregunta5 likert":1},"question_order":[0],"trial_type":"survey-likert","trial_index":16,"time_elapsed":768954,"internal_node_id":"0.0-5.0-11.0"},{"rt":57254,"responses":"{\"pregunta22\":\"b) Se necesita un marco legal para delimitar lo público y lo privado en materia informativa.\"}","question_order":"[0]","trial_type":"survey-multi-choice","trial_index":17,"time_elapsed":826209,"internal_node_id":"0.0-5.0-12.0"},{"rt":3177,"response":{"pregunta22 likert":2},"question_order":[0],"trial_type":"survey-likert","trial_index":18,"time_elapsed":829388,"internal_node_id":"0.0-5.0-13.0"},{"rt":92191,"responses":"{\"pregunta18\":\"d) El receptor es habitualmente pasivo frente a la publicidad.\"}","question_order":"[0]","trial_type":"survey-multi-choice","trial_index":19,"time_elapsed":921580,"internal_node_id":"0.0-5.0-14.0"},{"rt":2292,"response":{"pregunta18 likert":2},"question_order":[0],"trial_type":"survey-likert","trial_index":20,"time_elapsed":923873,"internal_node_id":"0.0-5.0-15.0"},{"rt":111277,"responses":"{\"pregunta6\":\"c) Presentar positivamente las diversas tendencias del diseño de interiores a través de un comentario.\"}","question_order":"[0]","trial_type":"survey-multi-choice","trial_index":21,"time_elapsed":1035151,"internal_node_id":"0.0-5.0-16.0"},{"rt":2809,"response":{"pregunta6 likert":1},"question_order":[0],"trial_type":"survey-likert","trial_index":22,"time_elapsed":1037962,"internal_node_id":"0.0-5.0-17.0"},{"rt":225767,"responses":"{\"pregunta15\":\"c) el uranio es el elemento natural con el mayor número de protones en el núcleo.\"}","question_order":"[0]","trial_type":"survey-multi-choice","trial_index":23,"time_elapsed":1263731,"internal_node_id":"0.0-5.0-18.0"},{"rt":2318,"response":{"pregunta15 likert":1},"question_order":[0],"trial_type":"survey-likert","trial_index":24,"time_elapsed":1266051,"internal_node_id":"0.0-5.0-19.0"},{"rt":128488,"responses":"{\"pregunta17\":\"b) A la inexistencia de un recinto adecuado para el recital.\"}","question_order":"[0]","trial_type":"survey-multi-choice","trial_index":25,"time_elapsed":1394542,"internal_node_id":"0.0-5.0-20.0"},{"rt":3601,"response":{"pregunta17 likert":2},"question_order":[0],"trial_type":"survey-likert","trial_index":26,"time_elapsed":1398144,"internal_node_id":"0.0-5.0-21.0"},{"rt":105681,"responses":"{\"pregunta8\":\"a) El ser humano se comporta de acuerdo con las circunstancias.\"}","question_order":"[0]","trial_type":"survey-multi-choice","trial_index":27,"time_elapsed":1503827,"internal_node_id":"0.0-5.0-22.0"},{"rt":2885,"response":{"pregunta8 likert":2},"question_order":[0],"trial_type":"survey-likert","trial_index":28,"time_elapsed":1506714,"internal_node_id":"0.0-5.0-23.0"},{"rt":65536,"responses":"{\"pregunta23\":\"b) el jardinero estará muerto al día siguiente.\"}","question_order":"[0]","trial_type":"survey-multi-choice","trial_index":29,"time_elapsed":1572252,"internal_node_id":"0.0-5.0-24.0"},{"rt":2879,"response":{"pregunta23 likert":3},"question_order":[0],"trial_type":"survey-likert","trial_index":30,"time_elapsed":1575133,"internal_node_id":"0.0-5.0-25.0"},{"rt":59315,"responses":"{\"pregunta13\":\"b) A la conveniencia de no postergar el descanso personal.\"}","question_order":"[0]","trial_type":"survey-multi-choice","trial_index":31,"time_elapsed":1634448,"internal_node_id":"0.0-5.0-26.0"},{"rt":6248,"response":{"pregunta13 likert":2},"question_order":[0],"trial_type":"survey-likert","trial_index":32,"time_elapsed":1640698,"internal_node_id":"0.0-5.0-27.0"},{"rt":92821,"responses":"{\"pregunta19\":\"a) sufren dolores de espalda.\"}","question_order":"[0]","trial_type":"survey-multi-choice","trial_index":33,"time_elapsed":1733521,"internal_node_id":"0.0-5.0-28.0"},{"rt":2732,"response":{"pregunta19 likert":1},"question_order":[0],"trial_type":"survey-likert","trial_index":34,"time_elapsed":1736254,"internal_node_id":"0.0-5.0-29.0"},{"rt":56783,"responses":"{\"pregunta10\":\"a) religiosos y precavidos.\"}","question_order":"[0]","trial_type":"survey-multi-choice","trial_index":35,"time_elapsed":1793040,"internal_node_id":"0.0-5.0-30.0"},{"rt":5035,"response":{"pregunta10 likert":1},"question_order":[0],"trial_type":"survey-likert","trial_index":36,"time_elapsed":1798075,"internal_node_id":"0.0-5.0-31.0"},{"rt":47978,"responses":"{\"pregunta9\":\"d) un recuerdo nostálgico.\"}","question_order":"[0]","trial_type":"survey-multi-choice","trial_index":37,"time_elapsed":1846057,"internal_node_id":"0.0-5.0-32.0"},{"rt":3041,"response":{"pregunta9 likert":1},"question_order":[0],"trial_type":"survey-likert","trial_index":38,"time_elapsed":1849099,"internal_node_id":"0.0-5.0-33.0"},{"rt":93595,"responses":"{\"pregunta3\":\"c) El inicio de la civilización china.\"}","question_order":"[0]","trial_type":"survey-multi-choice","trial_index":39,"time_elapsed":1942694,"internal_node_id":"0.0-5.0-34.0"},{"rt":3275,"response":{"pregunta3 likert":1},"question_order":[0],"trial_type":"survey-likert","trial_index":40,"time_elapsed":1945971,"internal_node_id":"0.0-5.0-35.0"},{"rt":63108,"responses":"{\"pregunta7\":\"a) se da como existente, y sólo se discute su relación con el cuerpo.\"}","question_order":"[0]","trial_type":"survey-multi-choice","trial_index":41,"time_elapsed":2009080,"internal_node_id":"0.0-5.0-36.0"},{"rt":2492,"response":{"pregunta7 likert":2},"question_order":[0],"trial_type":"survey-likert","trial_index":42,"time_elapsed":2011573,"internal_node_id":"0.0-5.0-37.0"},{"rt":52187,"responses":"{\"pregunta21\":\"a) Nuestra economía vivirá un proceso de ajuste a la nueva realidad.\"}","question_order":"[0]","trial_type":"survey-multi-choice","trial_index":43,"time_elapsed":2063761,"internal_node_id":"0.0-5.0-38.0"},{"rt":2389,"response":{"pregunta21 likert":1},"question_order":[0],"trial_type":"survey-likert","trial_index":44,"time_elapsed":2066151,"internal_node_id":"0.0-5.0-39.0"},{"rt":68617,"responses":"{\"pregunta20\":\"a) para Aristóteles la virtud estaba en el justo equilibrio.\"}","question_order":"[0]","trial_type":"survey-multi-choice","trial_index":45,"time_elapsed":2134772,"internal_node_id":"0.0-5.0-40.0"},{"rt":4678,"response":{"pregunta20 likert":1},"question_order":[0],"trial_type":"survey-likert","trial_index":46,"time_elapsed":2139451,"internal_node_id":"0.0-5.0-41.0"},{"rt":84660,"responses":"{\"pregunta1\":\"b) Entregan una característica detallada del personaje, a través de la voz narrativa.\"}","question_order":"[0]","trial_type":"survey-multi-choice","trial_index":47,"time_elapsed":2224113,"internal_node_id":"0.0-5.0-42.0"},{"rt":4057,"response":{"pregunta1 likert":1},"question_order":[0],"trial_type":"survey-likert","trial_index":48,"time_elapsed":2228172,"internal_node_id":"0.0-5.0-43.0"},{"rt":41148,"responses":"{\"pregunta12\":\"b) Homenajear a quienes murieron.\"}","question_order":"[0]","trial_type":"survey-multi-choice","trial_index":49,"time_elapsed":2269322,"internal_node_id":"0.0-5.0-44.0"},{"rt":4524,"response":{"pregunta12 likert":2},"question_order":[0],"trial_type":"survey-likert","trial_index":50,"time_elapsed":2273848,"internal_node_id":"0.0-5.0-45.0"},{"rt":96826,"responses":"{\"pregunta14\":\"c) el mejor emperador es el que está muerto.\"}","question_order":"[0]","trial_type":"survey-multi-choice","trial_index":51,"time_elapsed":2370675,"internal_node_id":"0.0-5.0-46.0"},{"rt":6435,"response":{"pregunta14 likert":1},"question_order":[0],"trial_type":"survey-likert","trial_index":52,"time_elapsed":2377111,"internal_node_id":"0.0-5.0-47.0"},{"rt":3930,"stimulus":"<p style=\"font-size: 120%\">Gracias por completar esta etapa del estudio. Ahora te invitamos a responder el cuestionario.<br><br></p>","response":0,"trial_type":"html-button-response","trial_index":53,"time_elapsed":2381046,"internal_node_id":"0.0-6.0"},{"rt":7269,"stimulus":"<h1 style=\"margin-top: 5%\">Cuestionario para la Evaluación de Metas Académicas</h1><p style=\"font-size: 120%; margin-left: 3%; margin-top: 5%\">Este es un cuestionario que permite conocer cuáles son los principales motivos por los que los estudiantes se esfuerzan en su trabajo académico. A continuación, se te presentarán una serie de afirmaciones acerca de los motivos que puedes tener para estudiar.<br>Te pedimos que contestes a dichas afirmaciones reflexionando sobre el contenido de cada una de ellas, que, aunque te parezcan semejantes, en realidad, no lo son.<br>NO HAY RESPUESTAS CORRECTAS o INCORRECTAS, sólo queremos que respondas con la mayor precisión y sinceridad posible a las preguntas que se plantean.","response":0,"trial_type":"html-button-response","trial_index":54,"time_elapsed":2388316,"internal_node_id":"0.0-7.0"},{"rt":140508,"response":{"Metas cuestionario pregunta1":1,"Metas cuestionario pregunta2":1,"Metas cuestionario pregunta3":4,"Metas cuestionario pregunta4":1,"Metas cuestionario pregunta5":1,"Metas cuestionario pregunta6":2,"Metas cuestionario pregunta7":4,"Metas cuestionario pregunta8":1,"Metas cuestionario pregunta9":0,"Metas cuestionario pregunta10":0,"Metas cuestionario pregunta11":0,"Metas cuestionario pregunta12":1,"Metas cuestionario pregunta13":0,"Metas cuestionario pregunta14":0,"Metas cuestionario pregunta15":3,"Metas cuestionario pregunta16":1,"Metas cuestionario pregunta17":1,"Metas cuestionario pregunta18":4,"Metas cuestionario pregunta19":4,"Metas cuestionario pregunta20":0},"question_order":[0,1,2,3,4,5,6,7,8,9,10,11,12,13,14,15,16,17,18,19],"trial_type":"survey-likert","trial_index":55,"time_elapsed":2528828,"internal_node_id":"0.0-8.0"},{"rt":1479,"stimulus":"<p style=\"font-size: 120%\">Gracias por responder el cuestionario. Ahora te invitamos a seguir con el juego, que es muy breve.<br><br></p>","response":0,"trial_type":"html-button-response","trial_index":56,"time_elapsed":2530310,"internal_node_id":"0.0-9.0"},{"rt":26287,"stimulus":"<h1>Juego</h1><p style=\"font-size: 120%;\">A continuación se te presentarán 16 pequeñas historias.<br>Por favor lee el texto presentado en cada una de ellas y luego haz click en el objeto de tu elección.<br>Si estás listo(a),<span style=\"color:red;\"> haz click en \"comenzar\"</span>.</p>","response":0,"trial_type":"html-button-response","trial_index":57,"time_elapsed":2556599,"internal_node_id":"0.0-10.0"},{"rt":12388,"grid":[[1,1,1,1]],"target":[0,0],"response":[0,2],"correct":false,"juego":8,"trial_type":"serial-reaction-time-mouse","trial_index":58,"time_elapsed":2568988,"internal_node_id":"0.0-11.0-0.0"},{"rt":12648,"grid":[[1,1,1,1]],"target":[0,0],"response":[0,0],"correct":true,"juego":1,"trial_type":"serial-reaction-time-mouse","trial_index":59,"time_elapsed":2581639,"internal_node_id":"0.0-11.0-1.0"},{"rt":9090,"grid":[[1,1,1,1]],"target":[0,0],"response":[0,2],"correct":false,"juego":2,"trial_type":"serial-reaction-time-mouse","trial_index":60,"time_elapsed":2590732,"internal_node_id":"0.0-11.0-2.0"},{"rt":13425,"grid":[[1,1,1],[1,1,1],[1,1,1],[1,1,1],[1,1,1],[1,1,1],[1,1,1],[1,1,1],[1,1,1]],"target":[0,0],"response":[5,1],"correct":false,"juego":13,"trial_type":"serial-reaction-time-mouse","trial_index":61,"time_elapsed":2604165,"internal_node_id":"0.0-11.0-3.0"},{"rt":14660,"grid":[[1,1,1,1]],"target":[0,0],"response":[0,3],"correct":false,"juego":12,"trial_type":"serial-reaction-time-mouse","trial_index":62,"time_elapsed":2618828,"internal_node_id":"0.0-11.0-4.0"},{"rt":8901,"grid":[[1,1,1,1]],"target":[0,0],"response":[0,1],"correct":false,"juego":7,"trial_type":"serial-reaction-time-mouse","trial_index":63,"time_elapsed":2627733,"internal_node_id":"0.0-11.0-5.0"},{"rt":14141,"grid":[[1,1,1,1],[1,1,1,1],[1,1,1,1],[1,1,1,1],[1,1,1,1],[1,1,1,1],[1,1,1,1],[1,1,1,1],[1,1,1,1]],"target":[0,0],"response":[3,2],"correct":false,"juego":15,"trial_type":"serial-reaction-time-mouse","trial_index":64,"time_elapsed":2641883,"internal_node_id":"0.0-11.0-6.0"},{"rt":17580,"grid":[[1,1,1,1],[1,1,1,1],[1,1,1,1],[1,1,1,1],[1,1,1,1],[1,1,1,1],[1,1,1,1],[1,1,1,1],[1,1,1,1]],"target":[0,0],"response":[3,2],"correct":false,"juego":14,"trial_type":"serial-reaction-time-mouse","trial_index":65,"time_elapsed":2659470,"internal_node_id":"0.0-11.0-7.0"},{"rt":9166,"grid":[[1,1,1,1]],"target":[0,0],"response":[0,2],"correct":false,"juego":3,"trial_type":"serial-reaction-time-mouse","trial_index":66,"time_elapsed":2668637,"internal_node_id":"0.0-11.0-8.0"},{"rt":3817,"grid":[[1,1,1,1]],"target":[0,0],"response":[0,1],"correct":false,"juego":9,"trial_type":"serial-reaction-time-mouse","trial_index":67,"time_elapsed":2672456,"internal_node_id":"0.0-11.0-9.0"},{"rt":7159,"grid":[[1],[1],[1],[1]],"target":[0,0],"response":[1,0],"correct":false,"juego":4,"trial_type":"serial-reaction-time-mouse","trial_index":68,"time_elapsed":2679617,"internal_node_id":"0.0-11.0-10.0"},{"rt":4364,"grid":[[1,1,1],[1,1,1],[1,1,1],[1,1,1],[1,1,1],[1,1,1],[1,1,1],[1,1,1],[1,1,1]],"target":[0,0],"response":[3,1],"correct":false,"juego":6,"trial_type":"serial-reaction-time-mouse","trial_index":69,"time_elapsed":2683988,"internal_node_id":"0.0-11.0-11.0"},{"rt":47582,"grid":[[1,1,1],[1,1,1],[1,1,1],[1,1,1],[1,1,1],[1,1,1],[1,1,1],[1,1,1],[1,1,1]],"target":[0,0],"response":[5,0],"correct":false,"juego":10,"trial_type":"serial-reaction-time-mouse","trial_index":70,"time_elapsed":2731576,"internal_node_id":"0.0-11.0-12.0"},{"rt":5950,"grid":[[1,1,1],[1,1,1],[1,1,1],[1,1,1],[1,1,1],[1,1,1],[1,1,1],[1,1,1],[1,1,1]],"target":[0,0],"response":[3,1],"correct":false,"juego":5,"trial_type":"serial-reaction-time-mouse","trial_index":71,"time_elapsed":2737535,"internal_node_id":"0.0-11.0-13.0"},{"rt":18379,"grid":[[1,1,1,1]],"target":[0,0],"response":[0,1],"correct":false,"juego":11,"trial_type":"serial-reaction-time-mouse","trial_index":72,"time_elapsed":2755917,"internal_node_id":"0.0-11.0-14.0"},{"rt":9689,"stimulus":"<h1>Último juego</h1><p style=\"font-size: 130%;\">Tienes <span style=\"color:red\">25</span> segundos para recordar los pares de palabras que aparecerán a continuación. <br></p>","response":0,"trial_type":"html-button-response","trial_index":73,"time_elapsed":2765612,"internal_node_id":"0.0-12.0"},{"animation_sequence":[{"stimulus":"imagen_juego_interferencia.jpg","time":536},{"stimulus":"imagen_juego_interferencia.jpg","time":1021},{"stimulus":"imagen_juego_interferencia.jpg","time":1521},{"stimulus":"imagen_juego_interferencia.jpg","time":2041},{"stimulus":"imagen_juego_interferencia.jpg","time":2547},{"stimulus":"imagen_juego_interferencia.jpg","time":3048},{"stimulus":"imagen_juego_interferencia.jpg","time":3549},{"stimulus":"imagen_juego_interferencia.jpg","time":4061},{"stimulus":"imagen_juego_interferencia.jpg","time":4580},{"stimulus":"imagen_juego_interferencia.jpg","time":5100},{"stimulus":"imagen_juego_interferencia.jpg","time":5600},{"stimulus":"imagen_juego_interferencia.jpg","time":6100},{"stimulus":"imagen_juego_interferencia.jpg","time":6601},{"stimulus":"imagen_juego_interferencia.jpg","time":7100},{"stimulus":"imagen_juego_interferencia.jpg","time":7601},{"stimulus":"imagen_juego_interferencia.jpg","time":8110},{"stimulus":"imagen_juego_interferencia.jpg","time":8610},{"stimulus":"imagen_juego_interferencia.jpg","time":9130},{"stimulus":"imagen_juego_interferencia.jpg","time":9631},{"stimulus":"imagen_juego_interferencia.jpg","time":10131},{"stimulus":"imagen_juego_interferencia.jpg","time":10651},{"stimulus":"imagen_juego_interferencia.jpg","time":11171},{"stimulus":"imagen_juego_interferencia.jpg","time":11690},{"stimulus":"imagen_juego_interferencia.jpg","time":12191},{"stimulus":"imagen_juego_interferencia.jpg","time":12710},{"stimulus":"imagen_juego_interferencia.jpg","time":13226},{"stimulus":"imagen_juego_interferencia.jpg","time":13731},{"stimulus":"imagen_juego_interferencia.jpg","time":14253},{"stimulus":"imagen_juego_interferencia.jpg","time":14766},{"stimulus":"imagen_juego_interferencia.jpg","time":15266},{"stimulus":"imagen_juego_interferencia.jpg","time":15767},{"stimulus":"imagen_juego_interferencia.jpg","time":16267},{"stimulus":"imagen_juego_interferencia.jpg","time":16781},{"stimulus":"imagen_juego_interferencia.jpg","time":17282},{"stimulus":"imagen_juego_interferencia.jpg","time":17781},{"stimulus":"imagen_juego_interferencia.jpg","time":18301},{"stimulus":"imagen_juego_interferencia.jpg","time":18801},{"stimulus":"imagen_juego_interferencia.jpg","time":19300},{"stimulus":"imagen_juego_interferencia.jpg","time":19821},{"stimulus":"imagen_juego_interferencia.jpg","time":20320},{"stimulus":"imagen_juego_interferencia.jpg","time":20840},{"stimulus":"imagen_juego_interferencia.jpg","time":21361},{"stimulus":"imagen_juego_interferencia.jpg","time":21880},{"stimulus":"imagen_juego_interferencia.jpg","time":22381},{"stimulus":"imagen_juego_interferencia.jpg","time":22901},{"stimulus":"imagen_juego_interferencia.jpg","time":23401},{"stimulus":"imagen_juego_interferencia.jpg","time":23901},{"stimulus":"imagen_juego_interferencia.jpg","time":24401},{"stimulus":"imagen_juego_interferencia.jpg","time":24901},{"stimulus":"imagen_juego_interferencia.jpg","time":25420}],"response":[],"trial_type":"animation","trial_index":74,"time_elapsed":2791553,"internal_node_id":"0.0-13.0"},{"rt":12396,"responses":"{\"pregunta interferencia1\":\"naranja\"}","question_order":"[0]","trial_type":"survey-multi-choice-cuest","trial_index":75,"time_elapsed":2803951,"internal_node_id":"0.0-14.0-0.0"},{"rt":44417,"responses":"{\"pregunta interferencia4\":\"contador\"}","question_order":"[0]","trial_type":"survey-multi-choice-cuest","trial_index":76,"time_elapsed":2848371,"internal_node_id":"0.0-14.0-1.0"},{"rt":11030,"responses":"{\"pregunta interferencia3\":\"aluminio\"}","question_order":"[0]","trial_type":"survey-multi-choice-cuest","trial_index":77,"time_elapsed":2859402,"internal_node_id":"0.0-14.0-2.0"},{"rt":7177,"responses":"{\"pregunta interferencia2\":\"saltamontes\"}","question_order":"[0]","trial_type":"survey-multi-choice-cuest","trial_index":78,"time_elapsed":2866581,"internal_node_id":"0.0-14.0-3.0"},{"success":true,"trial_type":"fullscreen","trial_index":79,"time_elapsed":2867584,"internal_node_id":"0.0-15.0"},{"rt":63502,"responses":"{\"Telefono\":\"+56947439939\"}","trial_type":"survey-text","trial_index":80,"time_elapsed":2931097,"internal_node_id":"0.0-16.0"}]