[{"rt":7320.39999999851,"stimulus":"<h1 style=\"color:red; margin-top: 3%;\">¡Bienvenido(a)!</h1><p style=\"text-align:left; justify-content:space-between; margin-right: 5%; margin-left: 5%; margin-top: 5%\"> Antes de empezar el estudio, necesitamos que nos confirmes que estás de acuerdo con participar. Recuerda que tu participación es 100% voluntaria y que lo único que te pedimos es responder lo mejor que puedas. Recuerda también que el estudio incluye:</p><ol style=\"text-align:left; justify-content:space-between; margin-right: 5%; margin-left: 5%;\"><li> un ejercicio de resolución de preguntas de selección múltiple (30’),</li><li>un cuestionario breve (5’),</li><li>un juego muy breve (3’),</li></ol><p style=\"text-align:left; justify-content:space-between; margin-right: 5%; margin-left: 5%;\">Si quieres participar, haz clic en “Acepto” luego de leer lo siguiente:<br></p><p style=\"text-align:left; justify-content:space-between; margin-right: 5%; margin-left: 5%;\">Acepto participar en el estudio “Estrategias de lectura y resolución de preguntas de selección múltiple”, en los términos aquí señalados:<br></p><p style=\"text-align:left; justify-content:space-between; margin-right: 5%; margin-left: 5%;\"><a href=\"http://ciae.uchile.cl/download.php?file=noticias/Asentimiento.pdf\" target=\"_blank\">Link a la hoja de información del Consentimiento.</a></p><p style=\"text-align:left; justify-content:space-between; margin-right: 5%; margin-left: 5%;\">Declaro que he leído (o se me ha leído) y (he) comprendido, las condiciones de mi participación en este estudio. He tenido la oportunidad de hacer preguntas y éstas han sido respondidas. No tengo dudas al respecto.</p>","response":0,"condicion_MCQ":4,"condicion_JUEGO":4,"condicion_INTER":4,"numero_participante":4,"numero_version":2,"dimx":1366,"dimy":768,"color_profundidad":24,"pixel_profundidad":24,"Browser":"Google Chrome","dia":4,"mes":5,"hora":11,"minuto":32,"segundo":17,"trial_type":"html-button-response","trial_index":0,"time_elapsed":7323,"internal_node_id":"0.0-0.0"},{"success":true,"trial_type":"fullscreen","trial_index":1,"time_elapsed":15247,"internal_node_id":"0.0-1.0"},{"rt":178620.69999999553,"responses":"{\"Nombres\":\"carla aylin \",\"Apellidos\":\"peñaloza péez\",\"Edad\":\"18\",\"Sexo\":\"mujer\",\"Curso\":\"204\",\"Colegio\":\"universidad andrés bello\",\"Contacto\":\"carlitapenaloza@hotmail.com\"}","trial_type":"survey-text","trial_index":2,"time_elapsed":193886,"internal_node_id":"0.0-2.0"},{"success":true,"timeout":false,"failed_images":[],"failed_audio":[],"failed_video":[],"trial_type":"preload","trial_index":3,"time_elapsed":194859,"internal_node_id":"0.0-3.0"},{"rt":11518,"stimulus":"<h1 style:\"margin-top: 5%;\">Ejercicios de Comprensión de Lectura de la Universidad de Chile</h1><p style=\"font-size: 120%;\">En esta actividad, debes responder 24 preguntas de selección múltiple. Cada pregunta presenta 4 respuestas alternativas, pero sólo una de ellas es correcta. Por lo tanto, debes escoger una sola alternativa para cada pregunta. Además, debes reportar qué tan seguro(a) estás de la respuesta que das, con un:</p><ol style=\"font-size: 120%;text-align:left;margin-left: 40%;\"><li>No estoy seguro(a) para nada</li><li>No estoy muy seguro(a)</li><li>Estoy bastante seguro(a)</li><li>Estoy totalmente seguro(a)</li></ol><p style=\"font-size: 120%;\">Por favor lee bien los enunciados antes de responder. ¡Éxito!</p>","response":0,"trial_type":"html-button-response","trial_index":4,"time_elapsed":206379,"internal_node_id":"0.0-4.0"},{"rt":42520.60000000149,"responses":"{\"pregunta19\":\"a) llevan un control grupal de su embarazo.\"}","question_order":"[0]","trial_type":"survey-multi-choice","trial_index":5,"time_elapsed":248901,"internal_node_id":"0.0-5.0-0.0"},{"rt":4370.19999999553,"response":{"pregunta19 likert":2},"question_order":[0],"trial_type":"survey-likert","trial_index":6,"time_elapsed":253273,"internal_node_id":"0.0-5.0-1.0"},{"rt":46698.60000000149,"responses":"{\"pregunta13\":\"c) A la conveniencia de no postergar el descanso personal.\"}","question_order":"[0]","trial_type":"survey-multi-choice","trial_index":7,"time_elapsed":299973,"internal_node_id":"0.0-5.0-2.0"},{"rt":2564.2999999970198,"response":{"pregunta13 likert":2},"question_order":[0],"trial_type":"survey-likert","trial_index":8,"time_elapsed":302540,"internal_node_id":"0.0-5.0-3.0"},{"rt":65984,"responses":"{\"pregunta5\":\"b) La escritura plasma los mejores momentos de los viajes.\"}","question_order":"[0]","trial_type":"survey-multi-choice","trial_index":9,"time_elapsed":368525,"internal_node_id":"0.0-5.0-4.0"},{"rt":4624.39999999851,"response":{"pregunta5 likert":0},"question_order":[0],"trial_type":"survey-likert","trial_index":10,"time_elapsed":373151,"internal_node_id":"0.0-5.0-5.0"},{"rt":52686.29999999702,"responses":"{\"pregunta10\":\"a) ritualistas y obsesivos.\"}","question_order":"[0]","trial_type":"survey-multi-choice","trial_index":11,"time_elapsed":425839,"internal_node_id":"0.0-5.0-6.0"},{"rt":2234.6999999955297,"response":{"pregunta10 likert":2},"question_order":[0],"trial_type":"survey-likert","trial_index":12,"time_elapsed":428075,"internal_node_id":"0.0-5.0-7.0"},{"rt":91305.89999999851,"responses":"{\"pregunta8\":\"d) El ser humano se comporta de acuerdo con las circunstancias.\"}","question_order":"[0]","trial_type":"survey-multi-choice","trial_index":13,"time_elapsed":519382,"internal_node_id":"0.0-5.0-8.0"},{"rt":1564.8999999985099,"response":{"pregunta8 likert":2},"question_order":[0],"trial_type":"survey-likert","trial_index":14,"time_elapsed":520949,"internal_node_id":"0.0-5.0-9.0"},{"rt":78750.30000000447,"responses":"{\"pregunta23\":\"a) el jardinero estará muerto al día siguiente.\"}","question_order":"[0]","trial_type":"survey-multi-choice","trial_index":15,"time_elapsed":599700,"internal_node_id":"0.0-5.0-10.0"},{"rt":1572.7000000029802,"response":{"pregunta23 likert":2},"question_order":[0],"trial_type":"survey-likert","trial_index":16,"time_elapsed":601275,"internal_node_id":"0.0-5.0-11.0"},{"rt":55467.79999999702,"responses":"{\"pregunta17\":\"a) A la temática satánica de las canciones del grupo.\"}","question_order":"[0]","trial_type":"survey-multi-choice","trial_index":17,"time_elapsed":656744,"internal_node_id":"0.0-5.0-12.0"},{"rt":1800.3999999985099,"response":{"pregunta17 likert":3},"question_order":[0],"trial_type":"survey-likert","trial_index":18,"time_elapsed":658546,"internal_node_id":"0.0-5.0-13.0"},{"rt":242797.5,"responses":"{\"pregunta2\":\"c) A la relación entre sociedad y constitución social.\"}","question_order":"[0]","trial_type":"survey-multi-choice","trial_index":19,"time_elapsed":901345,"internal_node_id":"0.0-5.0-14.0"},{"rt":4049.1999999955297,"response":{"pregunta2 likert":2},"question_order":[0],"trial_type":"survey-likert","trial_index":20,"time_elapsed":905398,"internal_node_id":"0.0-5.0-15.0"},{"rt":108132.79999999702,"responses":"{\"pregunta3\":\"b) El inicio de la civilización china.\"}","question_order":"[0]","trial_type":"survey-multi-choice","trial_index":21,"time_elapsed":1013533,"internal_node_id":"0.0-5.0-16.0"},{"rt":1938.6000000014901,"response":{"pregunta3 likert":3},"question_order":[0],"trial_type":"survey-likert","trial_index":22,"time_elapsed":1015473,"internal_node_id":"0.0-5.0-17.0"},{"rt":39726.19999999553,"responses":"{\"pregunta16\":\"c) Bomberos debería tener acceso a un seguro médico, al que pueda recurrir en caso de accidente.\"}","question_order":"[0]","trial_type":"survey-multi-choice","trial_index":23,"time_elapsed":1055201,"internal_node_id":"0.0-5.0-18.0"},{"rt":2170.39999999851,"response":{"pregunta16 likert":3},"question_order":[0],"trial_type":"survey-likert","trial_index":24,"time_elapsed":1057373,"internal_node_id":"0.0-5.0-19.0"},{"rt":60626.39999999851,"responses":"{\"pregunta1\":\"b) Aportan informaciones con las que se reconstruye el personaje dentro de un relato.\"}","question_order":"[0]","trial_type":"survey-multi-choice","trial_index":25,"time_elapsed":1118001,"internal_node_id":"0.0-5.0-20.0"},{"rt":2098.5,"response":{"pregunta1 likert":3},"question_order":[0],"trial_type":"survey-likert","trial_index":26,"time_elapsed":1120101,"internal_node_id":"0.0-5.0-21.0"},{"rt":60954.5,"responses":"{\"pregunta22\":\"a) Se necesita un marco legal para delimitar lo público y lo privado en materia informativa.\"}","question_order":"[0]","trial_type":"survey-multi-choice","trial_index":27,"time_elapsed":1181057,"internal_node_id":"0.0-5.0-22.0"},{"rt":1874.1000000014901,"response":{"pregunta22 likert":3},"question_order":[0],"trial_type":"survey-likert","trial_index":28,"time_elapsed":1182933,"internal_node_id":"0.0-5.0-23.0"},{"rt":55225,"responses":"{\"pregunta24\":\"a) para el mexicano, la muerte es cotidiana.\"}","question_order":"[0]","trial_type":"survey-multi-choice","trial_index":29,"time_elapsed":1238159,"internal_node_id":"0.0-5.0-24.0"},{"rt":1832.1000000014901,"response":{"pregunta24 likert":3},"question_order":[0],"trial_type":"survey-likert","trial_index":30,"time_elapsed":1239992,"internal_node_id":"0.0-5.0-25.0"},{"rt":79354.39999999851,"responses":"{\"pregunta4\":\"a) En la literatura como en la vida, todo es metáfora.\"}","question_order":"[0]","trial_type":"survey-multi-choice","trial_index":31,"time_elapsed":1319349,"internal_node_id":"0.0-5.0-26.0"},{"rt":2844.6999999955297,"response":{"pregunta4 likert":1},"question_order":[0],"trial_type":"survey-likert","trial_index":32,"time_elapsed":1322195,"internal_node_id":"0.0-5.0-27.0"},{"rt":51636.59999999404,"responses":"{\"pregunta15\":\"d) la creación de elementos químicos artificiales ha resultado de la manipulación del uranio.\"}","question_order":"[0]","trial_type":"survey-multi-choice","trial_index":33,"time_elapsed":1373833,"internal_node_id":"0.0-5.0-28.0"},{"rt":2213.7999999970198,"response":{"pregunta15 likert":3},"question_order":[0],"trial_type":"survey-likert","trial_index":34,"time_elapsed":1376048,"internal_node_id":"0.0-5.0-29.0"},{"rt":82250.69999999553,"responses":"{\"pregunta14\":\"a) el Primer Ministro debía morir por ambicioso.\"}","question_order":"[0]","trial_type":"survey-multi-choice","trial_index":35,"time_elapsed":1458300,"internal_node_id":"0.0-5.0-30.0"},{"rt":2152.39999999851,"response":{"pregunta14 likert":1},"question_order":[0],"trial_type":"survey-likert","trial_index":36,"time_elapsed":1460454,"internal_node_id":"0.0-5.0-31.0"},{"rt":77988.29999999702,"responses":"{\"pregunta18\":\"a) La publicidad ejerce una influencia positiva sobre la sociedad.\"}","question_order":"[0]","trial_type":"survey-multi-choice","trial_index":37,"time_elapsed":1538444,"internal_node_id":"0.0-5.0-32.0"},{"rt":2004.1999999955297,"response":{"pregunta18 likert":2},"question_order":[0],"trial_type":"survey-likert","trial_index":38,"time_elapsed":1540450,"internal_node_id":"0.0-5.0-33.0"},{"rt":235338.8999999985,"responses":"{\"pregunta20\":\"c) el hombre excesivo es inmoral.\"}","question_order":"[0]","trial_type":"survey-multi-choice","trial_index":39,"time_elapsed":1775790,"internal_node_id":"0.0-5.0-34.0"},{"rt":3453.2000000029802,"response":{"pregunta20 likert":1},"question_order":[0],"trial_type":"survey-likert","trial_index":40,"time_elapsed":1779245,"internal_node_id":"0.0-5.0-35.0"},{"rt":183770.1000000015,"responses":"{\"pregunta7\":\"b) es un concepto introducido en la cultura por Platón.\"}","question_order":"[0]","trial_type":"survey-multi-choice","trial_index":41,"time_elapsed":1963019,"internal_node_id":"0.0-5.0-36.0"},{"rt":2012.7000000029802,"response":{"pregunta7 likert":1},"question_order":[0],"trial_type":"survey-likert","trial_index":42,"time_elapsed":1965034,"internal_node_id":"0.0-5.0-37.0"},{"rt":349274.5,"responses":"{\"pregunta6\":\"c) Promover la asistencia a un evento específico de decoración a través de una atractiva descripción.\"}","question_order":"[0]","trial_type":"survey-multi-choice","trial_index":43,"time_elapsed":2314310,"internal_node_id":"0.0-5.0-38.0"},{"rt":2314.60000000149,"response":{"pregunta6 likert":1},"question_order":[0],"trial_type":"survey-likert","trial_index":44,"time_elapsed":2316628,"internal_node_id":"0.0-5.0-39.0"},{"rt":190805.6000000015,"responses":"{\"pregunta21\":\"d) Nuestra economía vivirá un proceso de ajuste a la nueva realidad.\"}","question_order":"[0]","trial_type":"survey-multi-choice","trial_index":45,"time_elapsed":2507437,"internal_node_id":"0.0-5.0-40.0"},{"rt":3998.7999999970198,"response":{"pregunta21 likert":2},"question_order":[0],"trial_type":"survey-likert","trial_index":46,"time_elapsed":2511438,"internal_node_id":"0.0-5.0-41.0"},{"rt":257965.29999999702,"responses":"{\"pregunta12\":\"a) Homenajear a quienes murieron.\"}","question_order":"[0]","trial_type":"survey-multi-choice","trial_index":47,"time_elapsed":2769407,"internal_node_id":"0.0-5.0-42.0"},{"rt":3003.39999999851,"response":{"pregunta12 likert":3},"question_order":[0],"trial_type":"survey-likert","trial_index":48,"time_elapsed":2772414,"internal_node_id":"0.0-5.0-43.0"},{"rt":100964.10000000149,"responses":"{\"pregunta9\":\"d) preparar los recuerdos del mañana.\"}","question_order":"[0]","trial_type":"survey-multi-choice","trial_index":49,"time_elapsed":2873382,"internal_node_id":"0.0-5.0-44.0"},{"rt":2605.89999999851,"response":{"pregunta9 likert":3},"question_order":[0],"trial_type":"survey-likert","trial_index":50,"time_elapsed":2875990,"internal_node_id":"0.0-5.0-45.0"},{"rt":126299.10000000149,"responses":"{\"pregunta11\":\"c) Deleitar a sus receptores por medio de la belleza y el confort\"}","question_order":"[0]","trial_type":"survey-multi-choice","trial_index":51,"time_elapsed":3002291,"internal_node_id":"0.0-5.0-46.0"},{"rt":2158.5,"response":{"pregunta11 likert":1},"question_order":[0],"trial_type":"survey-likert","trial_index":52,"time_elapsed":3004452,"internal_node_id":"0.0-5.0-47.0"},{"rt":2776.5,"stimulus":"<p style=\"font-size: 120%\">Gracias por completar esta etapa del estudio. Ahora te invitamos a responder el cuestionario.<br><br></p>","response":0,"trial_type":"html-button-response","trial_index":53,"time_elapsed":3007242,"internal_node_id":"0.0-6.0"},{"rt":5552.5,"stimulus":"<h1 style=\"margin-top: 5%\">Cuestionario para la Evaluación de Metas Académicas</h1><p style=\"font-size: 120%; margin-left: 3%; margin-top: 5%\">Este es un cuestionario que permite conocer cuáles son los principales motivos por los que los estudiantes se esfuerzan en su trabajo académico. A continuación, se te presentarán una serie de afirmaciones acerca de los motivos que puedes tener para estudiar.<br>Te pedimos que contestes a dichas afirmaciones reflexionando sobre el contenido de cada una de ellas, que, aunque te parezcan semejantes, en realidad, no lo son.<br>NO HAY RESPUESTAS CORRECTAS o INCORRECTAS, sólo queremos que respondas con la mayor precisión y sinceridad posible a las preguntas que se plantean.","response":0,"trial_type":"html-button-response","trial_index":54,"time_elapsed":3012797,"internal_node_id":"0.0-7.0"},{"rt":86683.79999999702,"response":{"Metas cuestionario pregunta1":3,"Metas cuestionario pregunta2":3,"Metas cuestionario pregunta3":3,"Metas cuestionario pregunta4":1,"Metas cuestionario pregunta5":4,"Metas cuestionario pregunta6":2,"Metas cuestionario pregunta7":4,"Metas cuestionario pregunta8":1,"Metas cuestionario pregunta9":2,"Metas cuestionario pregunta10":0,"Metas cuestionario pregunta11":0,"Metas cuestionario pregunta12":0,"Metas cuestionario pregunta13":0,"Metas cuestionario pregunta14":0,"Metas cuestionario pregunta15":3,"Metas cuestionario pregunta16":4,"Metas cuestionario pregunta17":3,"Metas cuestionario pregunta18":4,"Metas cuestionario pregunta19":4,"Metas cuestionario pregunta20":3},"question_order":[0,1,2,3,4,5,6,7,8,9,10,11,12,13,14,15,16,17,18,19],"trial_type":"survey-likert","trial_index":55,"time_elapsed":3099492,"internal_node_id":"0.0-8.0"},{"rt":1987.3999999985099,"stimulus":"<p style=\"font-size: 120%\">Gracias por responder el cuestionario. Ahora te invitamos a seguir con el juego, que es muy breve.<br><br></p>","response":0,"trial_type":"html-button-response","trial_index":56,"time_elapsed":3101486,"internal_node_id":"0.0-9.0"},{"rt":5912.0999999940395,"stimulus":"<h1>Juego</h1><p style=\"font-size: 120%;\">A continuación se te presentarán 16 pequeñas historias.<br>Por favor lee el texto presentado en cada una de ellas y luego haz click en el objeto de tu elección.<br>Si estás listo(a),<span style=\"color:red;\"> haz click en \"comenzar\"</span>.</p>","response":0,"trial_type":"html-button-response","trial_index":57,"time_elapsed":3107400,"internal_node_id":"0.0-10.0"},{"rt":2081.3000000044703,"grid":[[1],[1],[1],[1]],"target":[0,0],"response":[0,0],"correct":true,"juego":4,"trial_type":"serial-reaction-time-mouse","trial_index":58,"time_elapsed":3109484,"internal_node_id":"0.0-11.0-0.0"},{"rt":4858,"grid":[[1,1,1,1]],"target":[0,0],"response":[0,2],"correct":false,"juego":8,"trial_type":"serial-reaction-time-mouse","trial_index":59,"time_elapsed":3114345,"internal_node_id":"0.0-11.0-1.0"},{"rt":12910,"grid":[[1,1,1,1],[1,1,1,1],[1,1,1,1],[1,1,1,1],[1,1,1,1],[1,1,1,1],[1,1,1,1],[1,1,1,1],[1,1,1,1]],"target":[0,0],"response":[7,2],"correct":false,"juego":15,"trial_type":"serial-reaction-time-mouse","trial_index":60,"time_elapsed":3127259,"internal_node_id":"0.0-11.0-2.0"},{"rt":6906.19999999553,"grid":[[1,1,1,1]],"target":[0,0],"response":[0,2],"correct":false,"juego":12,"trial_type":"serial-reaction-time-mouse","trial_index":61,"time_elapsed":3134168,"internal_node_id":"0.0-11.0-3.0"},{"rt":8225.89999999851,"grid":[[1,1,1],[1,1,1],[1,1,1],[1,1,1],[1,1,1],[1,1,1],[1,1,1],[1,1,1],[1,1,1]],"target":[0,0],"response":[1,2],"correct":false,"juego":10,"trial_type":"serial-reaction-time-mouse","trial_index":62,"time_elapsed":3142395,"internal_node_id":"0.0-11.0-4.0"},{"rt":3028,"grid":[[1,1,1,1]],"target":[0,0],"response":[0,2],"correct":false,"juego":3,"trial_type":"serial-reaction-time-mouse","trial_index":63,"time_elapsed":3145424,"internal_node_id":"0.0-11.0-5.0"},{"rt":2500.7000000029802,"grid":[[1,1,1,1]],"target":[0,0],"response":[0,1],"correct":false,"juego":9,"trial_type":"serial-reaction-time-mouse","trial_index":64,"time_elapsed":3147926,"internal_node_id":"0.0-11.0-6.0"},{"rt":2571.5,"grid":[[1,1,1],[1,1,1],[1,1,1],[1,1,1],[1,1,1],[1,1,1],[1,1,1],[1,1,1],[1,1,1]],"target":[0,0],"response":[1,1],"correct":false,"juego":5,"trial_type":"serial-reaction-time-mouse","trial_index":65,"time_elapsed":3150499,"internal_node_id":"0.0-11.0-7.0"},{"rt":4333,"grid":[[1,1,1,1]],"target":[0,0],"response":[0,2],"correct":false,"juego":1,"trial_type":"serial-reaction-time-mouse","trial_index":66,"time_elapsed":3154833,"internal_node_id":"0.0-11.0-8.0"},{"rt":2848.89999999851,"grid":[[1,1,1,1]],"target":[0,0],"response":[0,2],"correct":false,"juego":11,"trial_type":"serial-reaction-time-mouse","trial_index":67,"time_elapsed":3157683,"internal_node_id":"0.0-11.0-9.0"},{"rt":1986.2999999970198,"grid":[[1,1,1,1]],"target":[0,0],"response":[0,3],"correct":false,"juego":7,"trial_type":"serial-reaction-time-mouse","trial_index":68,"time_elapsed":3159670,"internal_node_id":"0.0-11.0-10.0"},{"rt":2263.7999999970198,"grid":[[1,1,1],[1,1,1],[1,1,1],[1,1,1],[1,1,1],[1,1,1],[1,1,1],[1,1,1],[1,1,1]],"target":[0,0],"response":[7,1],"correct":false,"juego":6,"trial_type":"serial-reaction-time-mouse","trial_index":69,"time_elapsed":3161938,"internal_node_id":"0.0-11.0-11.0"},{"rt":6901.79999999702,"grid":[[1,1,1],[1,1,1],[1,1,1],[1,1,1],[1,1,1],[1,1,1],[1,1,1],[1,1,1],[1,1,1]],"target":[0,0],"response":[1,1],"correct":false,"juego":13,"trial_type":"serial-reaction-time-mouse","trial_index":70,"time_elapsed":3168844,"internal_node_id":"0.0-11.0-12.0"},{"rt":4953.19999999553,"grid":[[1,1,1,1],[1,1,1,1],[1,1,1,1],[1,1,1,1],[1,1,1,1],[1,1,1,1],[1,1,1,1],[1,1,1,1],[1,1,1,1]],"target":[0,0],"response":[1,2],"correct":false,"juego":14,"trial_type":"serial-reaction-time-mouse","trial_index":71,"time_elapsed":3173800,"internal_node_id":"0.0-11.0-13.0"},{"rt":5344,"grid":[[1,1,1,1]],"target":[0,0],"response":[0,3],"correct":false,"juego":2,"trial_type":"serial-reaction-time-mouse","trial_index":72,"time_elapsed":3179146,"internal_node_id":"0.0-11.0-14.0"},{"rt":1506,"stimulus":"<h1>Último juego</h1><p style=\"font-size: 130%;\">Tienes <span style=\"color:red\">25</span> segundos para recordar los pares de palabras que aparecerán a continuación. <br></p>","response":0,"trial_type":"html-button-response","trial_index":73,"time_elapsed":3180658,"internal_node_id":"0.0-12.0"},{"animation_sequence":[{"stimulus":"imagen_juego_interferencia.jpg","time":511.8999999985099},{"stimulus":"imagen_juego_interferencia.jpg","time":1006.3000000044703},{"stimulus":"imagen_juego_interferencia.jpg","time":1501.6000000014901},{"stimulus":"imagen_juego_interferencia.jpg","time":2002.8000000044703},{"stimulus":"imagen_juego_interferencia.jpg","time":2502.3000000044703},{"stimulus":"imagen_juego_interferencia.jpg","time":3002.89999999851},{"stimulus":"imagen_juego_interferencia.jpg","time":3508.2000000029802},{"stimulus":"imagen_juego_interferencia.jpg","time":4007.10000000149},{"stimulus":"imagen_juego_interferencia.jpg","time":4502.39999999851},{"stimulus":"imagen_juego_interferencia.jpg","time":5007.20000000298},{"stimulus":"imagen_juego_interferencia.jpg","time":5502.70000000298},{"stimulus":"imagen_juego_interferencia.jpg","time":6002.10000000149},{"stimulus":"imagen_juego_interferencia.jpg","time":6509},{"stimulus":"imagen_juego_interferencia.jpg","time":7002},{"stimulus":"imagen_juego_interferencia.jpg","time":7503.20000000298},{"stimulus":"imagen_juego_interferencia.jpg","time":8002.5},{"stimulus":"imagen_juego_interferencia.jpg","time":8504.60000000149},{"stimulus":"imagen_juego_interferencia.jpg","time":9002.60000000149},{"stimulus":"imagen_juego_interferencia.jpg","time":9516.80000000447},{"stimulus":"imagen_juego_interferencia.jpg","time":10002.5},{"stimulus":"imagen_juego_interferencia.jpg","time":10501.70000000298},{"stimulus":"imagen_juego_interferencia.jpg","time":11001.70000000298},{"stimulus":"imagen_juego_interferencia.jpg","time":11502.39999999851},{"stimulus":"imagen_juego_interferencia.jpg","time":12001.89999999851},{"stimulus":"imagen_juego_interferencia.jpg","time":12505.60000000149},{"stimulus":"imagen_juego_interferencia.jpg","time":13002.80000000447},{"stimulus":"imagen_juego_interferencia.jpg","time":13502.5},{"stimulus":"imagen_juego_interferencia.jpg","time":14017.39999999851},{"stimulus":"imagen_juego_interferencia.jpg","time":14502.39999999851},{"stimulus":"imagen_juego_interferencia.jpg","time":15001.70000000298},{"stimulus":"imagen_juego_interferencia.jpg","time":15515.89999999851},{"stimulus":"imagen_juego_interferencia.jpg","time":16002.10000000149},{"stimulus":"imagen_juego_interferencia.jpg","time":16502.60000000149},{"stimulus":"imagen_juego_interferencia.jpg","time":17001.89999999851},{"stimulus":"imagen_juego_interferencia.jpg","time":17513.60000000149},{"stimulus":"imagen_juego_interferencia.jpg","time":18001.89999999851},{"stimulus":"imagen_juego_interferencia.jpg","time":18511.20000000298},{"stimulus":"imagen_juego_interferencia.jpg","time":19001.70000000298},{"stimulus":"imagen_juego_interferencia.jpg","time":19509.20000000298},{"stimulus":"imagen_juego_interferencia.jpg","time":20008.5},{"stimulus":"imagen_juego_interferencia.jpg","time":20515.80000000447},{"stimulus":"imagen_juego_interferencia.jpg","time":21002.80000000447},{"stimulus":"imagen_juego_interferencia.jpg","time":21516.80000000447},{"stimulus":"imagen_juego_interferencia.jpg","time":22002.30000000447},{"stimulus":"imagen_juego_interferencia.jpg","time":22501.89999999851},{"stimulus":"imagen_juego_interferencia.jpg","time":23003.30000000447},{"stimulus":"imagen_juego_interferencia.jpg","time":23516.30000000447},{"stimulus":"imagen_juego_interferencia.jpg","time":24002.80000000447},{"stimulus":"imagen_juego_interferencia.jpg","time":24502.20000000298},{"stimulus":"imagen_juego_interferencia.jpg","time":25002.10000000149}],"response":[],"trial_type":"animation","trial_index":74,"time_elapsed":3206164,"internal_node_id":"0.0-13.0"},{"rt":5115.60000000149,"responses":"{\"pregunta interferencia3\":\"aluminio\"}","question_order":"[0]","trial_type":"survey-multi-choice-cuest","trial_index":75,"time_elapsed":3211283,"internal_node_id":"0.0-14.0-0.0"},{"rt":6123.80000000447,"responses":"{\"pregunta interferencia4\":\"contador\"}","question_order":"[0]","trial_type":"survey-multi-choice-cuest","trial_index":76,"time_elapsed":3217410,"internal_node_id":"0.0-14.0-1.0"},{"rt":2597.5,"responses":"{\"pregunta interferencia1\":\"naranja\"}","question_order":"[0]","trial_type":"survey-multi-choice-cuest","trial_index":77,"time_elapsed":3220011,"internal_node_id":"0.0-14.0-2.0"},{"rt":5640.5,"responses":"{\"pregunta interferencia2\":\"saltamontes\"}","question_order":"[0]","trial_type":"survey-multi-choice-cuest","trial_index":78,"time_elapsed":3225655,"internal_node_id":"0.0-14.0-3.0"},{"success":true,"trial_type":"fullscreen","trial_index":79,"time_elapsed":3226672,"internal_node_id":"0.0-15.0"}]