[{"rt":46010.29999998212,"stimulus":"<h1 style=\"color:red; margin-top: 3%;\">¡Bienvenido(a)!</h1><p style=\"text-align:left; justify-content:space-between; margin-right: 5%; margin-left: 5%; margin-top: 5%\"> Antes de empezar el estudio, necesitamos que nos confirmes que estás de acuerdo con participar. Recuerda que tu participación es 100% voluntaria y que lo único que te pedimos es responder lo mejor que puedas. Recuerda también que el estudio incluye:</p><ol style=\"text-align:left; justify-content:space-between; margin-right: 5%; margin-left: 5%;\"><li> un ejercicio de resolución de preguntas de selección múltiple (30’),</li><li>un cuestionario breve (5’),</li><li>un juego muy breve (3’),</li></ol><p style=\"text-align:left; justify-content:space-between; margin-right: 5%; margin-left: 5%;\">Si quieres participar, haz clic en “Acepto” luego de leer lo siguiente:<br></p><p style=\"text-align:left; justify-content:space-between; margin-right: 5%; margin-left: 5%;\">Acepto participar en el estudio “Estrategias de lectura y resolución de preguntas de selección múltiple”, en los términos aquí señalados:<br></p><p style=\"text-align:left; justify-content:space-between; margin-right: 5%; margin-left: 5%;\"><a href=\"http://ciae.uchile.cl/download.php?file=noticias/Asentimiento.pdf\" target=\"_blank\">Link a la hoja de información del Consentimiento.</a></p><p style=\"text-align:left; justify-content:space-between; margin-right: 5%; margin-left: 5%;\">Declaro que he leído (o se me ha leído) y (he) comprendido, las condiciones de mi participación en este estudio. He tenido la oportunidad de hacer preguntas y éstas han sido respondidas. No tengo dudas al respecto.</p>","response":0,"condicion_MCQ":9,"condicion_JUEGO":21,"condicion_INTER":21,"numero_participante":45,"numero_version":1,"dimx":1366,"dimy":768,"color_profundidad":24,"pixel_profundidad":24,"Browser":"Google Chrome","dia":4,"mes":5,"hora":15,"minuto":44,"segundo":26,"trial_type":"html-button-response","trial_index":0,"time_elapsed":46018,"internal_node_id":"0.0-0.0"},{"success":true,"trial_type":"fullscreen","trial_index":1,"time_elapsed":57201,"internal_node_id":"0.0-1.0"},{"rt":216361.40000000596,"responses":"{\"Nombres\":\"Claudio Ignacio\",\"Apellidos\":\"Espinoza Vasquez\",\"Edad\":\"18\",\"Sexo\":\"Hombre\",\"Curso\":\"Seccion 204\",\"Colegio\":\"Universidad Andres Bello\",\"Contacto\":\"c.espinozavsquez@uandresbello.edu\"}","trial_type":"survey-text","trial_index":2,"time_elapsed":273580,"internal_node_id":"0.0-2.0"},{"success":true,"timeout":false,"failed_images":[],"failed_audio":[],"failed_video":[],"trial_type":"preload","trial_index":3,"time_elapsed":275325,"internal_node_id":"0.0-3.0"},{"rt":18327,"stimulus":"<h1 style:\"margin-top: 5%;\">Ejercicios de Comprensión de Lectura de la Universidad de Chile</h1><p style=\"font-size: 120%;\">En esta actividad, debes responder 24 preguntas de selección múltiple. Cada pregunta presenta 4 respuestas alternativas, pero sólo una de ellas es correcta. Por lo tanto, debes escoger una sola alternativa para cada pregunta. Además, debes reportar qué tan seguro(a) estás de la respuesta que das, con un:</p><ol style=\"font-size: 120%;text-align:left;margin-left: 40%;\"><li>No estoy seguro(a) para nada</li><li>No estoy muy seguro(a)</li><li>Estoy bastante seguro(a)</li><li>Estoy totalmente seguro(a)</li></ol><p style=\"font-size: 120%;\">Por favor lee bien los enunciados antes de responder. ¡Éxito!</p>","response":0,"trial_type":"html-button-response","trial_index":4,"time_elapsed":293654,"internal_node_id":"0.0-4.0"},{"rt":69911.5,"responses":"{\"pregunta14\":\"d) el mejor emperador es el que está muerto.\"}","question_order":"[0]","trial_type":"survey-multi-choice","trial_index":5,"time_elapsed":363569,"internal_node_id":"0.0-5.0-0.0"},{"rt":3420.7000000178814,"response":{"pregunta14 likert":2},"question_order":[0],"trial_type":"survey-likert","trial_index":6,"time_elapsed":366995,"internal_node_id":"0.0-5.0-1.0"},{"rt":76350.70000001788,"responses":"{\"pregunta21\":\"b) Nuestra economía vivirá un proceso de ajuste a la nueva realidad.\"}","question_order":"[0]","trial_type":"survey-multi-choice","trial_index":7,"time_elapsed":443351,"internal_node_id":"0.0-5.0-2.0"},{"rt":3966.300000011921,"response":{"pregunta21 likert":1},"question_order":[0],"trial_type":"survey-likert","trial_index":8,"time_elapsed":447321,"internal_node_id":"0.0-5.0-3.0"},{"rt":138645.09999999404,"responses":"{\"pregunta18\":\"a) El receptor es habitualmente pasivo frente a la publicidad.\"}","question_order":"[0]","trial_type":"survey-multi-choice","trial_index":9,"time_elapsed":585969,"internal_node_id":"0.0-5.0-4.0"},{"rt":2308.5,"response":{"pregunta18 likert":2},"question_order":[0],"trial_type":"survey-likert","trial_index":10,"time_elapsed":588281,"internal_node_id":"0.0-5.0-5.0"},{"rt":133895,"responses":"{\"pregunta8\":\"b) El ser humano se comporta de acuerdo con las circunstancias.\"}","question_order":"[0]","trial_type":"survey-multi-choice","trial_index":11,"time_elapsed":722179,"internal_node_id":"0.0-5.0-6.0"},{"rt":1967.5,"response":{"pregunta8 likert":2},"question_order":[0],"trial_type":"survey-likert","trial_index":12,"time_elapsed":724150,"internal_node_id":"0.0-5.0-7.0"},{"rt":95860.09999999404,"responses":"{\"pregunta4\":\"d) En la literatura como en la vida, lo importante son las preguntas.\"}","question_order":"[0]","trial_type":"survey-multi-choice","trial_index":13,"time_elapsed":820014,"internal_node_id":"0.0-5.0-8.0"},{"rt":2034.2999999821186,"response":{"pregunta4 likert":2},"question_order":[0],"trial_type":"survey-likert","trial_index":14,"time_elapsed":822052,"internal_node_id":"0.0-5.0-9.0"},{"rt":90428.5,"responses":"{\"pregunta1\":\"c) Aportan informaciones con las que se reconstruye el personaje dentro de un relato.\"}","question_order":"[0]","trial_type":"survey-multi-choice","trial_index":15,"time_elapsed":912484,"internal_node_id":"0.0-5.0-10.0"},{"rt":2082.9000000059605,"response":{"pregunta1 likert":3},"question_order":[0],"trial_type":"survey-likert","trial_index":16,"time_elapsed":914570,"internal_node_id":"0.0-5.0-11.0"},{"rt":60678.59999999404,"responses":"{\"pregunta22\":\"b) Se necesita un marco legal para delimitar lo público y lo privado en materia informativa.\"}","question_order":"[0]","trial_type":"survey-multi-choice","trial_index":17,"time_elapsed":975252,"internal_node_id":"0.0-5.0-12.0"},{"rt":5203.5999999940395,"response":{"pregunta22 likert":1},"question_order":[0],"trial_type":"survey-likert","trial_index":18,"time_elapsed":980459,"internal_node_id":"0.0-5.0-13.0"},{"rt":169878.59999999404,"responses":"{\"pregunta23\":\"c) el jardinero estará muerto al día siguiente.\"}","question_order":"[0]","trial_type":"survey-multi-choice","trial_index":19,"time_elapsed":1150341,"internal_node_id":"0.0-5.0-14.0"},{"rt":2542.300000011921,"response":{"pregunta23 likert":2},"question_order":[0],"trial_type":"survey-likert","trial_index":20,"time_elapsed":1152887,"internal_node_id":"0.0-5.0-15.0"},{"rt":56593.40000000596,"responses":"{\"pregunta5\":\"a) Los momentos triviales de los viajes, en la escritura se vuelven significativos.\"}","question_order":"[0]","trial_type":"survey-multi-choice","trial_index":21,"time_elapsed":1209484,"internal_node_id":"0.0-5.0-16.0"},{"rt":2134.7000000178814,"response":{"pregunta5 likert":3},"question_order":[0],"trial_type":"survey-likert","trial_index":22,"time_elapsed":1211622,"internal_node_id":"0.0-5.0-17.0"},{"rt":87082,"responses":"{\"pregunta9\":\"b) preparar los recuerdos del mañana.\"}","question_order":"[0]","trial_type":"survey-multi-choice","trial_index":23,"time_elapsed":1298706,"internal_node_id":"0.0-5.0-18.0"},{"rt":1953.5999999940395,"response":{"pregunta9 likert":3},"question_order":[0],"trial_type":"survey-likert","trial_index":24,"time_elapsed":1300664,"internal_node_id":"0.0-5.0-19.0"},{"rt":47247.20000001788,"responses":"{\"pregunta16\":\"d) Bomberos debería tener acceso a un seguro médico, al que pueda recurrir en caso de accidente.\"}","question_order":"[0]","trial_type":"survey-multi-choice","trial_index":25,"time_elapsed":1347915,"internal_node_id":"0.0-5.0-20.0"},{"rt":1479.0999999940395,"response":{"pregunta16 likert":3},"question_order":[0],"trial_type":"survey-likert","trial_index":26,"time_elapsed":1349397,"internal_node_id":"0.0-5.0-21.0"},{"rt":101690.59999999404,"responses":"{\"pregunta17\":\"b) A la inexistencia de un recinto adecuado para el recital.\"}","question_order":"[0]","trial_type":"survey-multi-choice","trial_index":27,"time_elapsed":1451092,"internal_node_id":"0.0-5.0-22.0"},{"rt":3306.0999999940395,"response":{"pregunta17 likert":2},"question_order":[0],"trial_type":"survey-likert","trial_index":28,"time_elapsed":1454402,"internal_node_id":"0.0-5.0-23.0"},{"rt":78995.5,"responses":"{\"pregunta15\":\"d) el uranio es el elemento natural con el mayor número de protones en el núcleo.\"}","question_order":"[0]","trial_type":"survey-multi-choice","trial_index":29,"time_elapsed":1533399,"internal_node_id":"0.0-5.0-24.0"},{"rt":1853,"response":{"pregunta15 likert":3},"question_order":[0],"trial_type":"survey-likert","trial_index":30,"time_elapsed":1535255,"internal_node_id":"0.0-5.0-25.0"},{"rt":71890.80000001192,"responses":"{\"pregunta11\":\"c) Provocar el deseo de la adquisición vertiginosa.\"}","question_order":"[0]","trial_type":"survey-multi-choice","trial_index":31,"time_elapsed":1607150,"internal_node_id":"0.0-5.0-26.0"},{"rt":2091.800000011921,"response":{"pregunta11 likert":3},"question_order":[0],"trial_type":"survey-likert","trial_index":32,"time_elapsed":1609246,"internal_node_id":"0.0-5.0-27.0"},{"rt":248256.90000000596,"responses":"{\"pregunta12\":\"c) Homenajear a quienes murieron.\"}","question_order":"[0]","trial_type":"survey-multi-choice","trial_index":33,"time_elapsed":1857506,"internal_node_id":"0.0-5.0-28.0"},{"rt":1544.5,"response":{"pregunta12 likert":2},"question_order":[0],"trial_type":"survey-likert","trial_index":34,"time_elapsed":1859055,"internal_node_id":"0.0-5.0-29.0"},{"rt":158645.90000000596,"responses":"{\"pregunta7\":\"a) se da como existente, y sólo se discute su relación con el cuerpo.\"}","question_order":"[0]","trial_type":"survey-multi-choice","trial_index":35,"time_elapsed":2017704,"internal_node_id":"0.0-5.0-30.0"},{"rt":1407.800000011921,"response":{"pregunta7 likert":2},"question_order":[0],"trial_type":"survey-likert","trial_index":36,"time_elapsed":2019115,"internal_node_id":"0.0-5.0-31.0"},{"rt":131449.80000001192,"responses":"{\"pregunta10\":\"b) ritualistas y obsesivos.\"}","question_order":"[0]","trial_type":"survey-multi-choice","trial_index":37,"time_elapsed":2150569,"internal_node_id":"0.0-5.0-32.0"},{"rt":2026.199999988079,"response":{"pregunta10 likert":1},"question_order":[0],"trial_type":"survey-likert","trial_index":38,"time_elapsed":2152599,"internal_node_id":"0.0-5.0-33.0"},{"rt":130845.59999999404,"responses":"{\"pregunta19\":\"d) llevan un control grupal de su embarazo.\"}","question_order":"[0]","trial_type":"survey-multi-choice","trial_index":39,"time_elapsed":2283448,"internal_node_id":"0.0-5.0-34.0"},{"rt":3147.0999999940395,"response":{"pregunta19 likert":1},"question_order":[0],"trial_type":"survey-likert","trial_index":40,"time_elapsed":2286599,"internal_node_id":"0.0-5.0-35.0"},{"rt":205694.40000000596,"responses":"{\"pregunta24\":\"c) para el mexicano, la muerte es cotidiana.\"}","question_order":"[0]","trial_type":"survey-multi-choice","trial_index":41,"time_elapsed":2492295,"internal_node_id":"0.0-5.0-36.0"},{"rt":1139.199999988079,"response":{"pregunta24 likert":1},"question_order":[0],"trial_type":"survey-likert","trial_index":42,"time_elapsed":2493438,"internal_node_id":"0.0-5.0-37.0"},{"rt":110112.80000001192,"responses":"{\"pregunta2\":\"d) A la relación entre pensamiento y estructura social.\"}","question_order":"[0]","trial_type":"survey-multi-choice","trial_index":43,"time_elapsed":2603555,"internal_node_id":"0.0-5.0-38.0"},{"rt":1692.4000000059605,"response":{"pregunta2 likert":2},"question_order":[0],"trial_type":"survey-likert","trial_index":44,"time_elapsed":2605252,"internal_node_id":"0.0-5.0-39.0"},{"rt":180166.90000000596,"responses":"{\"pregunta20\":\"a) el sujeto sufre con su modo de vida.\"}","question_order":"[0]","trial_type":"survey-multi-choice","trial_index":45,"time_elapsed":2785422,"internal_node_id":"0.0-5.0-40.0"},{"rt":1640.4000000059605,"response":{"pregunta20 likert":1},"question_order":[0],"trial_type":"survey-likert","trial_index":46,"time_elapsed":2787066,"internal_node_id":"0.0-5.0-41.0"},{"rt":39137,"responses":"{\"pregunta3\":\"b) El inicio de la dinastía Chang.\"}","question_order":"[0]","trial_type":"survey-multi-choice","trial_index":47,"time_elapsed":2826207,"internal_node_id":"0.0-5.0-42.0"},{"rt":2716.300000011921,"response":{"pregunta3 likert":2},"question_order":[0],"trial_type":"survey-likert","trial_index":48,"time_elapsed":2828927,"internal_node_id":"0.0-5.0-43.0"},{"rt":131483.70000001788,"responses":"{\"pregunta6\":\"a) Promover la asistencia a un evento específico de decoración a través de una atractiva descripción.\"}","question_order":"[0]","trial_type":"survey-multi-choice","trial_index":49,"time_elapsed":2960414,"internal_node_id":"0.0-5.0-44.0"},{"rt":1526.699999988079,"response":{"pregunta6 likert":2},"question_order":[0],"trial_type":"survey-likert","trial_index":50,"time_elapsed":2961944,"internal_node_id":"0.0-5.0-45.0"},{"rt":81729.40000000596,"responses":"{\"pregunta13\":\"d) A la inutilidad de tanto esfuerzo si el objetivo es el reposo.\"}","question_order":"[0]","trial_type":"survey-multi-choice","trial_index":51,"time_elapsed":3043676,"internal_node_id":"0.0-5.0-46.0"},{"rt":2825.9000000059605,"response":{"pregunta13 likert":1},"question_order":[0],"trial_type":"survey-likert","trial_index":52,"time_elapsed":3046506,"internal_node_id":"0.0-5.0-47.0"},{"rt":3243.300000011921,"stimulus":"<p style=\"font-size: 120%\">Gracias por completar esta etapa del estudio. Ahora te invitamos a responder el cuestionario.<br><br></p>","response":0,"trial_type":"html-button-response","trial_index":53,"time_elapsed":3049757,"internal_node_id":"0.0-6.0"},{"rt":20833.40000000596,"stimulus":"<h1 style=\"margin-top: 5%\">Cuestionario para la Evaluación de Metas Académicas</h1><p style=\"font-size: 120%; margin-left: 3%; margin-top: 5%\">Este es un cuestionario que permite conocer cuáles son los principales motivos por los que los estudiantes se esfuerzan en su trabajo académico. A continuación, se te presentarán una serie de afirmaciones acerca de los motivos que puedes tener para estudiar.<br>Te pedimos que contestes a dichas afirmaciones reflexionando sobre el contenido de cada una de ellas, que, aunque te parezcan semejantes, en realidad, no lo son.<br>NO HAY RESPUESTAS CORRECTAS o INCORRECTAS, sólo queremos que respondas con la mayor precisión y sinceridad posible a las preguntas que se plantean.","response":0,"trial_type":"html-button-response","trial_index":54,"time_elapsed":3070593,"internal_node_id":"0.0-7.0"},{"rt":160667.69999998808,"response":{"Metas cuestionario pregunta1":3,"Metas cuestionario pregunta2":3,"Metas cuestionario pregunta3":4,"Metas cuestionario pregunta4":2,"Metas cuestionario pregunta5":3,"Metas cuestionario pregunta6":4,"Metas cuestionario pregunta7":4,"Metas cuestionario pregunta8":4,"Metas cuestionario pregunta9":1,"Metas cuestionario pregunta10":0,"Metas cuestionario pregunta11":0,"Metas cuestionario pregunta12":1,"Metas cuestionario pregunta13":0,"Metas cuestionario pregunta14":0,"Metas cuestionario pregunta15":4,"Metas cuestionario pregunta16":3,"Metas cuestionario pregunta17":4,"Metas cuestionario pregunta18":4,"Metas cuestionario pregunta19":4,"Metas cuestionario pregunta20":3},"question_order":[0,1,2,3,4,5,6,7,8,9,10,11,12,13,14,15,16,17,18,19],"trial_type":"survey-likert","trial_index":55,"time_elapsed":3231281,"internal_node_id":"0.0-8.0"},{"rt":2776.5999999940395,"stimulus":"<p style=\"font-size: 120%\">Gracias por responder el cuestionario. Ahora te invitamos a seguir con el juego, que es muy breve.<br><br></p>","response":0,"trial_type":"html-button-response","trial_index":56,"time_elapsed":3234066,"internal_node_id":"0.0-9.0"},{"rt":8380.399999976158,"stimulus":"<h1>Juego</h1><p style=\"font-size: 120%;\">A continuación se te presentarán 16 pequeñas historias.<br>Por favor lee el texto presentado en cada una de ellas y luego haz click en el objeto de tu elección.<br>Si estás listo(a),<span style=\"color:red;\"> haz click en \"comenzar\"</span>.</p>","response":0,"trial_type":"html-button-response","trial_index":57,"time_elapsed":3242449,"internal_node_id":"0.0-10.0"},{"rt":19473.59999999404,"grid":[[1,1,1],[1,1,1],[1,1,1],[1,1,1],[1,1,1],[1,1,1],[1,1,1],[1,1,1],[1,1,1]],"target":[0,0],"response":[1,1],"correct":false,"juego":6,"trial_type":"serial-reaction-time-mouse","trial_index":58,"time_elapsed":3261929,"internal_node_id":"0.0-11.0-0.0"},{"rt":12760.699999988079,"grid":[[1,1,1],[1,1,1],[1,1,1],[1,1,1],[1,1,1],[1,1,1],[1,1,1],[1,1,1],[1,1,1]],"target":[0,0],"response":[1,1],"correct":false,"juego":5,"trial_type":"serial-reaction-time-mouse","trial_index":59,"time_elapsed":3274694,"internal_node_id":"0.0-11.0-1.0"},{"rt":140330.29999998212,"grid":[[1,1,1],[1,1,1],[1,1,1],[1,1,1],[1,1,1],[1,1,1],[1,1,1],[1,1,1],[1,1,1]],"target":[0,0],"response":[3,1],"correct":false,"juego":13,"trial_type":"serial-reaction-time-mouse","trial_index":60,"time_elapsed":3415030,"internal_node_id":"0.0-11.0-2.0"},{"rt":8482.90000000596,"grid":[[1,1,1,1]],"target":[0,0],"response":[0,1],"correct":false,"juego":1,"trial_type":"serial-reaction-time-mouse","trial_index":61,"time_elapsed":3423516,"internal_node_id":"0.0-11.0-3.0"},{"rt":24320.29999998212,"grid":[[1,1,1],[1,1,1],[1,1,1],[1,1,1],[1,1,1],[1,1,1],[1,1,1],[1,1,1],[1,1,1]],"target":[0,0],"response":[3,2],"correct":false,"juego":10,"trial_type":"serial-reaction-time-mouse","trial_index":62,"time_elapsed":3447840,"internal_node_id":"0.0-11.0-4.0"},{"rt":8278.90000000596,"grid":[[1,1,1,1]],"target":[0,0],"response":[0,1],"correct":false,"juego":2,"trial_type":"serial-reaction-time-mouse","trial_index":63,"time_elapsed":3456121,"internal_node_id":"0.0-11.0-5.0"},{"rt":20159.80000001192,"grid":[[1,1,1,1],[1,1,1,1],[1,1,1,1],[1,1,1,1],[1,1,1,1],[1,1,1,1],[1,1,1,1],[1,1,1,1],[1,1,1,1]],"target":[0,0],"response":[3,2],"correct":false,"juego":14,"trial_type":"serial-reaction-time-mouse","trial_index":64,"time_elapsed":3476286,"internal_node_id":"0.0-11.0-6.0"},{"rt":21362.600000023842,"grid":[[1,1,1,1],[1,1,1,1],[1,1,1,1],[1,1,1,1],[1,1,1,1],[1,1,1,1],[1,1,1,1],[1,1,1,1],[1,1,1,1]],"target":[0,0],"response":[3,2],"correct":false,"juego":15,"trial_type":"serial-reaction-time-mouse","trial_index":65,"time_elapsed":3497654,"internal_node_id":"0.0-11.0-7.0"},{"rt":6780.5,"grid":[[1],[1],[1],[1]],"target":[0,0],"response":[1,0],"correct":false,"juego":4,"trial_type":"serial-reaction-time-mouse","trial_index":66,"time_elapsed":3504437,"internal_node_id":"0.0-11.0-8.0"},{"rt":9435.699999988079,"grid":[[1,1,1,1]],"target":[0,0],"response":[0,1],"correct":false,"juego":7,"trial_type":"serial-reaction-time-mouse","trial_index":67,"time_elapsed":3513875,"internal_node_id":"0.0-11.0-9.0"},{"rt":1896,"grid":[[1,1,1,1]],"target":[0,0],"response":[0,0],"correct":true,"juego":9,"trial_type":"serial-reaction-time-mouse","trial_index":68,"time_elapsed":3515773,"internal_node_id":"0.0-11.0-10.0"},{"rt":1511.300000011921,"grid":[[1,1,1,1]],"target":[0,0],"response":[0,1],"correct":false,"juego":8,"trial_type":"serial-reaction-time-mouse","trial_index":69,"time_elapsed":3517288,"internal_node_id":"0.0-11.0-11.0"},{"rt":11135.90000000596,"grid":[[1,1,1,1]],"target":[0,0],"response":[0,3],"correct":false,"juego":12,"trial_type":"serial-reaction-time-mouse","trial_index":70,"time_elapsed":3528427,"internal_node_id":"0.0-11.0-12.0"},{"rt":4304.199999988079,"grid":[[1,1,1,1]],"target":[0,0],"response":[0,0],"correct":true,"juego":3,"trial_type":"serial-reaction-time-mouse","trial_index":71,"time_elapsed":3532734,"internal_node_id":"0.0-11.0-13.0"},{"rt":25905.40000000596,"grid":[[1,1,1,1]],"target":[0,0],"response":[0,0],"correct":true,"juego":11,"trial_type":"serial-reaction-time-mouse","trial_index":72,"time_elapsed":3558641,"internal_node_id":"0.0-11.0-14.0"},{"rt":6080.0999999940395,"stimulus":"<h1>Último juego</h1><p style=\"font-size: 130%;\">Tienes <span style=\"color:red\">25</span> segundos para recordar los pares de palabras que aparecerán a continuación. <br></p>","response":0,"trial_type":"html-button-response","trial_index":73,"time_elapsed":3564728,"internal_node_id":"0.0-12.0"},{"animation_sequence":[{"stimulus":"imagen_juego_interferencia.jpg","time":521.5999999940395},{"stimulus":"imagen_juego_interferencia.jpg","time":1008.9000000059605},{"stimulus":"imagen_juego_interferencia.jpg","time":1505.9000000059605},{"stimulus":"imagen_juego_interferencia.jpg","time":2003.5},{"stimulus":"imagen_juego_interferencia.jpg","time":2505.5999999940395},{"stimulus":"imagen_juego_interferencia.jpg","time":3009.4000000059605},{"stimulus":"imagen_juego_interferencia.jpg","time":3508.9000000059605},{"stimulus":"imagen_juego_interferencia.jpg","time":4002.300000011921},{"stimulus":"imagen_juego_interferencia.jpg","time":4511.800000011921},{"stimulus":"imagen_juego_interferencia.jpg","time":5006.9000000059605},{"stimulus":"imagen_juego_interferencia.jpg","time":5506.5},{"stimulus":"imagen_juego_interferencia.jpg","time":6006.5999999940395},{"stimulus":"imagen_juego_interferencia.jpg","time":6502.199999988079},{"stimulus":"imagen_juego_interferencia.jpg","time":7009.0999999940395},{"stimulus":"imagen_juego_interferencia.jpg","time":7515.0999999940395},{"stimulus":"imagen_juego_interferencia.jpg","time":8012.300000011921},{"stimulus":"imagen_juego_interferencia.jpg","time":8515.800000011921},{"stimulus":"imagen_juego_interferencia.jpg","time":9007.199999988079},{"stimulus":"imagen_juego_interferencia.jpg","time":9501.699999988079},{"stimulus":"imagen_juego_interferencia.jpg","time":10007},{"stimulus":"imagen_juego_interferencia.jpg","time":10517.800000011921},{"stimulus":"imagen_juego_interferencia.jpg","time":11007.300000011921},{"stimulus":"imagen_juego_interferencia.jpg","time":11513.199999988079},{"stimulus":"imagen_juego_interferencia.jpg","time":12005.59999999404},{"stimulus":"imagen_juego_interferencia.jpg","time":12517.699999988079},{"stimulus":"imagen_juego_interferencia.jpg","time":13007.199999988079},{"stimulus":"imagen_juego_interferencia.jpg","time":13514.5},{"stimulus":"imagen_juego_interferencia.jpg","time":14004.199999988079},{"stimulus":"imagen_juego_interferencia.jpg","time":14505.300000011921},{"stimulus":"imagen_juego_interferencia.jpg","time":15003.800000011921},{"stimulus":"imagen_juego_interferencia.jpg","time":15501.59999999404},{"stimulus":"imagen_juego_interferencia.jpg","time":16004.40000000596},{"stimulus":"imagen_juego_interferencia.jpg","time":16517},{"stimulus":"imagen_juego_interferencia.jpg","time":17004.40000000596},{"stimulus":"imagen_juego_interferencia.jpg","time":17516.90000000596},{"stimulus":"imagen_juego_interferencia.jpg","time":18004.5},{"stimulus":"imagen_juego_interferencia.jpg","time":18502.19999998808},{"stimulus":"imagen_juego_interferencia.jpg","time":19007.5},{"stimulus":"imagen_juego_interferencia.jpg","time":19517},{"stimulus":"imagen_juego_interferencia.jpg","time":20005.59999999404},{"stimulus":"imagen_juego_interferencia.jpg","time":20508.30000001192},{"stimulus":"imagen_juego_interferencia.jpg","time":21007.09999999404},{"stimulus":"imagen_juego_interferencia.jpg","time":21507.59999999404},{"stimulus":"imagen_juego_interferencia.jpg","time":22016.80000001192},{"stimulus":"imagen_juego_interferencia.jpg","time":22514.80000001192},{"stimulus":"imagen_juego_interferencia.jpg","time":23003.5},{"stimulus":"imagen_juego_interferencia.jpg","time":23514},{"stimulus":"imagen_juego_interferencia.jpg","time":24005.19999998808},{"stimulus":"imagen_juego_interferencia.jpg","time":24513.90000000596},{"stimulus":"imagen_juego_interferencia.jpg","time":25005.90000000596}],"response":[],"trial_type":"animation","trial_index":74,"time_elapsed":3590241,"internal_node_id":"0.0-13.0"},{"rt":8779.300000011921,"responses":"{\"pregunta interferencia2\":\"cucaracha\"}","question_order":"[0]","trial_type":"survey-multi-choice-cuest","trial_index":75,"time_elapsed":3599023,"internal_node_id":"0.0-14.0-0.0"},{"rt":4912,"responses":"{\"pregunta interferencia4\":\"contador\"}","question_order":"[0]","trial_type":"survey-multi-choice-cuest","trial_index":76,"time_elapsed":3603939,"internal_node_id":"0.0-14.0-1.0"},{"rt":3806.800000011921,"responses":"{\"pregunta interferencia3\":\"aluminio\"}","question_order":"[0]","trial_type":"survey-multi-choice-cuest","trial_index":77,"time_elapsed":3607749,"internal_node_id":"0.0-14.0-2.0"},{"rt":15463.59999999404,"responses":"{\"pregunta interferencia1\":\"naranja\"}","question_order":"[0]","trial_type":"survey-multi-choice-cuest","trial_index":78,"time_elapsed":3623215,"internal_node_id":"0.0-14.0-3.0"},{"success":true,"trial_type":"fullscreen","trial_index":79,"time_elapsed":3624220,"internal_node_id":"0.0-15.0"}]