[{"rt":3679,"stimulus":"<h1 style=\"color:red; margin-top: 3%;\">¡Bienvenido(a)!</h1><p style=\"text-align:left; justify-content:space-between; margin-right: 5%; margin-left: 5%; margin-top: 5%\"> Antes de empezar el estudio, necesitamos que nos confirmes que estás de acuerdo con participar. Recuerda que tu participación es 100% voluntaria y que lo único que te pedimos es responder lo mejor que puedas. Recuerda también que el estudio incluye:</p><ol style=\"text-align:left; justify-content:space-between; margin-right: 5%; margin-left: 5%;\"><li> un ejercicio de resolución de preguntas de selección múltiple (30’),</li><li>un cuestionario breve (5’),</li><li>un juego muy breve (3’),</li></ol><p style=\"text-align:left; justify-content:space-between; margin-right: 5%; margin-left: 5%;\">Si quieres participar, haz clic en “Acepto” luego de leer lo siguiente:<br></p><p style=\"text-align:left; justify-content:space-between; margin-right: 5%; margin-left: 5%;\">Acepto participar en el estudio “Estrategias de lectura y resolución de preguntas de selección múltiple”, en los términos aquí señalados:<br></p><p style=\"text-align:left; justify-content:space-between; margin-right: 5%; margin-left: 5%;\"><a href=\"http://ciae.uchile.cl/download.php?file=noticias/Asentimiento.pdf\" target=\"_blank\">Link a la hoja de información del Consentimiento.</a></p><p style=\"text-align:left; justify-content:space-between; margin-right: 5%; margin-left: 5%;\">Declaro que he leído (o se me ha leído) y (he) comprendido, las condiciones de mi participación en este estudio. He tenido la oportunidad de hacer preguntas y éstas han sido respondidas. No tengo dudas al respecto.</p>","response":0,"condicion_MCQ":6,"condicion_JUEGO":18,"condicion_INTER":18,"numero_participante":18,"numero_version":1,"dimx":375,"dimy":667,"color_profundidad":32,"pixel_profundidad":32,"Browser":"Apple Safari","dia":3,"mes":5,"hora":1,"minuto":15,"segundo":48,"trial_type":"html-button-response","trial_index":0,"time_elapsed":3686,"internal_node_id":"0.0-0.0"},{"success":true,"trial_type":"fullscreen","trial_index":1,"time_elapsed":7051,"internal_node_id":"0.0-1.0"},{"rt":66079,"responses":"{\"Nombres\":\"Valentina \",\"Apellidos\":\"Pellizzon \",\"Edad\":\"19\",\"Sexo\":\"Mujer\",\"Curso\":\"204\",\"Colegio\":\"Universidad Andrés Bello\",\"Contacto\":\"valentinapellizzon@gmail.com\"}","trial_type":"survey-text","trial_index":2,"time_elapsed":73155,"internal_node_id":"0.0-2.0"},{"success":true,"timeout":false,"failed_images":[],"failed_audio":[],"failed_video":[],"trial_type":"preload","trial_index":3,"time_elapsed":77004,"internal_node_id":"0.0-3.0"},{"rt":16580,"stimulus":"<h1 style:\"margin-top: 5%;\">Ejercicios de Comprensión de Lectura de la Universidad de Chile</h1><p style=\"font-size: 120%;\">En esta actividad, debes responder 24 preguntas de selección múltiple. Cada pregunta presenta 4 respuestas alternativas, pero sólo una de ellas es correcta. Por lo tanto, debes escoger una sola alternativa para cada pregunta. Además, debes reportar qué tan seguro(a) estás de la respuesta que das, con un:</p><ol style=\"font-size: 120%;text-align:left;margin-left: 40%;\"><li>No estoy seguro(a) para nada</li><li>No estoy muy seguro(a)</li><li>Estoy bastante seguro(a)</li><li>Estoy totalmente seguro(a)</li></ol><p style=\"font-size: 120%;\">Por favor lee bien los enunciados antes de responder. ¡Éxito!</p>","response":0,"trial_type":"html-button-response","trial_index":4,"time_elapsed":93585,"internal_node_id":"0.0-4.0"},{"rt":37814,"responses":"{\"pregunta3\":\"b) El inicio de la dinastía Chang.\"}","question_order":"[0]","trial_type":"survey-multi-choice","trial_index":5,"time_elapsed":131410,"internal_node_id":"0.0-5.0-0.0"},{"rt":2757,"response":{"pregunta3 likert":3},"question_order":[0],"trial_type":"survey-likert","trial_index":6,"time_elapsed":134173,"internal_node_id":"0.0-5.0-1.0"},{"rt":36862,"responses":"{\"pregunta1\":\"b) Aportan informaciones con las que se reconstruye el personaje dentro de un relato.\"}","question_order":"[0]","trial_type":"survey-multi-choice","trial_index":7,"time_elapsed":171039,"internal_node_id":"0.0-5.0-2.0"},{"rt":2245,"response":{"pregunta1 likert":3},"question_order":[0],"trial_type":"survey-likert","trial_index":8,"time_elapsed":173290,"internal_node_id":"0.0-5.0-3.0"},{"rt":47345,"responses":"{\"pregunta18\":\"d) El receptor es habitualmente pasivo frente a la publicidad.\"}","question_order":"[0]","trial_type":"survey-multi-choice","trial_index":9,"time_elapsed":220639,"internal_node_id":"0.0-5.0-4.0"},{"rt":2232.999999999971,"response":{"pregunta18 likert":3},"question_order":[0],"trial_type":"survey-likert","trial_index":10,"time_elapsed":222876,"internal_node_id":"0.0-5.0-5.0"},{"rt":73649.99999999997,"responses":"{\"pregunta16\":\"c) Bomberos debería tener acceso a un seguro médico, al que pueda recurrir en caso de accidente.\"}","question_order":"[0]","trial_type":"survey-multi-choice","trial_index":11,"time_elapsed":296559,"internal_node_id":"0.0-5.0-6.0"},{"rt":2455,"response":{"pregunta16 likert":2},"question_order":[0],"trial_type":"survey-likert","trial_index":12,"time_elapsed":299020,"internal_node_id":"0.0-5.0-7.0"},{"rt":81532.00000000006,"responses":"{\"pregunta4\":\"c) En la literatura como en la vida, lo importante son las preguntas.\"}","question_order":"[0]","trial_type":"survey-multi-choice","trial_index":13,"time_elapsed":380557,"internal_node_id":"0.0-5.0-8.0"},{"rt":3029,"response":{"pregunta4 likert":2},"question_order":[0],"trial_type":"survey-likert","trial_index":14,"time_elapsed":383590,"internal_node_id":"0.0-5.0-9.0"},{"rt":32565,"responses":"{\"pregunta22\":\"a) Se necesita un marco legal para delimitar lo público y lo privado en materia informativa.\"}","question_order":"[0]","trial_type":"survey-multi-choice","trial_index":15,"time_elapsed":416158,"internal_node_id":"0.0-5.0-10.0"},{"rt":1962,"response":{"pregunta22 likert":3},"question_order":[0],"trial_type":"survey-likert","trial_index":16,"time_elapsed":418129,"internal_node_id":"0.0-5.0-11.0"},{"rt":147232,"responses":"{\"pregunta15\":\"d) la creación de elementos químicos es altamente contaminante.\"}","question_order":"[0]","trial_type":"survey-multi-choice","trial_index":17,"time_elapsed":565364,"internal_node_id":"0.0-5.0-12.0"},{"rt":2678,"response":{"pregunta15 likert":1},"question_order":[0],"trial_type":"survey-likert","trial_index":18,"time_elapsed":568047,"internal_node_id":"0.0-5.0-13.0"},{"rt":37631,"responses":"{\"pregunta11\":\"b) Provocar el deseo de la adquisición vertiginosa.\"}","question_order":"[0]","trial_type":"survey-multi-choice","trial_index":19,"time_elapsed":605682,"internal_node_id":"0.0-5.0-14.0"},{"rt":2328.9999999998836,"response":{"pregunta11 likert":3},"question_order":[0],"trial_type":"survey-likert","trial_index":20,"time_elapsed":608016,"internal_node_id":"0.0-5.0-15.0"},{"rt":99051.00000000012,"responses":"{\"pregunta13\":\"b) Al premio merecido después de tantos esfuerzos.\"}","question_order":"[0]","trial_type":"survey-multi-choice","trial_index":21,"time_elapsed":707071,"internal_node_id":"0.0-5.0-16.0"},{"rt":2005,"response":{"pregunta13 likert":1},"question_order":[0],"trial_type":"survey-likert","trial_index":22,"time_elapsed":709081,"internal_node_id":"0.0-5.0-17.0"},{"rt":36454.99999999988,"responses":"{\"pregunta9\":\"a) preparar los recuerdos del mañana.\"}","question_order":"[0]","trial_type":"survey-multi-choice","trial_index":23,"time_elapsed":745543,"internal_node_id":"0.0-5.0-18.0"},{"rt":2408,"response":{"pregunta9 likert":1},"question_order":[0],"trial_type":"survey-likert","trial_index":24,"time_elapsed":747955,"internal_node_id":"0.0-5.0-19.0"},{"rt":40447,"responses":"{\"pregunta6\":\"d) Promover la asistencia a un evento específico de decoración a través de una atractiva descripción.\"}","question_order":"[0]","trial_type":"survey-multi-choice","trial_index":25,"time_elapsed":788407,"internal_node_id":"0.0-5.0-20.0"},{"rt":3579,"response":{"pregunta6 likert":3},"question_order":[0],"trial_type":"survey-likert","trial_index":26,"time_elapsed":791990,"internal_node_id":"0.0-5.0-21.0"},{"rt":51447,"responses":"{\"pregunta5\":\"d) Los momentos triviales de los viajes, en la escritura se vuelven significativos.\"}","question_order":"[0]","trial_type":"survey-multi-choice","trial_index":27,"time_elapsed":843442,"internal_node_id":"0.0-5.0-22.0"},{"rt":2295.0000000001164,"response":{"pregunta5 likert":2},"question_order":[0],"trial_type":"survey-likert","trial_index":28,"time_elapsed":845742,"internal_node_id":"0.0-5.0-23.0"},{"rt":42732,"responses":"{\"pregunta21\":\"c) El TLC causará una completa transformación de la economía chilena.\"}","question_order":"[0]","trial_type":"survey-multi-choice","trial_index":29,"time_elapsed":888479,"internal_node_id":"0.0-5.0-24.0"},{"rt":2160,"response":{"pregunta21 likert":2},"question_order":[0],"trial_type":"survey-likert","trial_index":30,"time_elapsed":890644,"internal_node_id":"0.0-5.0-25.0"},{"rt":64065,"responses":"{\"pregunta2\":\"c) A la relación entre pensamiento y estructura social.\"}","question_order":"[0]","trial_type":"survey-multi-choice","trial_index":31,"time_elapsed":954713,"internal_node_id":"0.0-5.0-26.0"},{"rt":1896,"response":{"pregunta2 likert":2},"question_order":[0],"trial_type":"survey-likert","trial_index":32,"time_elapsed":956618,"internal_node_id":"0.0-5.0-27.0"},{"rt":63463.00000000012,"responses":"{\"pregunta12\":\"b) Homenajear a quienes murieron.\"}","question_order":"[0]","trial_type":"survey-multi-choice","trial_index":33,"time_elapsed":1020085,"internal_node_id":"0.0-5.0-28.0"},{"rt":2058.9999999998836,"response":{"pregunta12 likert":3},"question_order":[0],"trial_type":"survey-likert","trial_index":34,"time_elapsed":1022149,"internal_node_id":"0.0-5.0-29.0"},{"rt":45381.00000000023,"responses":"{\"pregunta19\":\"c) llevan un control grupal de su embarazo.\"}","question_order":"[0]","trial_type":"survey-multi-choice","trial_index":35,"time_elapsed":1067534,"internal_node_id":"0.0-5.0-30.0"},{"rt":2495.000000000233,"response":{"pregunta19 likert":3},"question_order":[0],"trial_type":"survey-likert","trial_index":36,"time_elapsed":1070034,"internal_node_id":"0.0-5.0-31.0"},{"rt":57548,"responses":"{\"pregunta23\":\"b) el jardinero estará muerto al día siguiente.\"}","question_order":"[0]","trial_type":"survey-multi-choice","trial_index":37,"time_elapsed":1127586,"internal_node_id":"0.0-5.0-32.0"},{"rt":2111.999999999767,"response":{"pregunta23 likert":1},"question_order":[0],"trial_type":"survey-likert","trial_index":38,"time_elapsed":1129708,"internal_node_id":"0.0-5.0-33.0"},{"rt":58944,"responses":"{\"pregunta17\":\"a) A la inexistencia de un recinto adecuado para el recital.\"}","question_order":"[0]","trial_type":"survey-multi-choice","trial_index":39,"time_elapsed":1188685,"internal_node_id":"0.0-5.0-34.0"},{"rt":4212,"response":{"pregunta17 likert":2},"question_order":[0],"trial_type":"survey-likert","trial_index":40,"time_elapsed":1192902,"internal_node_id":"0.0-5.0-35.0"},{"rt":42764,"responses":"{\"pregunta7\":\"d) se da como existente, y sólo se discute su relación con el cuerpo.\"}","question_order":"[0]","trial_type":"survey-multi-choice","trial_index":41,"time_elapsed":1235671,"internal_node_id":"0.0-5.0-36.0"},{"rt":2845,"response":{"pregunta7 likert":2},"question_order":[0],"trial_type":"survey-likert","trial_index":42,"time_elapsed":1238521,"internal_node_id":"0.0-5.0-37.0"},{"rt":26246,"responses":"{\"pregunta20\":\"a) para Aristóteles la virtud estaba en el justo equilibrio.\"}","question_order":"[0]","trial_type":"survey-multi-choice","trial_index":43,"time_elapsed":1264772,"internal_node_id":"0.0-5.0-38.0"},{"rt":7412,"response":{"pregunta20 likert":2},"question_order":[0],"trial_type":"survey-likert","trial_index":44,"time_elapsed":1272194,"internal_node_id":"0.0-5.0-39.0"},{"rt":43162.00000000023,"responses":"{\"pregunta14\":\"c) el mejor emperador es el que está muerto.\"}","question_order":"[0]","trial_type":"survey-multi-choice","trial_index":45,"time_elapsed":1315362,"internal_node_id":"0.0-5.0-40.0"},{"rt":4058,"response":{"pregunta14 likert":2},"question_order":[0],"trial_type":"survey-likert","trial_index":46,"time_elapsed":1319425,"internal_node_id":"0.0-5.0-41.0"},{"rt":27749,"responses":"{\"pregunta8\":\"a) El ser humano se comporta de acuerdo con las circunstancias.\"}","question_order":"[0]","trial_type":"survey-multi-choice","trial_index":47,"time_elapsed":1347179,"internal_node_id":"0.0-5.0-42.0"},{"rt":2024,"response":{"pregunta8 likert":2},"question_order":[0],"trial_type":"survey-likert","trial_index":48,"time_elapsed":1349209,"internal_node_id":"0.0-5.0-43.0"},{"rt":32097.000000000233,"responses":"{\"pregunta10\":\"a) ritualistas y obsesivos.\"}","question_order":"[0]","trial_type":"survey-multi-choice","trial_index":49,"time_elapsed":1381311,"internal_node_id":"0.0-5.0-44.0"},{"rt":2145,"response":{"pregunta10 likert":2},"question_order":[0],"trial_type":"survey-likert","trial_index":50,"time_elapsed":1383461,"internal_node_id":"0.0-5.0-45.0"},{"rt":41997,"responses":"{\"pregunta24\":\"b) para el mexicano, la muerte es cotidiana.\"}","question_order":"[0]","trial_type":"survey-multi-choice","trial_index":51,"time_elapsed":1425462,"internal_node_id":"0.0-5.0-46.0"},{"rt":2163,"response":{"pregunta24 likert":2},"question_order":[0],"trial_type":"survey-likert","trial_index":52,"time_elapsed":1427630,"internal_node_id":"0.0-5.0-47.0"}]