[{"rt":4160.195000000385,"stimulus":"<h1 style=\"color:red; margin-top: 3%;\">¡Bienvenido(a)!</h1><p style=\"text-align:left; justify-content:space-between; margin-right: 5%; margin-left: 5%; margin-top: 5%\"> Antes de empezar el estudio, necesitamos que nos confirmes que estás de acuerdo con participar. Recuerda que tu participación es 100% voluntaria y que lo único que te pedimos es responder lo mejor que puedas. Recuerda también que el estudio incluye:</p><ol style=\"text-align:left; justify-content:space-between; margin-right: 5%; margin-left: 5%;\"><li> un ejercicio de resolución de preguntas de selección múltiple (30’),</li><li>un cuestionario breve (5’),</li><li>un juego muy breve (3’),</li></ol><p style=\"text-align:left; justify-content:space-between; margin-right: 5%; margin-left: 5%;\">Si quieres participar, haz clic en “Acepto” luego de leer lo siguiente:<br></p><p style=\"text-align:left; justify-content:space-between; margin-right: 5%; margin-left: 5%;\">Acepto participar en el estudio “Estrategias de lectura y resolución de preguntas de selección múltiple”, en los términos aquí señalados:<br></p><p style=\"text-align:left; justify-content:space-between; margin-right: 5%; margin-left: 5%;\"><a href=\"http://ciae.uchile.cl/download.php?file=noticias/Asentimiento.pdf\" target=\"_blank\">Link a la hoja de información del Consentimiento.</a></p><p style=\"text-align:left; justify-content:space-between; margin-right: 5%; margin-left: 5%;\">Declaro que he leído (o se me ha leído) y (he) comprendido, las condiciones de mi participación en este estudio. He tenido la oportunidad de hacer preguntas y éstas han sido respondidas. No tengo dudas al respecto.</p>","response":0,"condicion_MCQ":6,"condicion_JUEGO":6,"condicion_INTER":6,"numero_participante":6,"numero_version":3,"dimx":1366,"dimy":768,"color_profundidad":24,"pixel_profundidad":24,"Browser":"Google Chrome","dia":3,"mes":5,"hora":17,"minuto":35,"segundo":19,"trial_type":"html-button-response","trial_index":0,"time_elapsed":4168,"internal_node_id":"0.0-0.0"},{"success":true,"trial_type":"fullscreen","trial_index":1,"time_elapsed":6870,"internal_node_id":"0.0-1.0"},{"rt":171359.29000000033,"responses":"{\"Nombres\":\"Sofía Andrea\",\"Apellidos\":\"Peña Ford\",\"Edad\":\"18\",\"Sexo\":\"Mujer\",\"Curso\":\"sección 205\",\"Colegio\":\"Universidad Nacional Andrés Bello\",\"Contacto\":\"sofiapford@gmail.com\"}","trial_type":"survey-text","trial_index":2,"time_elapsed":178256,"internal_node_id":"0.0-2.0"},{"success":true,"timeout":false,"failed_images":[],"failed_audio":[],"failed_video":[],"trial_type":"preload","trial_index":3,"time_elapsed":179978,"internal_node_id":"0.0-3.0"},{"rt":6523.265000003448,"stimulus":"<h1 style:\"margin-top: 5%;\">Ejercicios de Comprensión de Lectura de la Universidad de Chile</h1><p style=\"font-size: 120%;\">En esta actividad, debes responder 24 preguntas de selección múltiple. Cada pregunta presenta 4 respuestas alternativas, pero sólo una de ellas es correcta. Por lo tanto, debes escoger una sola alternativa para cada pregunta. Además, debes reportar qué tan seguro(a) estás de la respuesta que das, con un:</p><ol style=\"font-size: 120%;text-align:left;margin-left: 40%;\"><li>No estoy seguro(a) para nada</li><li>No estoy muy seguro(a)</li><li>Estoy bastante seguro(a)</li><li>Estoy totalmente seguro(a)</li></ol><p style=\"font-size: 120%;\">Por favor lee bien los enunciados antes de responder. ¡Éxito!</p>","response":0,"trial_type":"html-button-response","trial_index":4,"time_elapsed":186503,"internal_node_id":"0.0-4.0"},{"rt":66347.55000000223,"responses":"{\"pregunta10\":\"a) ritualistas y obsesivos.\"}","question_order":"[0]","trial_type":"survey-multi-choice","trial_index":5,"time_elapsed":252855,"internal_node_id":"0.0-5.0-0.0"},{"rt":4985.065000000759,"response":{"pregunta10 likert":2},"question_order":[0],"trial_type":"survey-likert","trial_index":6,"time_elapsed":257845,"internal_node_id":"0.0-5.0-1.0"},{"rt":80929.20999999839,"responses":"{\"pregunta4\":\"c) En la literatura como en la vida, lo importante son las preguntas.\"}","question_order":"[0]","trial_type":"survey-multi-choice","trial_index":7,"time_elapsed":338779,"internal_node_id":"0.0-5.0-2.0"},{"rt":2861.2299999986426,"response":{"pregunta4 likert":3},"question_order":[0],"trial_type":"survey-likert","trial_index":8,"time_elapsed":341645,"internal_node_id":"0.0-5.0-3.0"},{"rt":51107.819999997504,"responses":"{\"pregunta22\":\"a) Se necesita un marco legal para delimitar lo público y lo privado en materia informativa.\"}","question_order":"[0]","trial_type":"survey-multi-choice","trial_index":9,"time_elapsed":392758,"internal_node_id":"0.0-5.0-4.0"},{"rt":2617.435000000114,"response":{"pregunta22 likert":2},"question_order":[0],"trial_type":"survey-likert","trial_index":10,"time_elapsed":395380,"internal_node_id":"0.0-5.0-5.0"},{"rt":44159.090000001015,"responses":"{\"pregunta16\":\"d) Por el riesgo que corren diariamente, los bomberos deberían tener mejores condiciones de seguridad.\"}","question_order":"[0]","trial_type":"survey-multi-choice","trial_index":11,"time_elapsed":439543,"internal_node_id":"0.0-5.0-6.0"},{"rt":2725.9999999987194,"response":{"pregunta16 likert":2},"question_order":[0],"trial_type":"survey-likert","trial_index":12,"time_elapsed":442274,"internal_node_id":"0.0-5.0-7.0"},{"rt":98944.46999999852,"responses":"{\"pregunta20\":\"d) el hombre excesivo es inmoral.\"}","question_order":"[0]","trial_type":"survey-multi-choice","trial_index":13,"time_elapsed":541222,"internal_node_id":"0.0-5.0-8.0"},{"rt":2555.454999997979,"response":{"pregunta20 likert":2},"question_order":[0],"trial_type":"survey-likert","trial_index":14,"time_elapsed":543782,"internal_node_id":"0.0-5.0-9.0"},{"rt":38243.46499999962,"responses":"{\"pregunta15\":\"c) el uranio es el elemento natural con el mayor número de protones en el núcleo.\"}","question_order":"[0]","trial_type":"survey-multi-choice","trial_index":15,"time_elapsed":582031,"internal_node_id":"0.0-5.0-10.0"},{"rt":2498.909999998403,"response":{"pregunta15 likert":3},"question_order":[0],"trial_type":"survey-likert","trial_index":16,"time_elapsed":584535,"internal_node_id":"0.0-5.0-11.0"},{"rt":37662.05999999866,"responses":"{\"pregunta17\":\"d) A la influencia de grupos que rechazaban su música.\"}","question_order":"[0]","trial_type":"survey-multi-choice","trial_index":17,"time_elapsed":622201,"internal_node_id":"0.0-5.0-12.0"},{"rt":5695.810000000987,"response":{"pregunta17 likert":3},"question_order":[0],"trial_type":"survey-likert","trial_index":18,"time_elapsed":627901,"internal_node_id":"0.0-5.0-13.0"},{"rt":63811.46500000241,"responses":"{\"pregunta23\":\"b) el jardinero estará muerto al día siguiente.\"}","question_order":"[0]","trial_type":"survey-multi-choice","trial_index":19,"time_elapsed":691717,"internal_node_id":"0.0-5.0-14.0"},{"rt":3227.535000001779,"response":{"pregunta23 likert":2},"question_order":[0],"trial_type":"survey-likert","trial_index":20,"time_elapsed":694948,"internal_node_id":"0.0-5.0-15.0"},{"rt":72337.61999999848,"responses":"{\"pregunta7\":\"d) se da como existente, y sólo se discute su relación con el cuerpo.\"}","question_order":"[0]","trial_type":"survey-multi-choice","trial_index":21,"time_elapsed":767291,"internal_node_id":"0.0-5.0-16.0"},{"rt":2404.375000001979,"response":{"pregunta7 likert":3},"question_order":[0],"trial_type":"survey-likert","trial_index":22,"time_elapsed":769699,"internal_node_id":"0.0-5.0-17.0"},{"rt":88863.09500000067,"responses":"{\"pregunta14\":\"c) el mejor emperador es el que está muerto.\"}","question_order":"[0]","trial_type":"survey-multi-choice","trial_index":23,"time_elapsed":858567,"internal_node_id":"0.0-5.0-18.0"},{"rt":2804.9400000018068,"response":{"pregunta14 likert":1},"question_order":[0],"trial_type":"survey-likert","trial_index":24,"time_elapsed":861377,"internal_node_id":"0.0-5.0-19.0"},{"rt":50771.77500000107,"responses":"{\"pregunta2\":\"c) A la relación entre pensamiento y estructura social.\"}","question_order":"[0]","trial_type":"survey-multi-choice","trial_index":25,"time_elapsed":912153,"internal_node_id":"0.0-5.0-20.0"},{"rt":3174.509999997099,"response":{"pregunta2 likert":1},"question_order":[0],"trial_type":"survey-likert","trial_index":26,"time_elapsed":915331,"internal_node_id":"0.0-5.0-21.0"},{"rt":80757.53999999876,"responses":"{\"pregunta3\":\"c) El inicio de la civilización china.\"}","question_order":"[0]","trial_type":"survey-multi-choice","trial_index":27,"time_elapsed":996094,"internal_node_id":"0.0-5.0-22.0"},{"rt":2646.4300000006333,"response":{"pregunta3 likert":2},"question_order":[0],"trial_type":"survey-likert","trial_index":28,"time_elapsed":998745,"internal_node_id":"0.0-5.0-23.0"},{"rt":55583.50499999861,"responses":"{\"pregunta9\":\"c) un recuerdo nostálgico.\"}","question_order":"[0]","trial_type":"survey-multi-choice","trial_index":29,"time_elapsed":1054334,"internal_node_id":"0.0-5.0-24.0"},{"rt":4338.14000000339,"response":{"pregunta9 likert":2},"question_order":[0],"trial_type":"survey-likert","trial_index":30,"time_elapsed":1058676,"internal_node_id":"0.0-5.0-25.0"},{"rt":41179.81000000145,"responses":"{\"pregunta24\":\"c) la muerte es distinta en las grandes ciudades.\"}","question_order":"[0]","trial_type":"survey-multi-choice","trial_index":31,"time_elapsed":1099861,"internal_node_id":"0.0-5.0-26.0"},{"rt":4201.639999999199,"response":{"pregunta24 likert":2},"question_order":[0],"trial_type":"survey-likert","trial_index":32,"time_elapsed":1104067,"internal_node_id":"0.0-5.0-27.0"},{"rt":66985.41499999934,"responses":"{\"pregunta19\":\"d) sufren dolores de espalda.\"}","question_order":"[0]","trial_type":"survey-multi-choice","trial_index":33,"time_elapsed":1171056,"internal_node_id":"0.0-5.0-28.0"},{"rt":2503.3200000035577,"response":{"pregunta19 likert":2},"question_order":[0],"trial_type":"survey-likert","trial_index":34,"time_elapsed":1173565,"internal_node_id":"0.0-5.0-29.0"},{"rt":90810.74500000244,"responses":"{\"pregunta5\":\"d) Los momentos triviales de los viajes, en la escritura se vuelven significativos.\"}","question_order":"[0]","trial_type":"survey-multi-choice","trial_index":35,"time_elapsed":1264380,"internal_node_id":"0.0-5.0-30.0"},{"rt":3342.454999998212,"response":{"pregunta5 likert":2},"question_order":[0],"trial_type":"survey-likert","trial_index":36,"time_elapsed":1267729,"internal_node_id":"0.0-5.0-31.0"},{"rt":19648.810000002384,"responses":"{\"pregunta1\":\"c) Enjuician la acción del narrador dentro del relato.\"}","question_order":"[0]","trial_type":"survey-multi-choice","trial_index":37,"time_elapsed":1287382,"internal_node_id":"0.0-5.0-32.0"},{"rt":6047.530000000028,"response":{"pregunta1 likert":0},"question_order":[0],"trial_type":"survey-likert","trial_index":38,"time_elapsed":1293434,"internal_node_id":"0.0-5.0-33.0"},{"rt":2677.064999999944,"responses":"{\"pregunta8\":\"a) El ser humano se comporta de acuerdo con las circunstancias.\"}","question_order":"[0]","trial_type":"survey-multi-choice","trial_index":39,"time_elapsed":1296115,"internal_node_id":"0.0-5.0-34.0"},{"rt":2497.204999999609,"response":{"pregunta8 likert":0},"question_order":[0],"trial_type":"survey-likert","trial_index":40,"time_elapsed":1298617,"internal_node_id":"0.0-5.0-35.0"},{"rt":6837.840000000084,"responses":"{\"pregunta21\":\"b) El TLC puede traer más dificultades que progresos.\"}","question_order":"[0]","trial_type":"survey-multi-choice","trial_index":41,"time_elapsed":1305460,"internal_node_id":"0.0-5.0-36.0"},{"rt":2700.4599999999627,"response":{"pregunta21 likert":0},"question_order":[0],"trial_type":"survey-likert","trial_index":42,"time_elapsed":1308164,"internal_node_id":"0.0-5.0-37.0"},{"rt":2613.9149999981746,"responses":"{\"pregunta13\":\"a) A la conveniencia de no postergar el descanso personal.\"}","question_order":"[0]","trial_type":"survey-multi-choice","trial_index":43,"time_elapsed":1310783,"internal_node_id":"0.0-5.0-38.0"},{"rt":2486.1449999988545,"response":{"pregunta13 likert":0},"question_order":[0],"trial_type":"survey-likert","trial_index":44,"time_elapsed":1313273,"internal_node_id":"0.0-5.0-39.0"},{"rt":2003.9049999976996,"responses":"{\"pregunta6\":\"d) Promover la asistencia a un evento específico de decoración a través de una atractiva descripción.\"}","question_order":"[0]","trial_type":"survey-multi-choice","trial_index":45,"time_elapsed":1315282,"internal_node_id":"0.0-5.0-40.0"},{"rt":2751.355000000447,"response":{"pregunta6 likert":0},"question_order":[0],"trial_type":"survey-likert","trial_index":46,"time_elapsed":1318038,"internal_node_id":"0.0-5.0-41.0"},{"rt":4330.865000003483,"responses":"{\"pregunta18\":\"a) La publicidad ejerce una influencia positiva sobre la sociedad.\"}","question_order":"[0]","trial_type":"survey-multi-choice","trial_index":47,"time_elapsed":1322372,"internal_node_id":"0.0-5.0-42.0"},{"rt":2806.2350000001024,"response":{"pregunta18 likert":0},"question_order":[0],"trial_type":"survey-likert","trial_index":48,"time_elapsed":1325183,"internal_node_id":"0.0-5.0-43.0"},{"rt":2539.75,"responses":"{\"pregunta11\":\"a) Deleitar a sus receptores por medio de la belleza y el confort\"}","question_order":"[0]","trial_type":"survey-multi-choice","trial_index":49,"time_elapsed":1327726,"internal_node_id":"0.0-5.0-44.0"},{"rt":2568.1800000020303,"response":{"pregunta11 likert":0},"question_order":[0],"trial_type":"survey-likert","trial_index":50,"time_elapsed":1330299,"internal_node_id":"0.0-5.0-45.0"},{"rt":6855.279999999795,"responses":"{\"pregunta12\":\"b) Homenajear a quienes murieron.\"}","question_order":"[0]","trial_type":"survey-multi-choice","trial_index":51,"time_elapsed":1337158,"internal_node_id":"0.0-5.0-46.0"},{"rt":4459.009999998612,"response":{"pregunta12 likert":0},"question_order":[0],"trial_type":"survey-likert","trial_index":52,"time_elapsed":1341622,"internal_node_id":"0.0-5.0-47.0"},{"rt":1952.0749999973923,"stimulus":"<p style=\"font-size: 120%\">Gracias por completar esta etapa del estudio. Ahora te invitamos a responder el cuestionario.<br><br></p>","response":0,"trial_type":"html-button-response","trial_index":53,"time_elapsed":1343585,"internal_node_id":"0.0-6.0"},{"rt":5175.399999999907,"stimulus":"<h1 style=\"margin-top: 5%\">Cuestionario para la Evaluación de Metas Académicas</h1><p style=\"font-size: 120%; margin-left: 3%; margin-top: 5%\">Este es un cuestionario que permite conocer cuáles son los principales motivos por los que los estudiantes se esfuerzan en su trabajo académico. A continuación, se te presentarán una serie de afirmaciones acerca de los motivos que puedes tener para estudiar.<br>Te pedimos que contestes a dichas afirmaciones reflexionando sobre el contenido de cada una de ellas, que, aunque te parezcan semejantes, en realidad, no lo son.<br>NO HAY RESPUESTAS CORRECTAS o INCORRECTAS, sólo queremos que respondas con la mayor precisión y sinceridad posible a las preguntas que se plantean.","response":0,"trial_type":"html-button-response","trial_index":54,"time_elapsed":1348763,"internal_node_id":"0.0-7.0"},{"rt":104575.55500000296,"response":{"Metas cuestionario pregunta1":3,"Metas cuestionario pregunta2":2,"Metas cuestionario pregunta3":4,"Metas cuestionario pregunta4":2,"Metas cuestionario pregunta5":3,"Metas cuestionario pregunta6":3,"Metas cuestionario pregunta7":3,"Metas cuestionario pregunta8":3,"Metas cuestionario pregunta9":2,"Metas cuestionario pregunta10":2,"Metas cuestionario pregunta11":3,"Metas cuestionario pregunta12":3,"Metas cuestionario pregunta13":4,"Metas cuestionario pregunta14":2,"Metas cuestionario pregunta15":3,"Metas cuestionario pregunta16":4,"Metas cuestionario pregunta17":4,"Metas cuestionario pregunta18":4,"Metas cuestionario pregunta19":4,"Metas cuestionario pregunta20":4},"question_order":[0,1,2,3,4,5,6,7,8,9,10,11,12,13,14,15,16,17,18,19],"trial_type":"survey-likert","trial_index":55,"time_elapsed":1453356,"internal_node_id":"0.0-8.0"},{"rt":2632.944999997737,"stimulus":"<p style=\"font-size: 120%\">Gracias por responder el cuestionario. Ahora te invitamos a seguir con el juego, que es muy breve.<br><br></p>","response":0,"trial_type":"html-button-response","trial_index":56,"time_elapsed":1455999,"internal_node_id":"0.0-9.0"},{"rt":7032.690000000177,"stimulus":"<h1>Juego</h1><p style=\"font-size: 120%;\">A continuación se te presentarán 16 pequeñas historias.<br>Por favor lee el texto presentado en cada una de ellas y luego haz click en el objeto de tu elección.<br>Si estás listo(a),<span style=\"color:red;\"> haz click en \"comenzar\"</span>.</p>","response":0,"trial_type":"html-button-response","trial_index":57,"time_elapsed":1463034,"internal_node_id":"0.0-10.0"},{"rt":15371.549999999814,"grid":[[1,1,1],[1,1,1],[1,1,1],[1,1,1],[1,1,1],[1,1,1],[1,1,1],[1,1,1],[1,1,1]],"target":[0,0],"response":[1,2],"correct":false,"juego":10,"trial_type":"serial-reaction-time-mouse","trial_index":58,"time_elapsed":1478411,"internal_node_id":"0.0-11.0-0.0"},{"rt":14747.865000001388,"grid":[[1,1,1,1]],"target":[0,0],"response":[0,0],"correct":true,"juego":3,"trial_type":"serial-reaction-time-mouse","trial_index":59,"time_elapsed":1493161,"internal_node_id":"0.0-11.0-1.0"},{"rt":5758.31000000122,"grid":[[1,1,1,1]],"target":[0,0],"response":[0,1],"correct":false,"juego":11,"trial_type":"serial-reaction-time-mouse","trial_index":60,"time_elapsed":1498921,"internal_node_id":"0.0-11.0-2.0"},{"rt":6016.169999998994,"grid":[[1,1,1,1]],"target":[0,0],"response":[0,2],"correct":false,"juego":8,"trial_type":"serial-reaction-time-mouse","trial_index":61,"time_elapsed":1504940,"internal_node_id":"0.0-11.0-3.0"},{"rt":6080.564999996452,"grid":[[1,1,1,1]],"target":[0,0],"response":[0,1],"correct":false,"juego":1,"trial_type":"serial-reaction-time-mouse","trial_index":62,"time_elapsed":1511023,"internal_node_id":"0.0-11.0-4.0"},{"rt":12912.209999998566,"grid":[[1,1,1,1],[1,1,1,1],[1,1,1,1],[1,1,1,1],[1,1,1,1],[1,1,1,1],[1,1,1,1],[1,1,1,1],[1,1,1,1]],"target":[0,0],"response":[7,2],"correct":false,"juego":14,"trial_type":"serial-reaction-time-mouse","trial_index":63,"time_elapsed":1523941,"internal_node_id":"0.0-11.0-5.0"},{"rt":7368.699999999022,"grid":[[1,1,1,1],[1,1,1,1],[1,1,1,1],[1,1,1,1],[1,1,1,1],[1,1,1,1],[1,1,1,1],[1,1,1,1],[1,1,1,1]],"target":[0,0],"response":[7,2],"correct":false,"juego":15,"trial_type":"serial-reaction-time-mouse","trial_index":64,"time_elapsed":1531316,"internal_node_id":"0.0-11.0-6.0"},{"rt":6745.155000000494,"grid":[[1,1,1],[1,1,1],[1,1,1],[1,1,1],[1,1,1],[1,1,1],[1,1,1],[1,1,1],[1,1,1]],"target":[0,0],"response":[3,1],"correct":false,"juego":13,"trial_type":"serial-reaction-time-mouse","trial_index":65,"time_elapsed":1538066,"internal_node_id":"0.0-11.0-7.0"},{"rt":9363.525000000605,"grid":[[1,1,1,1]],"target":[0,0],"response":[0,3],"correct":false,"juego":9,"trial_type":"serial-reaction-time-mouse","trial_index":66,"time_elapsed":1547432,"internal_node_id":"0.0-11.0-8.0"},{"rt":5036.830000001006,"grid":[[1,1,1,1]],"target":[0,0],"response":[0,1],"correct":false,"juego":2,"trial_type":"serial-reaction-time-mouse","trial_index":67,"time_elapsed":1552471,"internal_node_id":"0.0-11.0-9.0"},{"rt":4275.649999999441,"grid":[[1,1,1],[1,1,1],[1,1,1],[1,1,1],[1,1,1],[1,1,1],[1,1,1],[1,1,1],[1,1,1]],"target":[0,0],"response":[1,1],"correct":false,"juego":5,"trial_type":"serial-reaction-time-mouse","trial_index":68,"time_elapsed":1556752,"internal_node_id":"0.0-11.0-10.0"},{"rt":2431.264999999199,"grid":[[1],[1],[1],[1]],"target":[0,0],"response":[0,0],"correct":true,"juego":4,"trial_type":"serial-reaction-time-mouse","trial_index":69,"time_elapsed":1559186,"internal_node_id":"0.0-11.0-11.0"},{"rt":4016.2050000000745,"grid":[[1,1,1],[1,1,1],[1,1,1],[1,1,1],[1,1,1],[1,1,1],[1,1,1],[1,1,1],[1,1,1]],"target":[0,0],"response":[1,1],"correct":false,"juego":6,"trial_type":"serial-reaction-time-mouse","trial_index":70,"time_elapsed":1563208,"internal_node_id":"0.0-11.0-12.0"},{"rt":5866.194999998668,"grid":[[1,1,1,1]],"target":[0,0],"response":[0,0],"correct":true,"juego":7,"trial_type":"serial-reaction-time-mouse","trial_index":71,"time_elapsed":1569076,"internal_node_id":"0.0-11.0-13.0"},{"rt":13568.875000000698,"grid":[[1,1,1,1]],"target":[0,0],"response":[0,3],"correct":false,"juego":12,"trial_type":"serial-reaction-time-mouse","trial_index":72,"time_elapsed":1582648,"internal_node_id":"0.0-11.0-14.0"}]