[{"rt":12603.835000001709,"stimulus":"<h1 style=\"color:red; margin-top: 3%;\">¡Bienvenido(a)!</h1><p style=\"text-align:left; justify-content:space-between; margin-right: 5%; margin-left: 5%; margin-top: 5%\"> Antes de empezar el estudio, necesitamos que nos confirmes que estás de acuerdo con participar. Recuerda que tu participación es 100% voluntaria y que lo único que te pedimos es responder lo mejor que puedas. Recuerda también que el estudio incluye:</p><ol style=\"text-align:left; justify-content:space-between; margin-right: 5%; margin-left: 5%;\"><li> un ejercicio de resolución de preguntas de selección múltiple (30’),</li><li>un cuestionario breve (5’),</li><li>un juego muy breve (3’),</li></ol><p style=\"text-align:left; justify-content:space-between; margin-right: 5%; margin-left: 5%;\">Si quieres participar, haz clic en “Acepto” luego de leer lo siguiente:<br></p><p style=\"text-align:left; justify-content:space-between; margin-right: 5%; margin-left: 5%;\">Acepto participar en el estudio “Estrategias de lectura y resolución de preguntas de selección múltiple”, en los términos aquí señalados:<br></p><p style=\"text-align:left; justify-content:space-between; margin-right: 5%; margin-left: 5%;\"><a href=\"http://ciae.uchile.cl/download.php?file=noticias/Asentimiento.pdf\" target=\"_blank\">Link a la hoja de información del Consentimiento.</a></p><p style=\"text-align:left; justify-content:space-between; margin-right: 5%; margin-left: 5%;\">Declaro que he leído (o se me ha leído) y (he) comprendido, las condiciones de mi participación en este estudio. He tenido la oportunidad de hacer preguntas y éstas han sido respondidas. No tengo dudas al respecto.</p>","response":0,"condicion_MCQ":9,"condicion_JUEGO":9,"condicion_INTER":9,"numero_participante":81,"numero_version":1,"dimx":1280,"dimy":800,"color_profundidad":24,"pixel_profundidad":24,"Browser":"Google Chrome","dia":11,"mes":5,"hora":16,"minuto":29,"segundo":44,"trial_type":"html-button-response","trial_index":0,"time_elapsed":12609,"internal_node_id":"0.0-0.0"},{"success":true,"trial_type":"fullscreen","trial_index":1,"time_elapsed":17527,"internal_node_id":"0.0-1.0"},{"rt":113414.95000000577,"responses":"{\"Nombres\":\"Mateo\",\"Apellidos\":\"Duque Ruiz\",\"Edad\":\"18\",\"Sexo\":\"hombre\",\"Curso\":\"sección 205\",\"Colegio\":\"Universidad Andrés Bello\",\"Contacto\":\"Oetam.333.7@gmail.com\"}","trial_type":"survey-text","trial_index":2,"time_elapsed":130947,"internal_node_id":"0.0-2.0"},{"success":true,"timeout":false,"failed_images":[],"failed_audio":[],"failed_video":[],"trial_type":"preload","trial_index":3,"time_elapsed":132289,"internal_node_id":"0.0-3.0"},{"rt":54672.669999999925,"stimulus":"<h1 style:\"margin-top: 5%;\">Ejercicios de Comprensión de Lectura de la Universidad de Chile</h1><p style=\"font-size: 120%;\">En esta actividad, debes responder 24 preguntas de selección múltiple. Cada pregunta presenta 4 respuestas alternativas, pero sólo una de ellas es correcta. Por lo tanto, debes escoger una sola alternativa para cada pregunta. Además, debes reportar qué tan seguro(a) estás de la respuesta que das, con un:</p><ol style=\"font-size: 120%;text-align:left;margin-left: 40%;\"><li>No estoy seguro(a) para nada</li><li>No estoy muy seguro(a)</li><li>Estoy bastante seguro(a)</li><li>Estoy totalmente seguro(a)</li></ol><p style=\"font-size: 120%;\">Por favor lee bien los enunciados antes de responder. ¡Éxito!</p>","response":0,"trial_type":"html-button-response","trial_index":4,"time_elapsed":186962,"internal_node_id":"0.0-4.0"},{"rt":485919.3750000122,"responses":"{\"pregunta4\":\"a) En la literatura, el narrador expresa su voluntad de libertad.\"}","question_order":"[0]","trial_type":"survey-multi-choice","trial_index":5,"time_elapsed":672869,"internal_node_id":"0.0-5.0-0.0"},{"rt":11891.010000006645,"response":{"pregunta4 likert":3},"question_order":[0],"trial_type":"survey-likert","trial_index":6,"time_elapsed":684762,"internal_node_id":"0.0-5.0-1.0"},{"rt":344607.48000000603,"responses":"{\"pregunta1\":\"c) Aportan informaciones con las que se reconstruye el personaje dentro de un relato.\"}","question_order":"[0]","trial_type":"survey-multi-choice","trial_index":7,"time_elapsed":1029360,"internal_node_id":"0.0-5.0-2.0"},{"rt":4395.720000000438,"response":{"pregunta1 likert":2},"question_order":[0],"trial_type":"survey-likert","trial_index":8,"time_elapsed":1033758,"internal_node_id":"0.0-5.0-3.0"},{"rt":239533.75000000233,"responses":"{\"pregunta20\":\"c) las personas excesivas son más felices.\"}","question_order":"[0]","trial_type":"survey-multi-choice","trial_index":9,"time_elapsed":1273286,"internal_node_id":"0.0-5.0-4.0"},{"rt":3398.2399999948684,"response":{"pregunta20 likert":3},"question_order":[0],"trial_type":"survey-likert","trial_index":10,"time_elapsed":1276686,"internal_node_id":"0.0-5.0-5.0"},{"rt":200540.31999999983,"responses":"{\"pregunta24\":\"b) la muerte es distinta en las grandes ciudades.\"}","question_order":"[0]","trial_type":"survey-multi-choice","trial_index":11,"time_elapsed":1477222,"internal_node_id":"0.0-5.0-6.0"},{"rt":5648.235000000801,"response":{"pregunta24 likert":3},"question_order":[0],"trial_type":"survey-likert","trial_index":12,"time_elapsed":1482872,"internal_node_id":"0.0-5.0-7.0"},{"rt":136650.66499999375,"responses":"{\"pregunta23\":\"c) el jardinero estará muerto al día siguiente.\"}","question_order":"[0]","trial_type":"survey-multi-choice","trial_index":13,"time_elapsed":1619521,"internal_node_id":"0.0-5.0-8.0"},{"rt":2205.8899999973364,"response":{"pregunta23 likert":3},"question_order":[0],"trial_type":"survey-likert","trial_index":14,"time_elapsed":1621729,"internal_node_id":"0.0-5.0-9.0"},{"rt":620544.6599999997,"responses":"{\"pregunta11\":\"c) Provocar el deseo de la adquisición vertiginosa.\"}","question_order":"[0]","trial_type":"survey-multi-choice","trial_index":15,"time_elapsed":2242257,"internal_node_id":"0.0-5.0-10.0"},{"rt":4015.8400000073016,"response":{"pregunta11 likert":3},"question_order":[0],"trial_type":"survey-likert","trial_index":16,"time_elapsed":2246274,"internal_node_id":"0.0-5.0-11.0"},{"rt":142039.2500000014,"responses":"{\"pregunta19\":\"d) llevan un control grupal de su embarazo.\"}","question_order":"[0]","trial_type":"survey-multi-choice","trial_index":17,"time_elapsed":2388310,"internal_node_id":"0.0-5.0-12.0"},{"rt":10510.209999993443,"response":{"pregunta19 likert":3},"question_order":[0],"trial_type":"survey-likert","trial_index":18,"time_elapsed":2398822,"internal_node_id":"0.0-5.0-13.0"},{"rt":161036.55999999354,"responses":"{\"pregunta6\":\"a) Promover la asistencia a un evento específico de decoración a través de una atractiva descripción.\"}","question_order":"[0]","trial_type":"survey-multi-choice","trial_index":19,"time_elapsed":2559856,"internal_node_id":"0.0-5.0-14.0"},{"rt":2161.9950000019744,"response":{"pregunta6 likert":3},"question_order":[0],"trial_type":"survey-likert","trial_index":20,"time_elapsed":2562020,"internal_node_id":"0.0-5.0-15.0"},{"rt":125763.56499998644,"responses":"{\"pregunta14\":\"a) la muerte de Wu Ti fue una bendición.\"}","question_order":"[0]","trial_type":"survey-multi-choice","trial_index":21,"time_elapsed":2687781,"internal_node_id":"0.0-5.0-16.0"},{"rt":6779.844999996945,"response":{"pregunta14 likert":1},"question_order":[0],"trial_type":"survey-likert","trial_index":22,"time_elapsed":2694563,"internal_node_id":"0.0-5.0-17.0"},{"rt":205691.85999999195,"responses":"{\"pregunta7\":\"d) es una realidad discutida por algunos.\"}","question_order":"[0]","trial_type":"survey-multi-choice","trial_index":23,"time_elapsed":2900250,"internal_node_id":"0.0-5.0-18.0"},{"rt":2438.040000008419,"response":{"pregunta7 likert":2},"question_order":[0],"trial_type":"survey-likert","trial_index":24,"time_elapsed":2902690,"internal_node_id":"0.0-5.0-19.0"},{"rt":118146.41499999585,"responses":"{\"pregunta10\":\"b) ritualistas y obsesivos.\"}","question_order":"[0]","trial_type":"survey-multi-choice","trial_index":25,"time_elapsed":3020835,"internal_node_id":"0.0-5.0-20.0"},{"rt":3312.104999989737,"response":{"pregunta10 likert":2},"question_order":[0],"trial_type":"survey-likert","trial_index":26,"time_elapsed":3024149,"internal_node_id":"0.0-5.0-21.0"},{"rt":117519.58500000183,"responses":"{\"pregunta12\":\"b) Atraer a los turistas.\"}","question_order":"[0]","trial_type":"survey-multi-choice","trial_index":27,"time_elapsed":3141667,"internal_node_id":"0.0-5.0-22.0"},{"rt":4392.110000000335,"response":{"pregunta12 likert":1},"question_order":[0],"trial_type":"survey-likert","trial_index":28,"time_elapsed":3146061,"internal_node_id":"0.0-5.0-23.0"},{"rt":151273.12500000698,"responses":"{\"pregunta8\":\"b) El ser humano se comporta de acuerdo con las circunstancias.\"}","question_order":"[0]","trial_type":"survey-multi-choice","trial_index":29,"time_elapsed":3297332,"internal_node_id":"0.0-5.0-24.0"},{"rt":5048.135000004433,"response":{"pregunta8 likert":3},"question_order":[0],"trial_type":"survey-likert","trial_index":30,"time_elapsed":3302381,"internal_node_id":"0.0-5.0-25.0"},{"rt":176682.26000000164,"responses":"{\"pregunta13\":\"c) Al premio merecido después de tantos esfuerzos.\"}","question_order":"[0]","trial_type":"survey-multi-choice","trial_index":31,"time_elapsed":3479060,"internal_node_id":"0.0-5.0-26.0"},{"rt":6074.0450000013225,"response":{"pregunta13 likert":1},"question_order":[0],"trial_type":"survey-likert","trial_index":32,"time_elapsed":3485136,"internal_node_id":"0.0-5.0-27.0"},{"rt":215125.5050000036,"responses":"{\"pregunta21\":\"b) Nuestra economía vivirá un proceso de ajuste a la nueva realidad.\"}","question_order":"[0]","trial_type":"survey-multi-choice","trial_index":33,"time_elapsed":3700256,"internal_node_id":"0.0-5.0-28.0"},{"rt":4018.6450000032783,"response":{"pregunta21 likert":2},"question_order":[0],"trial_type":"survey-likert","trial_index":34,"time_elapsed":3704276,"internal_node_id":"0.0-5.0-29.0"},{"rt":149819.8149999953,"responses":"{\"pregunta17\":\"a) A la influencia de grupos que rechazaban su música.\"}","question_order":"[0]","trial_type":"survey-multi-choice","trial_index":35,"time_elapsed":3854093,"internal_node_id":"0.0-5.0-30.0"},{"rt":3140.020000006072,"response":{"pregunta17 likert":3},"question_order":[0],"trial_type":"survey-likert","trial_index":36,"time_elapsed":3857235,"internal_node_id":"0.0-5.0-31.0"},{"rt":967156.1349999979,"responses":"{\"pregunta5\":\"a) Los momentos triviales de los viajes, en la escritura se vuelven significativos.\"}","question_order":"[0]","trial_type":"survey-multi-choice","trial_index":37,"time_elapsed":4824362,"internal_node_id":"0.0-5.0-32.0"},{"rt":2682.3350000055507,"response":{"pregunta5 likert":3},"question_order":[0],"trial_type":"survey-likert","trial_index":38,"time_elapsed":4827047,"internal_node_id":"0.0-5.0-33.0"},{"rt":644836.450000002,"responses":"{\"pregunta2\":\"a) A la relación entre sociedad y constitución social.\"}","question_order":"[0]","trial_type":"survey-multi-choice","trial_index":39,"time_elapsed":5471865,"internal_node_id":"0.0-5.0-34.0"},{"rt":17509.42999999132,"response":{"pregunta2 likert":2},"question_order":[0],"trial_type":"survey-likert","trial_index":40,"time_elapsed":5489375,"internal_node_id":"0.0-5.0-35.0"},{"rt":242537.4249999877,"responses":"{\"pregunta3\":\"d) El inicio de la civilización china.\"}","question_order":"[0]","trial_type":"survey-multi-choice","trial_index":41,"time_elapsed":5731907,"internal_node_id":"0.0-5.0-36.0"},{"rt":6405.8300000028685,"response":{"pregunta3 likert":2},"question_order":[0],"trial_type":"survey-likert","trial_index":42,"time_elapsed":5738315,"internal_node_id":"0.0-5.0-37.0"},{"rt":138198.92000001017,"responses":"{\"pregunta15\":\"d) el uranio es el elemento natural con el mayor número de protones en el núcleo.\"}","question_order":"[0]","trial_type":"survey-multi-choice","trial_index":43,"time_elapsed":5876511,"internal_node_id":"0.0-5.0-38.0"},{"rt":3292.199999996461,"response":{"pregunta15 likert":2},"question_order":[0],"trial_type":"survey-likert","trial_index":44,"time_elapsed":5879805,"internal_node_id":"0.0-5.0-39.0"},{"rt":161334.0699999975,"responses":"{\"pregunta22\":\"b) Se necesita un marco legal para delimitar lo público y lo privado en materia informativa.\"}","question_order":"[0]","trial_type":"survey-multi-choice","trial_index":45,"time_elapsed":6041135,"internal_node_id":"0.0-5.0-40.0"},{"rt":8458.01000000164,"response":{"pregunta22 likert":3},"question_order":[0],"trial_type":"survey-likert","trial_index":46,"time_elapsed":6049595,"internal_node_id":"0.0-5.0-41.0"},{"rt":161107.55000000075,"responses":"{\"pregunta16\":\"c) Por el riesgo que corren diariamente, los bomberos deberían tener mejores condiciones de seguridad.\"}","question_order":"[0]","trial_type":"survey-multi-choice","trial_index":47,"time_elapsed":6210699,"internal_node_id":"0.0-5.0-42.0"},{"rt":3727.8599999984726,"response":{"pregunta16 likert":3},"question_order":[0],"trial_type":"survey-likert","trial_index":48,"time_elapsed":6214429,"internal_node_id":"0.0-5.0-43.0"},{"rt":223102.33000000846,"responses":"{\"pregunta18\":\"a) El receptor es habitualmente pasivo frente a la publicidad.\"}","question_order":"[0]","trial_type":"survey-multi-choice","trial_index":49,"time_elapsed":6437526,"internal_node_id":"0.0-5.0-44.0"},{"rt":3488.329999992624,"response":{"pregunta18 likert":3},"question_order":[0],"trial_type":"survey-likert","trial_index":50,"time_elapsed":6441016,"internal_node_id":"0.0-5.0-45.0"},{"rt":266563.1649999991,"responses":"{\"pregunta9\":\"c) un recuerdo nostálgico.\"}","question_order":"[0]","trial_type":"survey-multi-choice","trial_index":51,"time_elapsed":6707573,"internal_node_id":"0.0-5.0-46.0"},{"rt":3101.9300000034273,"response":{"pregunta9 likert":1},"question_order":[0],"trial_type":"survey-likert","trial_index":52,"time_elapsed":6710677,"internal_node_id":"0.0-5.0-47.0"},{"rt":3372.1200000001118,"stimulus":"<p style=\"font-size: 120%\">Gracias por completar esta etapa del estudio. Ahora te invitamos a responder el cuestionario.<br><br></p>","response":0,"trial_type":"html-button-response","trial_index":53,"time_elapsed":6714053,"internal_node_id":"0.0-6.0"},{"rt":10876.194999989122,"stimulus":"<h1 style=\"margin-top: 5%\">Cuestionario para la Evaluación de Metas Académicas</h1><p style=\"font-size: 120%; margin-left: 3%; margin-top: 5%\">Este es un cuestionario que permite conocer cuáles son los principales motivos por los que los estudiantes se esfuerzan en su trabajo académico. A continuación, se te presentarán una serie de afirmaciones acerca de los motivos que puedes tener para estudiar.<br>Te pedimos que contestes a dichas afirmaciones reflexionando sobre el contenido de cada una de ellas, que, aunque te parezcan semejantes, en realidad, no lo son.<br>NO HAY RESPUESTAS CORRECTAS o INCORRECTAS, sólo queremos que respondas con la mayor precisión y sinceridad posible a las preguntas que se plantean.","response":0,"trial_type":"html-button-response","trial_index":54,"time_elapsed":6724930,"internal_node_id":"0.0-7.0"},{"rt":183170.46500000358,"response":{"Metas cuestionario pregunta1":4,"Metas cuestionario pregunta2":3,"Metas cuestionario pregunta3":2,"Metas cuestionario pregunta4":2,"Metas cuestionario pregunta5":3,"Metas cuestionario pregunta6":1,"Metas cuestionario pregunta7":3,"Metas cuestionario pregunta8":3,"Metas cuestionario pregunta9":1,"Metas cuestionario pregunta10":0,"Metas cuestionario pregunta11":0,"Metas cuestionario pregunta12":0,"Metas cuestionario pregunta13":0,"Metas cuestionario pregunta14":2,"Metas cuestionario pregunta15":1,"Metas cuestionario pregunta16":2,"Metas cuestionario pregunta17":2,"Metas cuestionario pregunta18":4,"Metas cuestionario pregunta19":4,"Metas cuestionario pregunta20":4},"question_order":[0,1,2,3,4,5,6,7,8,9,10,11,12,13,14,15,16,17,18,19],"trial_type":"survey-likert","trial_index":55,"time_elapsed":6908102,"internal_node_id":"0.0-8.0"}]