[{"rt":67866.88999997568,"stimulus":"<h1 style=\"color:red; margin-top: 3%;\">¡Bienvenido(a)!</h1><p style=\"text-align:left; justify-content:space-between; margin-right: 5%; margin-left: 5%; margin-top: 5%\"> Antes de empezar el estudio, necesitamos que nos confirmes que estás de acuerdo con participar. Recuerda que tu participación es 100% voluntaria y que lo único que te pedimos es responder lo mejor que puedas. Recuerda también que el estudio incluye:</p><ol style=\"text-align:left; justify-content:space-between; margin-right: 5%; margin-left: 5%;\"><li> un ejercicio de resolución de preguntas de selección múltiple (30’),</li><li>un cuestionario breve (5’),</li><li>un juego muy breve (3’),</li></ol><p style=\"text-align:left; justify-content:space-between; margin-right: 5%; margin-left: 5%;\">Si quieres participar, haz clic en “Acepto” luego de leer lo siguiente:<br></p><p style=\"text-align:left; justify-content:space-between; margin-right: 5%; margin-left: 5%;\">Acepto participar en el estudio “Estrategias de lectura y resolución de preguntas de selección múltiple”, en los términos aquí señalados:<br></p><p style=\"text-align:left; justify-content:space-between; margin-right: 5%; margin-left: 5%;\"><a href=\"http://ciae.uchile.cl/download.php?file=noticias/Asentimiento.pdf\" target=\"_blank\">Link a la hoja de información del Consentimiento.</a></p><p style=\"text-align:left; justify-content:space-between; margin-right: 5%; margin-left: 5%;\">Declaro que he leído (o se me ha leído) y (he) comprendido, las condiciones de mi participación en este estudio. He tenido la oportunidad de hacer preguntas y éstas han sido respondidas. No tengo dudas al respecto.</p>","response":0,"condicion_MCQ":3,"condicion_JUEGO":15,"condicion_INTER":15,"numero_participante":15,"numero_version":1,"dimx":1920,"dimy":1080,"color_profundidad":24,"pixel_profundidad":24,"Browser":"Google Chrome","dia":2,"mes":5,"hora":22,"minuto":46,"segundo":15,"trial_type":"html-button-response","trial_index":0,"time_elapsed":67905,"internal_node_id":"0.0-0.0"},{"success":true,"trial_type":"fullscreen","trial_index":1,"time_elapsed":77511,"internal_node_id":"0.0-1.0"},{"rt":170115.73000001954,"responses":"{\"Nombres\":\"Macarena Fernanda\",\"Apellidos\":\"Riquelme Muñoz\",\"Edad\":\"21\",\"Sexo\":\"mujer\",\"Curso\":\"primer año\",\"Colegio\":\"Universidad Andrés Bello\",\"Contacto\":\"macarena.riquelme.99@gmail.com\"}","trial_type":"survey-text","trial_index":2,"time_elapsed":247625,"internal_node_id":"0.0-2.0"},{"success":true,"timeout":false,"failed_images":[],"failed_audio":[],"failed_video":[],"trial_type":"preload","trial_index":3,"time_elapsed":248660,"internal_node_id":"0.0-3.0"},{"rt":21262.31999997981,"stimulus":"<h1 style:\"margin-top: 5%;\">Ejercicios de Comprensión de Lectura de la Universidad de Chile</h1><p style=\"font-size: 120%;\">En esta actividad, debes responder 24 preguntas de selección múltiple. Cada pregunta presenta 4 respuestas alternativas, pero sólo una de ellas es correcta. Por lo tanto, debes escoger una sola alternativa para cada pregunta. Además, debes reportar qué tan seguro(a) estás de la respuesta que das, con un:</p><ol style=\"font-size: 120%;text-align:left;margin-left: 40%;\"><li>No estoy seguro(a) para nada</li><li>No estoy muy seguro(a)</li><li>Estoy bastante seguro(a)</li><li>Estoy totalmente seguro(a)</li></ol><p style=\"font-size: 120%;\">Por favor lee bien los enunciados antes de responder. ¡Éxito!</p>","response":0,"trial_type":"html-button-response","trial_index":4,"time_elapsed":269922,"internal_node_id":"0.0-4.0"},{"rt":44225.47000000486,"responses":"{\"pregunta21\":\"b) El TLC causará una completa transformación de la economía chilena.\"}","question_order":"[0]","trial_type":"survey-multi-choice","trial_index":5,"time_elapsed":314148,"internal_node_id":"0.0-5.0-0.0"},{"rt":4026.239999977406,"response":{"pregunta21 likert":1},"question_order":[0],"trial_type":"survey-likert","trial_index":6,"time_elapsed":318175,"internal_node_id":"0.0-5.0-1.0"},{"rt":68515.69999998901,"responses":"{\"pregunta6\":\"b) Presentar positivamente las diversas tendencias del diseño de interiores a través de un comentario.\"}","question_order":"[0]","trial_type":"survey-multi-choice","trial_index":7,"time_elapsed":386689,"internal_node_id":"0.0-5.0-2.0"},{"rt":3148.849999997765,"response":{"pregunta6 likert":2},"question_order":[0],"trial_type":"survey-likert","trial_index":8,"time_elapsed":389839,"internal_node_id":"0.0-5.0-3.0"},{"rt":77168.15000001225,"responses":"{\"pregunta20\":\"d) para Aristóteles la virtud estaba en el justo equilibrio.\"}","question_order":"[0]","trial_type":"survey-multi-choice","trial_index":9,"time_elapsed":467006,"internal_node_id":"0.0-5.0-4.0"},{"rt":3306.240000005346,"response":{"pregunta20 likert":3},"question_order":[0],"trial_type":"survey-likert","trial_index":10,"time_elapsed":470313,"internal_node_id":"0.0-5.0-5.0"},{"rt":68988.65499999374,"responses":"{\"pregunta8\":\"d) El ser humano se comporta de acuerdo con las circunstancias.\"}","question_order":"[0]","trial_type":"survey-multi-choice","trial_index":11,"time_elapsed":539300,"internal_node_id":"0.0-5.0-6.0"},{"rt":2755.074999993667,"response":{"pregunta8 likert":3},"question_order":[0],"trial_type":"survey-likert","trial_index":12,"time_elapsed":542057,"internal_node_id":"0.0-5.0-7.0"},{"rt":93740.48499998753,"responses":"{\"pregunta2\":\"b) A la relación entre pensamiento y estructura social.\"}","question_order":"[0]","trial_type":"survey-multi-choice","trial_index":13,"time_elapsed":635794,"internal_node_id":"0.0-5.0-8.0"},{"rt":2732.4599999992643,"response":{"pregunta2 likert":1},"question_order":[0],"trial_type":"survey-likert","trial_index":14,"time_elapsed":638528,"internal_node_id":"0.0-5.0-9.0"},{"rt":79946.89000002109,"responses":"{\"pregunta5\":\"a) La escritura plasma los mejores momentos de los viajes.\"}","question_order":"[0]","trial_type":"survey-multi-choice","trial_index":15,"time_elapsed":718473,"internal_node_id":"0.0-5.0-10.0"},{"rt":3992.7699999825563,"response":{"pregunta5 likert":1},"question_order":[0],"trial_type":"survey-likert","trial_index":16,"time_elapsed":722467,"internal_node_id":"0.0-5.0-11.0"},{"rt":52933.54999998701,"responses":"{\"pregunta9\":\"b) un recuerdo nostálgico.\"}","question_order":"[0]","trial_type":"survey-multi-choice","trial_index":17,"time_elapsed":775399,"internal_node_id":"0.0-5.0-12.0"},{"rt":3194.240000011632,"response":{"pregunta9 likert":3},"question_order":[0],"trial_type":"survey-likert","trial_index":18,"time_elapsed":778594,"internal_node_id":"0.0-5.0-13.0"},{"rt":69584.78999999352,"responses":"{\"pregunta10\":\"b) hedonistas y soñadores.\"}","question_order":"[0]","trial_type":"survey-multi-choice","trial_index":19,"time_elapsed":848177,"internal_node_id":"0.0-5.0-14.0"},{"rt":2541.8249999929685,"response":{"pregunta10 likert":0},"question_order":[0],"trial_type":"survey-likert","trial_index":20,"time_elapsed":850720,"internal_node_id":"0.0-5.0-15.0"},{"rt":129517.59999999194,"responses":"{\"pregunta4\":\"b) En la literatura como en la vida, lo importante son las preguntas.\"}","question_order":"[0]","trial_type":"survey-multi-choice","trial_index":21,"time_elapsed":980234,"internal_node_id":"0.0-5.0-16.0"},{"rt":5579.590000008466,"response":{"pregunta4 likert":2},"question_order":[0],"trial_type":"survey-likert","trial_index":22,"time_elapsed":985814,"internal_node_id":"0.0-5.0-17.0"},{"rt":54396.00999999675,"responses":"{\"pregunta23\":\"a) el jardinero estará muerto al día siguiente.\"}","question_order":"[0]","trial_type":"survey-multi-choice","trial_index":23,"time_elapsed":1040209,"internal_node_id":"0.0-5.0-18.0"},{"rt":3497.8399999963585,"response":{"pregunta23 likert":2},"question_order":[0],"trial_type":"survey-likert","trial_index":24,"time_elapsed":1043708,"internal_node_id":"0.0-5.0-19.0"},{"rt":19777.744999999413,"responses":"{\"pregunta16\":\"b) Bomberos debería tener acceso a un seguro médico, al que pueda recurrir en caso de accidente.\"}","question_order":"[0]","trial_type":"survey-multi-choice","trial_index":25,"time_elapsed":1063486,"internal_node_id":"0.0-5.0-20.0"},{"rt":2428.5199999867473,"response":{"pregunta16 likert":3},"question_order":[0],"trial_type":"survey-likert","trial_index":26,"time_elapsed":1065916,"internal_node_id":"0.0-5.0-21.0"},{"rt":82568.50999998278,"responses":"{\"pregunta11\":\"b) Deleitar a sus receptores por medio de la belleza y el confort\"}","question_order":"[0]","trial_type":"survey-multi-choice","trial_index":27,"time_elapsed":1148482,"internal_node_id":"0.0-5.0-22.0"},{"rt":2530.369999993127,"response":{"pregunta11 likert":3},"question_order":[0],"trial_type":"survey-likert","trial_index":28,"time_elapsed":1151014,"internal_node_id":"0.0-5.0-23.0"},{"rt":64679.64000001666,"responses":"{\"pregunta22\":\"d) Se necesita un marco legal para delimitar lo público y lo privado en materia informativa.\"}","question_order":"[0]","trial_type":"survey-multi-choice","trial_index":29,"time_elapsed":1215692,"internal_node_id":"0.0-5.0-24.0"},{"rt":2811.7050000000745,"response":{"pregunta22 likert":3},"question_order":[0],"trial_type":"survey-likert","trial_index":30,"time_elapsed":1218505,"internal_node_id":"0.0-5.0-25.0"},{"rt":44405.49499998451,"responses":"{\"pregunta17\":\"c) A la influencia de grupos que rechazaban su música.\"}","question_order":"[0]","trial_type":"survey-multi-choice","trial_index":31,"time_elapsed":1262909,"internal_node_id":"0.0-5.0-26.0"},{"rt":1652.4899999785703,"response":{"pregunta17 likert":3},"question_order":[0],"trial_type":"survey-likert","trial_index":32,"time_elapsed":1264563,"internal_node_id":"0.0-5.0-27.0"},{"rt":78765.90499997837,"responses":"{\"pregunta12\":\"a) Homenajear a quienes murieron.\"}","question_order":"[0]","trial_type":"survey-multi-choice","trial_index":33,"time_elapsed":1343327,"internal_node_id":"0.0-5.0-28.0"},{"rt":2554.1899999952875,"response":{"pregunta12 likert":3},"question_order":[0],"trial_type":"survey-likert","trial_index":34,"time_elapsed":1345882,"internal_node_id":"0.0-5.0-29.0"},{"rt":70078.57499999227,"responses":"{\"pregunta14\":\"a) la muerte de Wu Ti fue una bendición.\"}","question_order":"[0]","trial_type":"survey-multi-choice","trial_index":35,"time_elapsed":1415959,"internal_node_id":"0.0-5.0-30.0"},{"rt":4397.330000007059,"response":{"pregunta14 likert":2},"question_order":[0],"trial_type":"survey-likert","trial_index":36,"time_elapsed":1420357,"internal_node_id":"0.0-5.0-31.0"},{"rt":135334.60499998182,"responses":"{\"pregunta19\":\"c) sufren dolores de espalda.\"}","question_order":"[0]","trial_type":"survey-multi-choice","trial_index":37,"time_elapsed":1555687,"internal_node_id":"0.0-5.0-32.0"},{"rt":2519.0249999868684,"response":{"pregunta19 likert":0},"question_order":[0],"trial_type":"survey-likert","trial_index":38,"time_elapsed":1558208,"internal_node_id":"0.0-5.0-33.0"},{"rt":51617.245000001276,"responses":"{\"pregunta13\":\"a) Al premio merecido después de tantos esfuerzos.\"}","question_order":"[0]","trial_type":"survey-multi-choice","trial_index":39,"time_elapsed":1609824,"internal_node_id":"0.0-5.0-34.0"},{"rt":3115.265000000363,"response":{"pregunta13 likert":3},"question_order":[0],"trial_type":"survey-likert","trial_index":40,"time_elapsed":1612940,"internal_node_id":"0.0-5.0-35.0"},{"rt":53350.525000016205,"responses":"{\"pregunta1\":\"a) Aportan informaciones con las que se reconstruye el personaje dentro de un relato.\"}","question_order":"[0]","trial_type":"survey-multi-choice","trial_index":41,"time_elapsed":1666290,"internal_node_id":"0.0-5.0-36.0"},{"rt":2744.169999990845,"response":{"pregunta1 likert":0},"question_order":[0],"trial_type":"survey-likert","trial_index":42,"time_elapsed":1669035,"internal_node_id":"0.0-5.0-37.0"},{"rt":85954.8000000068,"responses":"{\"pregunta18\":\"c) El receptor es habitualmente pasivo frente a la publicidad.\"}","question_order":"[0]","trial_type":"survey-multi-choice","trial_index":43,"time_elapsed":1754987,"internal_node_id":"0.0-5.0-38.0"},{"rt":2012.73499999661,"response":{"pregunta18 likert":1},"question_order":[0],"trial_type":"survey-likert","trial_index":44,"time_elapsed":1757001,"internal_node_id":"0.0-5.0-39.0"},{"rt":25312.984999996843,"responses":"{\"pregunta24\":\"a) para el mexicano, la muerte es cotidiana.\"}","question_order":"[0]","trial_type":"survey-multi-choice","trial_index":45,"time_elapsed":1782314,"internal_node_id":"0.0-5.0-40.0"},{"rt":3238.9249999832828,"response":{"pregunta24 likert":1},"question_order":[0],"trial_type":"survey-likert","trial_index":46,"time_elapsed":1785554,"internal_node_id":"0.0-5.0-41.0"},{"rt":77629.37999999849,"responses":"{\"pregunta7\":\"c) se da como existente, y sólo se discute su relación con el cuerpo.\"}","question_order":"[0]","trial_type":"survey-multi-choice","trial_index":47,"time_elapsed":1863182,"internal_node_id":"0.0-5.0-42.0"},{"rt":2563.9549999905284,"response":{"pregunta7 likert":2},"question_order":[0],"trial_type":"survey-likert","trial_index":48,"time_elapsed":1865747,"internal_node_id":"0.0-5.0-43.0"},{"rt":32209.97999998508,"responses":"{\"pregunta3\":\"c) El inicio de la dinastía Chang.\"}","question_order":"[0]","trial_type":"survey-multi-choice","trial_index":49,"time_elapsed":1897956,"internal_node_id":"0.0-5.0-44.0"},{"rt":2733.0849999852944,"response":{"pregunta3 likert":2},"question_order":[0],"trial_type":"survey-likert","trial_index":50,"time_elapsed":1900690,"internal_node_id":"0.0-5.0-45.0"},{"rt":26865.649999992456,"responses":"{\"pregunta15\":\"a) a partir de la manipulación del núcleo se han creado elementos químicos naturales.\"}","question_order":"[0]","trial_type":"survey-multi-choice","trial_index":51,"time_elapsed":1927556,"internal_node_id":"0.0-5.0-46.0"},{"rt":3059.045000001788,"response":{"pregunta15 likert":2},"question_order":[0],"trial_type":"survey-likert","trial_index":52,"time_elapsed":1930616,"internal_node_id":"0.0-5.0-47.0"},{"rt":4433.954999985872,"stimulus":"<p style=\"font-size: 120%\">Gracias por completar esta etapa del estudio. Ahora te invitamos a responder el cuestionario.<br><br></p>","response":0,"trial_type":"html-button-response","trial_index":53,"time_elapsed":1935341,"internal_node_id":"0.0-6.0"},{"rt":23782.964999991236,"stimulus":"<h1 style=\"margin-top: 5%\">Cuestionario para la Evaluación de Metas Académicas</h1><p style=\"font-size: 120%; margin-left: 3%; margin-top: 5%\">Este es un cuestionario que permite conocer cuáles son los principales motivos por los que los estudiantes se esfuerzan en su trabajo académico. A continuación, se te presentarán una serie de afirmaciones acerca de los motivos que puedes tener para estudiar.<br>Te pedimos que contestes a dichas afirmaciones reflexionando sobre el contenido de cada una de ellas, que, aunque te parezcan semejantes, en realidad, no lo son.<br>NO HAY RESPUESTAS CORRECTAS o INCORRECTAS, sólo queremos que respondas con la mayor precisión y sinceridad posible a las preguntas que se plantean.","response":0,"trial_type":"html-button-response","trial_index":54,"time_elapsed":1959124,"internal_node_id":"0.0-7.0"},{"rt":113429.65499998536,"response":{"Metas cuestionario pregunta1":2,"Metas cuestionario pregunta2":4,"Metas cuestionario pregunta3":2,"Metas cuestionario pregunta4":2,"Metas cuestionario pregunta5":4,"Metas cuestionario pregunta6":2,"Metas cuestionario pregunta7":3,"Metas cuestionario pregunta8":2,"Metas cuestionario pregunta9":3,"Metas cuestionario pregunta10":0,"Metas cuestionario pregunta11":0,"Metas cuestionario pregunta12":0,"Metas cuestionario pregunta13":2,"Metas cuestionario pregunta14":0,"Metas cuestionario pregunta15":4,"Metas cuestionario pregunta16":4,"Metas cuestionario pregunta17":4,"Metas cuestionario pregunta18":4,"Metas cuestionario pregunta19":4,"Metas cuestionario pregunta20":4},"question_order":[0,1,2,3,4,5,6,7,8,9,10,11,12,13,14,15,16,17,18,19],"trial_type":"survey-likert","trial_index":55,"time_elapsed":2072553,"internal_node_id":"0.0-8.0"},{"rt":1760.3200000012293,"stimulus":"<p style=\"font-size: 120%\">Gracias por responder el cuestionario. Ahora te invitamos a seguir con el juego, que es muy breve.<br><br></p>","response":0,"trial_type":"html-button-response","trial_index":56,"time_elapsed":2074316,"internal_node_id":"0.0-9.0"},{"rt":9269.849999982398,"stimulus":"<h1>Juego</h1><p style=\"font-size: 120%;\">A continuación se te presentarán 16 pequeñas historias.<br>Por favor lee el texto presentado en cada una de ellas y luego haz click en el objeto de tu elección.<br>Si estás listo(a),<span style=\"color:red;\"> haz click en \"comenzar\"</span>.</p>","response":0,"trial_type":"html-button-response","trial_index":57,"time_elapsed":2083587,"internal_node_id":"0.0-10.0"},{"rt":5433.004999998957,"grid":[[1,1,1,1]],"target":[0,0],"response":[0,2],"correct":false,"juego":7,"trial_type":"serial-reaction-time-mouse","trial_index":58,"time_elapsed":2089021,"internal_node_id":"0.0-11.0-0.0"},{"rt":7244.260000006761,"grid":[[1,1,1],[1,1,1],[1,1,1],[1,1,1],[1,1,1],[1,1,1],[1,1,1],[1,1,1],[1,1,1]],"target":[0,0],"response":[1,1],"correct":false,"juego":5,"trial_type":"serial-reaction-time-mouse","trial_index":59,"time_elapsed":2096266,"internal_node_id":"0.0-11.0-1.0"},{"rt":21555.43999999622,"grid":[[1,1,1,1]],"target":[0,0],"response":[0,1],"correct":false,"juego":12,"trial_type":"serial-reaction-time-mouse","trial_index":60,"time_elapsed":2117822,"internal_node_id":"0.0-11.0-2.0"},{"rt":9011.129999998957,"grid":[[1,1,1,1]],"target":[0,0],"response":[0,1],"correct":false,"juego":3,"trial_type":"serial-reaction-time-mouse","trial_index":61,"time_elapsed":2126833,"internal_node_id":"0.0-11.0-3.0"},{"rt":9922.62500000652,"grid":[[1,1,1,1]],"target":[0,0],"response":[0,1],"correct":false,"juego":9,"trial_type":"serial-reaction-time-mouse","trial_index":62,"time_elapsed":2136756,"internal_node_id":"0.0-11.0-4.0"},{"rt":8470.040000014473,"grid":[[1,1,1,1],[1,1,1,1],[1,1,1,1],[1,1,1,1],[1,1,1,1],[1,1,1,1],[1,1,1,1],[1,1,1,1],[1,1,1,1]],"target":[0,0],"response":[7,2],"correct":false,"juego":14,"trial_type":"serial-reaction-time-mouse","trial_index":63,"time_elapsed":2145228,"internal_node_id":"0.0-11.0-5.0"},{"rt":3576.6700000092387,"grid":[[1,1,1],[1,1,1],[1,1,1],[1,1,1],[1,1,1],[1,1,1],[1,1,1],[1,1,1],[1,1,1]],"target":[0,0],"response":[1,1],"correct":false,"juego":6,"trial_type":"serial-reaction-time-mouse","trial_index":64,"time_elapsed":2148806,"internal_node_id":"0.0-11.0-6.0"},{"rt":2473.8499999805354,"grid":[[1],[1],[1],[1]],"target":[0,0],"response":[1,0],"correct":false,"juego":4,"trial_type":"serial-reaction-time-mouse","trial_index":65,"time_elapsed":2151280,"internal_node_id":"0.0-11.0-7.0"},{"rt":8144.980000012089,"grid":[[1,1,1,1]],"target":[0,0],"response":[0,2],"correct":false,"juego":11,"trial_type":"serial-reaction-time-mouse","trial_index":66,"time_elapsed":2159426,"internal_node_id":"0.0-11.0-8.0"},{"rt":10889.17499998957,"grid":[[1,1,1],[1,1,1],[1,1,1],[1,1,1],[1,1,1],[1,1,1],[1,1,1],[1,1,1],[1,1,1]],"target":[0,0],"response":[3,2],"correct":false,"juego":10,"trial_type":"serial-reaction-time-mouse","trial_index":67,"time_elapsed":2170316,"internal_node_id":"0.0-11.0-9.0"},{"rt":2957.865000003949,"grid":[[1,1,1,1]],"target":[0,0],"response":[0,2],"correct":false,"juego":2,"trial_type":"serial-reaction-time-mouse","trial_index":68,"time_elapsed":2173274,"internal_node_id":"0.0-11.0-10.0"},{"rt":9708.1900000046,"grid":[[1,1,1,1],[1,1,1,1],[1,1,1,1],[1,1,1,1],[1,1,1,1],[1,1,1,1],[1,1,1,1],[1,1,1,1],[1,1,1,1]],"target":[0,0],"response":[1,2],"correct":false,"juego":15,"trial_type":"serial-reaction-time-mouse","trial_index":69,"time_elapsed":2182984,"internal_node_id":"0.0-11.0-11.0"},{"rt":1798.8699999991804,"grid":[[1,1,1,1]],"target":[0,0],"response":[0,2],"correct":false,"juego":1,"trial_type":"serial-reaction-time-mouse","trial_index":70,"time_elapsed":2184784,"internal_node_id":"0.0-11.0-12.0"},{"rt":4386.410000006668,"grid":[[1,1,1],[1,1,1],[1,1,1],[1,1,1],[1,1,1],[1,1,1],[1,1,1],[1,1,1],[1,1,1]],"target":[0,0],"response":[1,1],"correct":false,"juego":13,"trial_type":"serial-reaction-time-mouse","trial_index":71,"time_elapsed":2189171,"internal_node_id":"0.0-11.0-13.0"},{"rt":8606.139999988955,"grid":[[1,1,1,1]],"target":[0,0],"response":[0,1],"correct":false,"juego":8,"trial_type":"serial-reaction-time-mouse","trial_index":72,"time_elapsed":2197778,"internal_node_id":"0.0-11.0-14.0"},{"rt":4689.064999984112,"stimulus":"<h1>Último juego</h1><p style=\"font-size: 130%;\">Tienes <span style=\"color:red\">25</span> segundos para recordar los pares de palabras que aparecerán a continuación. <br></p>","response":0,"trial_type":"html-button-response","trial_index":73,"time_elapsed":2202469,"internal_node_id":"0.0-12.0"},{"animation_sequence":[{"stimulus":"imagen_juego_interferencia.jpg","time":508.8249999973923},{"stimulus":"imagen_juego_interferencia.jpg","time":1003.9249999974854},{"stimulus":"imagen_juego_interferencia.jpg","time":1505.5299999951385},{"stimulus":"imagen_juego_interferencia.jpg","time":2001.0500000212342},{"stimulus":"imagen_juego_interferencia.jpg","time":2501.7250000094064},{"stimulus":"imagen_juego_interferencia.jpg","time":3001.6250000046566},{"stimulus":"imagen_juego_interferencia.jpg","time":3502.9550000038},{"stimulus":"imagen_juego_interferencia.jpg","time":4002.7450000056997},{"stimulus":"imagen_juego_interferencia.jpg","time":4504.769999999553},{"stimulus":"imagen_juego_interferencia.jpg","time":5002.724999998696},{"stimulus":"imagen_juego_interferencia.jpg","time":5501.350000006147},{"stimulus":"imagen_juego_interferencia.jpg","time":6001.190000010189},{"stimulus":"imagen_juego_interferencia.jpg","time":6503.255000018049},{"stimulus":"imagen_juego_interferencia.jpg","time":7000.995000009425},{"stimulus":"imagen_juego_interferencia.jpg","time":7501.4500000108965},{"stimulus":"imagen_juego_interferencia.jpg","time":8000.954999996349},{"stimulus":"imagen_juego_interferencia.jpg","time":8504.595000006258},{"stimulus":"imagen_juego_interferencia.jpg","time":9004.88500000257},{"stimulus":"imagen_juego_interferencia.jpg","time":9504.855000006966},{"stimulus":"imagen_juego_interferencia.jpg","time":10003.98500001803},{"stimulus":"imagen_juego_interferencia.jpg","time":10506.030000018887},{"stimulus":"imagen_juego_interferencia.jpg","time":11001.084999996237},{"stimulus":"imagen_juego_interferencia.jpg","time":11507.925000012852},{"stimulus":"imagen_juego_interferencia.jpg","time":12004.165000020526},{"stimulus":"imagen_juego_interferencia.jpg","time":12505.115000007674},{"stimulus":"imagen_juego_interferencia.jpg","time":13002.450000000186},{"stimulus":"imagen_juego_interferencia.jpg","time":13503.05500000855},{"stimulus":"imagen_juego_interferencia.jpg","time":14005.475000012666},{"stimulus":"imagen_juego_interferencia.jpg","time":14505.215000011958},{"stimulus":"imagen_juego_interferencia.jpg","time":15005.850000016391},{"stimulus":"imagen_juego_interferencia.jpg","time":15502.085000014864},{"stimulus":"imagen_juego_interferencia.jpg","time":16004.26000001654},{"stimulus":"imagen_juego_interferencia.jpg","time":16505.250000016764},{"stimulus":"imagen_juego_interferencia.jpg","time":17002.9499999946},{"stimulus":"imagen_juego_interferencia.jpg","time":17502.41499999538},{"stimulus":"imagen_juego_interferencia.jpg","time":18001.569999993313},{"stimulus":"imagen_juego_interferencia.jpg","time":18502.370000001974},{"stimulus":"imagen_juego_interferencia.jpg","time":19000.935000018217},{"stimulus":"imagen_juego_interferencia.jpg","time":19502.570000011474},{"stimulus":"imagen_juego_interferencia.jpg","time":20002.25499999989},{"stimulus":"imagen_juego_interferencia.jpg","time":20504.474999994505},{"stimulus":"imagen_juego_interferencia.jpg","time":21003.23000000231},{"stimulus":"imagen_juego_interferencia.jpg","time":21503.525000007823},{"stimulus":"imagen_juego_interferencia.jpg","time":22004.440000019036},{"stimulus":"imagen_juego_interferencia.jpg","time":22501.53999999771},{"stimulus":"imagen_juego_interferencia.jpg","time":23005.499999999534},{"stimulus":"imagen_juego_interferencia.jpg","time":23504.53500001505},{"stimulus":"imagen_juego_interferencia.jpg","time":24002.930000017397},{"stimulus":"imagen_juego_interferencia.jpg","time":24501.835000002757},{"stimulus":"imagen_juego_interferencia.jpg","time":25005.70500001777}],"response":[],"trial_type":"animation","trial_index":74,"time_elapsed":2227972,"internal_node_id":"0.0-13.0"},{"rt":5467.78500001505,"responses":"{\"pregunta interferencia3\":\"aluminio\"}","question_order":"[0]","trial_type":"survey-multi-choice-cuest","trial_index":75,"time_elapsed":2233441,"internal_node_id":"0.0-14.0-0.0"},{"rt":5038.809999998193,"responses":"{\"pregunta interferencia2\":\"saltamontes\"}","question_order":"[0]","trial_type":"survey-multi-choice-cuest","trial_index":76,"time_elapsed":2238481,"internal_node_id":"0.0-14.0-1.0"},{"rt":3588.080000015907,"responses":"{\"pregunta interferencia1\":\"naranja\"}","question_order":"[0]","trial_type":"survey-multi-choice-cuest","trial_index":77,"time_elapsed":2242071,"internal_node_id":"0.0-14.0-2.0"},{"rt":6129.960000020452,"responses":"{\"pregunta interferencia4\":\"contador\"}","question_order":"[0]","trial_type":"survey-multi-choice-cuest","trial_index":78,"time_elapsed":2248202,"internal_node_id":"0.0-14.0-3.0"},{"success":true,"trial_type":"fullscreen","trial_index":79,"time_elapsed":2249207,"internal_node_id":"0.0-15.0"},{"rt":24733.64500000002,"responses":"{\"Telefono\":\"975224682\"}","trial_type":"survey-text","trial_index":80,"time_elapsed":2273944,"internal_node_id":"0.0-16.0"}]