[{"rt":9158.500000368804,"stimulus":"<h1 style=\"color:red; margin-top: 3%;\">¡Bienvenido(a)!</h1><p style=\"text-align:left; justify-content:space-between; margin-right: 5%; margin-left: 5%; margin-top: 5%\"> Antes de empezar el estudio, necesitamos que nos confirmes que estás de acuerdo con participar. Recuerda que tu participación es 100% voluntaria y que lo único que te pedimos es responder lo mejor que puedas. Recuerda también que el estudio incluye:</p><ol style=\"text-align:left; justify-content:space-between; margin-right: 5%; margin-left: 5%;\"><li> un ejercicio de resolución de preguntas de selección múltiple (30’),</li><li>un cuestionario breve (5’),</li><li>un juego muy breve (3’),</li></ol><p style=\"text-align:left; justify-content:space-between; margin-right: 5%; margin-left: 5%;\">Si quieres participar, haz clic en “Acepto” luego de leer lo siguiente:<br></p><p style=\"text-align:left; justify-content:space-between; margin-right: 5%; margin-left: 5%;\">Acepto participar en el estudio “Estrategias de lectura y resolución de preguntas de selección múltiple”, en los términos aquí señalados:<br></p><p style=\"text-align:left; justify-content:space-between; margin-right: 5%; margin-left: 5%;\"><a href=\"http://ciae.uchile.cl/download.php?file=noticias/Asentimiento.pdf\" target=\"_blank\">Link a la hoja de información del Consentimiento.</a></p><p style=\"text-align:left; justify-content:space-between; margin-right: 5%; margin-left: 5%;\">Declaro que he leído (o se me ha leído) y (he) comprendido, las condiciones de mi participación en este estudio. He tenido la oportunidad de hacer preguntas y éstas han sido respondidas. No tengo dudas al respecto.</p>","response":0,"condicion_MCQ":6,"condicion_JUEGO":18,"condicion_INTER":18,"numero_participante":90,"numero_version":1,"dimx":444,"dimy":985,"color_profundidad":24,"pixel_profundidad":24,"Browser":"Google Chrome","dia":15,"mes":5,"hora":11,"minuto":14,"segundo":21,"trial_type":"html-button-response","trial_index":0,"time_elapsed":9178,"internal_node_id":"0.0-0.0"},{"success":true,"trial_type":"fullscreen","trial_index":1,"time_elapsed":15822,"internal_node_id":"0.0-1.0"},{"rt":53286.39999963343,"responses":"{\"Nombres\":\"Diego Ignacio \",\"Apellidos\":\"Silva Aguayo \",\"Edad\":\"19\",\"Sexo\":\"Masculino\",\"Curso\":\"Segundo año \",\"Colegio\":\"Universidad académica humanismo cristiano\",\"Contacto\":\"disa20951@gmail.com\"}","trial_type":"survey-text","trial_index":2,"time_elapsed":69135,"internal_node_id":"0.0-2.0"},{"success":true,"timeout":false,"failed_images":[],"failed_audio":[],"failed_video":[],"trial_type":"preload","trial_index":3,"time_elapsed":72018,"internal_node_id":"0.0-3.0"},{"rt":6651.599999982864,"stimulus":"<h1 style:\"margin-top: 5%;\">Ejercicios de Comprensión de Lectura de la Universidad de Chile</h1><p style=\"font-size: 120%;\">En esta actividad, debes responder 24 preguntas de selección múltiple. Cada pregunta presenta 4 respuestas alternativas, pero sólo una de ellas es correcta. Por lo tanto, debes escoger una sola alternativa para cada pregunta. Además, debes reportar qué tan seguro(a) estás de la respuesta que das, con un:</p><ol style=\"font-size: 120%;text-align:left;margin-left: 40%;\"><li>No estoy seguro(a) para nada</li><li>No estoy muy seguro(a)</li><li>Estoy bastante seguro(a)</li><li>Estoy totalmente seguro(a)</li></ol><p style=\"font-size: 120%;\">Por favor lee bien los enunciados antes de responder. ¡Éxito!</p>","response":0,"trial_type":"html-button-response","trial_index":4,"time_elapsed":78674,"internal_node_id":"0.0-4.0"},{"rt":74757.90000008419,"responses":"{\"pregunta23\":\"c) el jardinero era un hombre viejo.\"}","question_order":"[0]","trial_type":"survey-multi-choice","trial_index":5,"time_elapsed":153440,"internal_node_id":"0.0-5.0-0.0"},{"rt":4342.100000008941,"response":{"pregunta23 likert":2},"question_order":[0],"trial_type":"survey-likert","trial_index":6,"time_elapsed":157790,"internal_node_id":"0.0-5.0-1.0"},{"rt":59267.80000003055,"responses":"{\"pregunta13\":\"d) A la inutilidad de tanto esfuerzo si el objetivo es el reposo.\"}","question_order":"[0]","trial_type":"survey-multi-choice","trial_index":7,"time_elapsed":217063,"internal_node_id":"0.0-5.0-2.0"},{"rt":2263.1999999284744,"response":{"pregunta13 likert":2},"question_order":[0],"trial_type":"survey-likert","trial_index":8,"time_elapsed":219331,"internal_node_id":"0.0-5.0-3.0"},{"rt":45541.699999943376,"responses":"{\"pregunta6\":\"d) Promover la asistencia a un evento específico de decoración a través de una atractiva descripción.\"}","question_order":"[0]","trial_type":"survey-multi-choice","trial_index":9,"time_elapsed":264878,"internal_node_id":"0.0-5.0-4.0"},{"rt":1916.9999998994172,"response":{"pregunta6 likert":1},"question_order":[0],"trial_type":"survey-likert","trial_index":10,"time_elapsed":266801,"internal_node_id":"0.0-5.0-5.0"},{"rt":85213.20000011474,"responses":"{\"pregunta11\":\"b) Provocar el deseo de la adquisición vertiginosa.\"}","question_order":"[0]","trial_type":"survey-multi-choice","trial_index":11,"time_elapsed":378176,"internal_node_id":"0.0-5.0-6.0"},{"rt":1285.6999998912215,"response":{"pregunta11 likert":3},"question_order":[0],"trial_type":"survey-likert","trial_index":12,"time_elapsed":379472,"internal_node_id":"0.0-5.0-7.0"},{"rt":22400.29999986291,"responses":"{\"pregunta24\":\"b) para el mexicano, la muerte es cotidiana.\"}","question_order":"[0]","trial_type":"survey-multi-choice","trial_index":13,"time_elapsed":401885,"internal_node_id":"0.0-5.0-8.0"},{"rt":2120.4000003635883,"response":{"pregunta24 likert":2},"question_order":[0],"trial_type":"survey-likert","trial_index":14,"time_elapsed":404013,"internal_node_id":"0.0-5.0-9.0"},{"rt":72277.60000014678,"responses":"{\"pregunta4\":\"c) En la literatura como en la vida, lo importante son las preguntas.\"}","question_order":"[0]","trial_type":"survey-multi-choice","trial_index":15,"time_elapsed":476300,"internal_node_id":"0.0-5.0-10.0"},{"rt":1472.0000000670552,"response":{"pregunta4 likert":2},"question_order":[0],"trial_type":"survey-likert","trial_index":16,"time_elapsed":477779,"internal_node_id":"0.0-5.0-11.0"},{"rt":84306.00000033155,"responses":"{\"pregunta10\":\"d) religiosos y precavidos.\"}","question_order":"[0]","trial_type":"survey-multi-choice","trial_index":17,"time_elapsed":562093,"internal_node_id":"0.0-5.0-12.0"},{"rt":3543.4000003151596,"response":{"pregunta10 likert":1},"question_order":[0],"trial_type":"survey-likert","trial_index":18,"time_elapsed":565643,"internal_node_id":"0.0-5.0-13.0"},{"rt":41467.19999983907,"responses":"{\"pregunta17\":\"a) A la inexistencia de un recinto adecuado para el recital.\"}","question_order":"[0]","trial_type":"survey-multi-choice","trial_index":19,"time_elapsed":607116,"internal_node_id":"0.0-5.0-14.0"},{"rt":2201.2999998405576,"response":{"pregunta17 likert":1},"question_order":[0],"trial_type":"survey-likert","trial_index":20,"time_elapsed":609322,"internal_node_id":"0.0-5.0-15.0"},{"rt":42751.80000020191,"responses":"{\"pregunta2\":\"c) A la relación entre pensamiento y estructura social.\"}","question_order":"[0]","trial_type":"survey-multi-choice","trial_index":21,"time_elapsed":652079,"internal_node_id":"0.0-5.0-16.0"},{"rt":1548.7000001594424,"response":{"pregunta2 likert":2},"question_order":[0],"trial_type":"survey-likert","trial_index":22,"time_elapsed":653633,"internal_node_id":"0.0-5.0-17.0"},{"rt":44708.999999798834,"responses":"{\"pregunta20\":\"c) las personas excesivas son más felices.\"}","question_order":"[0]","trial_type":"survey-multi-choice","trial_index":23,"time_elapsed":698348,"internal_node_id":"0.0-5.0-18.0"},{"rt":1879.9000000581145,"response":{"pregunta20 likert":3},"question_order":[0],"trial_type":"survey-likert","trial_index":24,"time_elapsed":700236,"internal_node_id":"0.0-5.0-19.0"},{"rt":22596.699999645352,"responses":"{\"pregunta22\":\"a) Se necesita un marco legal para delimitar lo público y lo privado en materia informativa.\"}","question_order":"[0]","trial_type":"survey-multi-choice","trial_index":25,"time_elapsed":722838,"internal_node_id":"0.0-5.0-20.0"},{"rt":1623.700000345707,"response":{"pregunta22 likert":3},"question_order":[0],"trial_type":"survey-likert","trial_index":26,"time_elapsed":724469,"internal_node_id":"0.0-5.0-21.0"},{"rt":32680.099999997765,"responses":"{\"pregunta5\":\"d) Los momentos triviales de los viajes, en la escritura se vuelven significativos.\"}","question_order":"[0]","trial_type":"survey-multi-choice","trial_index":27,"time_elapsed":757160,"internal_node_id":"0.0-5.0-22.0"},{"rt":1104.4999998994172,"response":{"pregunta5 likert":3},"question_order":[0],"trial_type":"survey-likert","trial_index":28,"time_elapsed":758270,"internal_node_id":"0.0-5.0-23.0"},{"rt":53100.00000009313,"responses":"{\"pregunta9\":\"a) preparar los recuerdos del mañana.\"}","question_order":"[0]","trial_type":"survey-multi-choice","trial_index":29,"time_elapsed":811376,"internal_node_id":"0.0-5.0-24.0"},{"rt":1476.699999999255,"response":{"pregunta9 likert":3},"question_order":[0],"trial_type":"survey-likert","trial_index":30,"time_elapsed":812859,"internal_node_id":"0.0-5.0-25.0"},{"rt":38175.49999989569,"responses":"{\"pregunta12\":\"b) Homenajear a quienes murieron.\"}","question_order":"[0]","trial_type":"survey-multi-choice","trial_index":31,"time_elapsed":851040,"internal_node_id":"0.0-5.0-26.0"},{"rt":1983.2000001333654,"response":{"pregunta12 likert":3},"question_order":[0],"trial_type":"survey-likert","trial_index":32,"time_elapsed":853032,"internal_node_id":"0.0-5.0-27.0"},{"rt":156226.69999999925,"responses":"{\"pregunta8\":\"b) El concepto de normalidad es diferente para un psiquiatra que para nosotros.\"}","question_order":"[0]","trial_type":"survey-multi-choice","trial_index":33,"time_elapsed":1009266,"internal_node_id":"0.0-5.0-28.0"},{"rt":1991.5000000037253,"response":{"pregunta8 likert":2},"question_order":[0],"trial_type":"survey-likert","trial_index":34,"time_elapsed":1011262,"internal_node_id":"0.0-5.0-29.0"},{"rt":22888.499999884516,"responses":"{\"pregunta16\":\"d) Por el riesgo que corren diariamente, los bomberos deberían tener mejores condiciones de seguridad.\"}","question_order":"[0]","trial_type":"survey-multi-choice","trial_index":35,"time_elapsed":1034156,"internal_node_id":"0.0-5.0-30.0"},{"rt":1462.4999999068677,"response":{"pregunta16 likert":3},"question_order":[0],"trial_type":"survey-likert","trial_index":36,"time_elapsed":1035624,"internal_node_id":"0.0-5.0-31.0"},{"rt":37675.59999972582,"responses":"{\"pregunta1\":\"b) Aportan informaciones con las que se reconstruye el personaje dentro de un relato.\"}","question_order":"[0]","trial_type":"survey-multi-choice","trial_index":37,"time_elapsed":1073306,"internal_node_id":"0.0-5.0-32.0"},{"rt":1899.3999999947846,"response":{"pregunta1 likert":2},"question_order":[0],"trial_type":"survey-likert","trial_index":38,"time_elapsed":1075212,"internal_node_id":"0.0-5.0-33.0"},{"rt":40213.89999985695,"responses":"{\"pregunta19\":\"d) sufren dolores de espalda.\"}","question_order":"[0]","trial_type":"survey-multi-choice","trial_index":39,"time_elapsed":1115432,"internal_node_id":"0.0-5.0-34.0"},{"rt":1201.4000001363456,"response":{"pregunta19 likert":3},"question_order":[0],"trial_type":"survey-likert","trial_index":40,"time_elapsed":1116639,"internal_node_id":"0.0-5.0-35.0"},{"rt":27860.89999973774,"responses":"{\"pregunta21\":\"a) Nuestra economía vivirá un proceso de ajuste a la nueva realidad.\"}","question_order":"[0]","trial_type":"survey-multi-choice","trial_index":41,"time_elapsed":1144513,"internal_node_id":"0.0-5.0-36.0"},{"rt":1457.1000002324581,"response":{"pregunta21 likert":1},"question_order":[0],"trial_type":"survey-likert","trial_index":42,"time_elapsed":1145980,"internal_node_id":"0.0-5.0-37.0"},{"rt":38711.3000000827,"responses":"{\"pregunta14\":\"c) el mejor emperador es el que está muerto.\"}","question_order":"[0]","trial_type":"survey-multi-choice","trial_index":43,"time_elapsed":1184697,"internal_node_id":"0.0-5.0-38.0"},{"rt":2067.1999999321997,"response":{"pregunta14 likert":3},"question_order":[0],"trial_type":"survey-likert","trial_index":44,"time_elapsed":1186771,"internal_node_id":"0.0-5.0-39.0"},{"rt":212115.4999998398,"responses":"{\"pregunta15\":\"c) el uranio es el elemento natural con el mayor número de protones en el núcleo.\"}","question_order":"[0]","trial_type":"survey-multi-choice","trial_index":45,"time_elapsed":1416586,"internal_node_id":"0.0-5.0-40.0"},{"rt":1499.1000001318753,"response":{"pregunta15 likert":3},"question_order":[0],"trial_type":"survey-likert","trial_index":46,"time_elapsed":1418098,"internal_node_id":"0.0-5.0-41.0"},{"rt":72784.40000023693,"responses":"{\"pregunta18\":\"d) El receptor es habitualmente pasivo frente a la publicidad.\"}","question_order":"[0]","trial_type":"survey-multi-choice","trial_index":47,"time_elapsed":1494918,"internal_node_id":"0.0-5.0-42.0"},{"rt":1457.7000001445413,"response":{"pregunta18 likert":3},"question_order":[0],"trial_type":"survey-likert","trial_index":48,"time_elapsed":1496383,"internal_node_id":"0.0-5.0-43.0"},{"rt":35174.60000002757,"responses":"{\"pregunta7\":\"d) se da como existente, y sólo se discute su relación con el cuerpo.\"}","question_order":"[0]","trial_type":"survey-multi-choice","trial_index":49,"time_elapsed":1531563,"internal_node_id":"0.0-5.0-44.0"},{"rt":1667.099999729544,"response":{"pregunta7 likert":3},"question_order":[0],"trial_type":"survey-likert","trial_index":50,"time_elapsed":1533236,"internal_node_id":"0.0-5.0-45.0"},{"rt":31456.500000320375,"responses":"{\"pregunta3\":\"c) El inicio de la civilización china.\"}","question_order":"[0]","trial_type":"survey-multi-choice","trial_index":51,"time_elapsed":1564698,"internal_node_id":"0.0-5.0-46.0"},{"rt":1409.8000000230968,"response":{"pregunta3 likert":3},"question_order":[0],"trial_type":"survey-likert","trial_index":52,"time_elapsed":1566114,"internal_node_id":"0.0-5.0-47.0"},{"rt":2613.700000103563,"stimulus":"<p style=\"font-size: 120%\">Gracias por completar esta etapa del estudio. Ahora te invitamos a responder el cuestionario.<br><br></p>","response":0,"trial_type":"html-button-response","trial_index":53,"time_elapsed":1568744,"internal_node_id":"0.0-6.0"},{"rt":2123.499999754131,"stimulus":"<h1 style=\"margin-top: 5%\">Cuestionario para la Evaluación de Metas Académicas</h1><p style=\"font-size: 120%; margin-left: 3%; margin-top: 5%\">Este es un cuestionario que permite conocer cuáles son los principales motivos por los que los estudiantes se esfuerzan en su trabajo académico. A continuación, se te presentarán una serie de afirmaciones acerca de los motivos que puedes tener para estudiar.<br>Te pedimos que contestes a dichas afirmaciones reflexionando sobre el contenido de cada una de ellas, que, aunque te parezcan semejantes, en realidad, no lo son.<br>NO HAY RESPUESTAS CORRECTAS o INCORRECTAS, sólo queremos que respondas con la mayor precisión y sinceridad posible a las preguntas que se plantean.","response":0,"trial_type":"html-button-response","trial_index":54,"time_elapsed":1570872,"internal_node_id":"0.0-7.0"},{"rt":64393.199999816716,"response":{"Metas cuestionario pregunta1":3,"Metas cuestionario pregunta2":4,"Metas cuestionario pregunta3":3,"Metas cuestionario pregunta4":3,"Metas cuestionario pregunta5":3,"Metas cuestionario pregunta6":2,"Metas cuestionario pregunta7":3,"Metas cuestionario pregunta8":4,"Metas cuestionario pregunta9":0,"Metas cuestionario pregunta10":0,"Metas cuestionario pregunta11":0,"Metas cuestionario pregunta12":0,"Metas cuestionario pregunta13":0,"Metas cuestionario pregunta14":0,"Metas cuestionario pregunta15":0,"Metas cuestionario pregunta16":0,"Metas cuestionario pregunta17":0,"Metas cuestionario pregunta18":0,"Metas cuestionario pregunta19":2,"Metas cuestionario pregunta20":4},"question_order":[0,1,2,3,4,5,6,7,8,9,10,11,12,13,14,15,16,17,18,19],"trial_type":"survey-likert","trial_index":55,"time_elapsed":1635301,"internal_node_id":"0.0-8.0"},{"rt":976.8999996595085,"stimulus":"<p style=\"font-size: 120%\">Gracias por responder el cuestionario. Ahora te invitamos a seguir con el juego, que es muy breve.<br><br></p>","response":0,"trial_type":"html-button-response","trial_index":56,"time_elapsed":1636290,"internal_node_id":"0.0-9.0"},{"rt":7106.399999931455,"stimulus":"<h1>Juego</h1><p style=\"font-size: 120%;\">A continuación se te presentarán 16 pequeñas historias.<br>Por favor lee el texto presentado en cada una de ellas y luego haz click en el objeto de tu elección.<br>Si estás listo(a),<span style=\"color:red;\"> haz click en \"comenzar\"</span>.</p>","response":0,"trial_type":"html-button-response","trial_index":57,"time_elapsed":1643403,"internal_node_id":"0.0-10.0"},{"rt":24056.199999991804,"grid":[[1,1,1],[1,1,1],[1,1,1],[1,1,1],[1,1,1],[1,1,1],[1,1,1],[1,1,1],[1,1,1]],"target":[0,0],"response":[1,1],"correct":false,"juego":13,"trial_type":"serial-reaction-time-mouse","trial_index":58,"time_elapsed":1667487,"internal_node_id":"0.0-11.0-0.0"},{"rt":32218.20000000298,"grid":[[1,1,1,1]],"target":[0,0],"response":[0,2],"correct":false,"juego":8,"trial_type":"serial-reaction-time-mouse","trial_index":59,"time_elapsed":1699710,"internal_node_id":"0.0-11.0-1.0"},{"rt":9633.29999987036,"grid":[[1,1,1],[1,1,1],[1,1,1],[1,1,1],[1,1,1],[1,1,1],[1,1,1],[1,1,1],[1,1,1]],"target":[0,0],"response":[3,1],"correct":false,"juego":5,"trial_type":"serial-reaction-time-mouse","trial_index":60,"time_elapsed":1709365,"internal_node_id":"0.0-11.0-2.0"},{"rt":6243.799999821931,"grid":[[1,1,1],[1,1,1],[1,1,1],[1,1,1],[1,1,1],[1,1,1],[1,1,1],[1,1,1],[1,1,1]],"target":[0,0],"response":[1,0],"correct":false,"juego":10,"trial_type":"serial-reaction-time-mouse","trial_index":61,"time_elapsed":1715618,"internal_node_id":"0.0-11.0-3.0"},{"rt":18142.899999860674,"grid":[[1,1,1,1]],"target":[0,0],"response":[0,0],"correct":true,"juego":12,"trial_type":"serial-reaction-time-mouse","trial_index":62,"time_elapsed":1733770,"internal_node_id":"0.0-11.0-4.0"},{"rt":6853.500000201166,"grid":[[1,1,1,1]],"target":[0,0],"response":[0,2],"correct":false,"juego":2,"trial_type":"serial-reaction-time-mouse","trial_index":63,"time_elapsed":1740633,"internal_node_id":"0.0-11.0-5.0"},{"rt":10420.300000347197,"grid":[[1,1,1,1]],"target":[0,0],"response":[0,3],"correct":false,"juego":11,"trial_type":"serial-reaction-time-mouse","trial_index":64,"time_elapsed":1751064,"internal_node_id":"0.0-11.0-6.0"},{"rt":2684.400000143796,"grid":[[1,1,1,1]],"target":[0,0],"response":[0,2],"correct":false,"juego":9,"trial_type":"serial-reaction-time-mouse","trial_index":65,"time_elapsed":1753754,"internal_node_id":"0.0-11.0-7.0"},{"rt":2972.800000105053,"grid":[[1,1,1,1]],"target":[0,0],"response":[0,2],"correct":false,"juego":1,"trial_type":"serial-reaction-time-mouse","trial_index":66,"time_elapsed":1756735,"internal_node_id":"0.0-11.0-8.0"},{"rt":6767.600000370294,"grid":[[1,1,1,1]],"target":[0,0],"response":[0,0],"correct":true,"juego":7,"trial_type":"serial-reaction-time-mouse","trial_index":67,"time_elapsed":1763510,"internal_node_id":"0.0-11.0-9.0"},{"rt":3665.599999949336,"grid":[[1],[1],[1],[1]],"target":[0,0],"response":[2,0],"correct":false,"juego":4,"trial_type":"serial-reaction-time-mouse","trial_index":68,"time_elapsed":1767183,"internal_node_id":"0.0-11.0-10.0"},{"rt":5637.600000016391,"grid":[[1,1,1,1],[1,1,1,1],[1,1,1,1],[1,1,1,1],[1,1,1,1],[1,1,1,1],[1,1,1,1],[1,1,1,1],[1,1,1,1]],"target":[0,0],"response":[3,2],"correct":false,"juego":14,"trial_type":"serial-reaction-time-mouse","trial_index":69,"time_elapsed":1772837,"internal_node_id":"0.0-11.0-11.0"},{"rt":2210.0000004284084,"grid":[[1,1,1],[1,1,1],[1,1,1],[1,1,1],[1,1,1],[1,1,1],[1,1,1],[1,1,1],[1,1,1]],"target":[0,0],"response":[1,1],"correct":false,"juego":6,"trial_type":"serial-reaction-time-mouse","trial_index":70,"time_elapsed":1775076,"internal_node_id":"0.0-11.0-12.0"},{"rt":6916.699999943376,"grid":[[1,1,1,1]],"target":[0,0],"response":[0,0],"correct":true,"juego":3,"trial_type":"serial-reaction-time-mouse","trial_index":71,"time_elapsed":1782000,"internal_node_id":"0.0-11.0-13.0"},{"rt":7226.500000339001,"grid":[[1,1,1,1],[1,1,1,1],[1,1,1,1],[1,1,1,1],[1,1,1,1],[1,1,1,1],[1,1,1,1],[1,1,1,1],[1,1,1,1]],"target":[0,0],"response":[3,2],"correct":false,"juego":15,"trial_type":"serial-reaction-time-mouse","trial_index":72,"time_elapsed":1789244,"internal_node_id":"0.0-11.0-14.0"},{"rt":4068.1000002659857,"stimulus":"<h1>Último juego</h1><p style=\"font-size: 130%;\">Tienes <span style=\"color:red\">25</span> segundos para recordar los pares de palabras que aparecerán a continuación. <br></p>","response":0,"trial_type":"html-button-response","trial_index":73,"time_elapsed":1793325,"internal_node_id":"0.0-12.0"},{"animation_sequence":[{"stimulus":"imagen_juego_interferencia.jpg","time":524.0000002086163},{"stimulus":"imagen_juego_interferencia.jpg","time":1007.6999999582767},{"stimulus":"imagen_juego_interferencia.jpg","time":1508.7000001221895},{"stimulus":"imagen_juego_interferencia.jpg","time":2007.60000012815},{"stimulus":"imagen_juego_interferencia.jpg","time":2507.60000012815},{"stimulus":"imagen_juego_interferencia.jpg","time":3006.90000038594},{"stimulus":"imagen_juego_interferencia.jpg","time":3507.2000003419816},{"stimulus":"imagen_juego_interferencia.jpg","time":4007.400000002235},{"stimulus":"imagen_juego_interferencia.jpg","time":4507.400000002235},{"stimulus":"imagen_juego_interferencia.jpg","time":5007.200000341982},{"stimulus":"imagen_juego_interferencia.jpg","time":5507.100000046194},{"stimulus":"imagen_juego_interferencia.jpg","time":6006.599999964237},{"stimulus":"imagen_juego_interferencia.jpg","time":6507.699999958277},{"stimulus":"imagen_juego_interferencia.jpg","time":7006.90000038594},{"stimulus":"imagen_juego_interferencia.jpg","time":7507.699999958277},{"stimulus":"imagen_juego_interferencia.jpg","time":8008.100000210106},{"stimulus":"imagen_juego_interferencia.jpg","time":8507.60000012815},{"stimulus":"imagen_juego_interferencia.jpg","time":9007.500000298023},{"stimulus":"imagen_juego_interferencia.jpg","time":9507.699999958277},{"stimulus":"imagen_juego_interferencia.jpg","time":10006.599999964237},{"stimulus":"imagen_juego_interferencia.jpg","time":10508.800000417978},{"stimulus":"imagen_juego_interferencia.jpg","time":11008.100000210106},{"stimulus":"imagen_juego_interferencia.jpg","time":11507.200000341982},{"stimulus":"imagen_juego_interferencia.jpg","time":12007.000000216067},{"stimulus":"imagen_juego_interferencia.jpg","time":12506.300000008196},{"stimulus":"imagen_juego_interferencia.jpg","time":13006.90000038594},{"stimulus":"imagen_juego_interferencia.jpg","time":13506.90000038594},{"stimulus":"imagen_juego_interferencia.jpg","time":14008.70000012219},{"stimulus":"imagen_juego_interferencia.jpg","time":14507.100000046194},{"stimulus":"imagen_juego_interferencia.jpg","time":15031.600000336766},{"stimulus":"imagen_juego_interferencia.jpg","time":15506.700000260025},{"stimulus":"imagen_juego_interferencia.jpg","time":16007.500000298023},{"stimulus":"imagen_juego_interferencia.jpg","time":16506.800000090152},{"stimulus":"imagen_juego_interferencia.jpg","time":17006.599999964237},{"stimulus":"imagen_juego_interferencia.jpg","time":17506.400000303984},{"stimulus":"imagen_juego_interferencia.jpg","time":18006.90000038594},{"stimulus":"imagen_juego_interferencia.jpg","time":18507.20000034198},{"stimulus":"imagen_juego_interferencia.jpg","time":19006.400000303984},{"stimulus":"imagen_juego_interferencia.jpg","time":19507.000000216067},{"stimulus":"imagen_juego_interferencia.jpg","time":20006.599999964237},{"stimulus":"imagen_juego_interferencia.jpg","time":20507.000000216067},{"stimulus":"imagen_juego_interferencia.jpg","time":21007.100000046194},{"stimulus":"imagen_juego_interferencia.jpg","time":21507.000000216067},{"stimulus":"imagen_juego_interferencia.jpg","time":22006.800000090152},{"stimulus":"imagen_juego_interferencia.jpg","time":22506.800000090152},{"stimulus":"imagen_juego_interferencia.jpg","time":23008.600000292063},{"stimulus":"imagen_juego_interferencia.jpg","time":23507.30000017211},{"stimulus":"imagen_juego_interferencia.jpg","time":24006.800000090152},{"stimulus":"imagen_juego_interferencia.jpg","time":24506.800000090152},{"stimulus":"imagen_juego_interferencia.jpg","time":25006.90000038594}],"response":[],"trial_type":"animation","trial_index":74,"time_elapsed":1818837,"internal_node_id":"0.0-13.0"},{"rt":6463.90000032261,"responses":"{\"pregunta interferencia4\":\"contador\"}","question_order":"[0]","trial_type":"survey-multi-choice-cuest","trial_index":75,"time_elapsed":1825313,"internal_node_id":"0.0-14.0-0.0"},{"rt":3372.800000011921,"responses":"{\"pregunta interferencia2\":\"saltamontes\"}","question_order":"[0]","trial_type":"survey-multi-choice-cuest","trial_index":76,"time_elapsed":1828692,"internal_node_id":"0.0-14.0-1.0"},{"rt":4165.09999986738,"responses":"{\"pregunta interferencia3\":\"aluminio\"}","question_order":"[0]","trial_type":"survey-multi-choice-cuest","trial_index":77,"time_elapsed":1832864,"internal_node_id":"0.0-14.0-2.0"},{"rt":3352.6999996975064,"responses":"{\"pregunta interferencia1\":\"naranja\"}","question_order":"[0]","trial_type":"survey-multi-choice-cuest","trial_index":78,"time_elapsed":1836224,"internal_node_id":"0.0-14.0-3.0"},{"success":true,"trial_type":"fullscreen","trial_index":79,"time_elapsed":1837229,"internal_node_id":"0.0-15.0"}]