[{"rt":22491.799999952316,"stimulus":"<h1 style=\"color:red; margin-top: 3%;\">¡Bienvenido(a)!</h1><p style=\"text-align:left; justify-content:space-between; margin-right: 5%; margin-left: 5%; margin-top: 5%\"> Antes de empezar el estudio, necesitamos que nos confirmes que estás de acuerdo con participar. Recuerda que tu participación es 100% voluntaria y que lo único que te pedimos es responder lo mejor que puedas. Recuerda también que el estudio incluye:</p><ol style=\"text-align:left; justify-content:space-between; margin-right: 5%; margin-left: 5%;\"><li> un ejercicio de resolución de preguntas de selección múltiple (30’),</li><li>un cuestionario breve (5’),</li><li>un juego muy breve (3’),</li></ol><p style=\"text-align:left; justify-content:space-between; margin-right: 5%; margin-left: 5%;\">Si quieres participar, haz clic en “Acepto” luego de leer lo siguiente:<br></p><p style=\"text-align:left; justify-content:space-between; margin-right: 5%; margin-left: 5%;\">Acepto participar en el estudio “Estrategias de lectura y resolución de preguntas de selección múltiple”, en los términos aquí señalados:<br></p><p style=\"text-align:left; justify-content:space-between; margin-right: 5%; margin-left: 5%;\"><a href=\"http://ciae.uchile.cl/download.php?file=noticias/Asentimiento.pdf\" target=\"_blank\">Link a la hoja de información del Consentimiento.</a></p><p style=\"text-align:left; justify-content:space-between; margin-right: 5%; margin-left: 5%;\">Declaro que he leído (o se me ha leído) y (he) comprendido, las condiciones de mi participación en este estudio. He tenido la oportunidad de hacer preguntas y éstas han sido respondidas. No tengo dudas al respecto.</p>","response":0,"condicion_MCQ":7,"condicion_JUEGO":19,"condicion_INTER":19,"numero_participante":67,"numero_version":1,"dimx":1366,"dimy":768,"color_profundidad":24,"pixel_profundidad":24,"Browser":"Google Chrome","dia":9,"mes":5,"hora":2,"minuto":19,"segundo":10,"trial_type":"html-button-response","trial_index":0,"time_elapsed":22496,"internal_node_id":"0.0-0.0"},{"success":true,"trial_type":"fullscreen","trial_index":1,"time_elapsed":31693,"internal_node_id":"0.0-1.0"},{"rt":121236.90000009537,"responses":"{\"Nombres\":\"Catalina de los Ángeles \",\"Apellidos\":\"Cortes Valdes \",\"Edad\":\"18\",\"Sexo\":\"Mujer\",\"Curso\":\"sección 204\",\"Colegio\":\"Universidad Andrés Bello \",\"Contacto\":\"cata.dlacv031@gmail.com\"}","trial_type":"survey-text","trial_index":2,"time_elapsed":152932,"internal_node_id":"0.0-2.0"},{"success":true,"timeout":false,"failed_images":[],"failed_audio":[],"failed_video":[],"trial_type":"preload","trial_index":3,"time_elapsed":153973,"internal_node_id":"0.0-3.0"},{"rt":9604.400000095367,"stimulus":"<h1 style:\"margin-top: 5%;\">Ejercicios de Comprensión de Lectura de la Universidad de Chile</h1><p style=\"font-size: 120%;\">En esta actividad, debes responder 24 preguntas de selección múltiple. Cada pregunta presenta 4 respuestas alternativas, pero sólo una de ellas es correcta. Por lo tanto, debes escoger una sola alternativa para cada pregunta. Además, debes reportar qué tan seguro(a) estás de la respuesta que das, con un:</p><ol style=\"font-size: 120%;text-align:left;margin-left: 40%;\"><li>No estoy seguro(a) para nada</li><li>No estoy muy seguro(a)</li><li>Estoy bastante seguro(a)</li><li>Estoy totalmente seguro(a)</li></ol><p style=\"font-size: 120%;\">Por favor lee bien los enunciados antes de responder. ¡Éxito!</p>","response":0,"trial_type":"html-button-response","trial_index":4,"time_elapsed":163579,"internal_node_id":"0.0-4.0"},{"rt":115948.69999992847,"responses":"{\"pregunta12\":\"b) Homenajear a quienes murieron.\"}","question_order":"[0]","trial_type":"survey-multi-choice","trial_index":5,"time_elapsed":279538,"internal_node_id":"0.0-5.0-0.0"},{"rt":4969.5,"response":{"pregunta12 likert":3},"question_order":[0],"trial_type":"survey-likert","trial_index":6,"time_elapsed":284513,"internal_node_id":"0.0-5.0-1.0"},{"rt":75745,"responses":"{\"pregunta13\":\"a) A la inutilidad de tanto esfuerzo si el objetivo es el reposo.\"}","question_order":"[0]","trial_type":"survey-multi-choice","trial_index":7,"time_elapsed":360263,"internal_node_id":"0.0-5.0-2.0"},{"rt":2850.8000000715256,"response":{"pregunta13 likert":1},"question_order":[0],"trial_type":"survey-likert","trial_index":8,"time_elapsed":363120,"internal_node_id":"0.0-5.0-3.0"},{"rt":302082.7999999523,"responses":"{\"pregunta4\":\"d) En la literatura como en la vida, lo importante son las preguntas.\"}","question_order":"[0]","trial_type":"survey-multi-choice","trial_index":9,"time_elapsed":665210,"internal_node_id":"0.0-5.0-4.0"},{"rt":4518.100000023842,"response":{"pregunta4 likert":2},"question_order":[0],"trial_type":"survey-likert","trial_index":10,"time_elapsed":669734,"internal_node_id":"0.0-5.0-5.0"},{"rt":39537.299999952316,"responses":"{\"pregunta22\":\"b) Se necesita un marco legal para delimitar lo público y lo privado en materia informativa.\"}","question_order":"[0]","trial_type":"survey-multi-choice","trial_index":11,"time_elapsed":709278,"internal_node_id":"0.0-5.0-6.0"},{"rt":6052.799999952316,"response":{"pregunta22 likert":2},"question_order":[0],"trial_type":"survey-likert","trial_index":12,"time_elapsed":715337,"internal_node_id":"0.0-5.0-7.0"},{"rt":43338.200000047684,"responses":"{\"pregunta11\":\"b) Provocar el deseo de la adquisición vertiginosa.\"}","question_order":"[0]","trial_type":"survey-multi-choice","trial_index":13,"time_elapsed":758681,"internal_node_id":"0.0-5.0-8.0"},{"rt":3544.899999976158,"response":{"pregunta11 likert":3},"question_order":[0],"trial_type":"survey-likert","trial_index":14,"time_elapsed":762232,"internal_node_id":"0.0-5.0-9.0"},{"rt":54609.200000047684,"responses":"{\"pregunta9\":\"a) preparar los recuerdos del mañana.\"}","question_order":"[0]","trial_type":"survey-multi-choice","trial_index":15,"time_elapsed":816847,"internal_node_id":"0.0-5.0-10.0"},{"rt":2794.1999999284744,"response":{"pregunta9 likert":3},"question_order":[0],"trial_type":"survey-likert","trial_index":16,"time_elapsed":819647,"internal_node_id":"0.0-5.0-11.0"},{"rt":81681.30000007153,"responses":"{\"pregunta19\":\"b) llevan un control grupal de su embarazo.\"}","question_order":"[0]","trial_type":"survey-multi-choice","trial_index":17,"time_elapsed":901334,"internal_node_id":"0.0-5.0-12.0"},{"rt":4463.5,"response":{"pregunta19 likert":1},"question_order":[0],"trial_type":"survey-likert","trial_index":18,"time_elapsed":905804,"internal_node_id":"0.0-5.0-13.0"},{"rt":78496.20000004768,"responses":"{\"pregunta10\":\"b) ritualistas y obsesivos.\"}","question_order":"[0]","trial_type":"survey-multi-choice","trial_index":19,"time_elapsed":984306,"internal_node_id":"0.0-5.0-14.0"},{"rt":3439,"response":{"pregunta10 likert":2},"question_order":[0],"trial_type":"survey-likert","trial_index":20,"time_elapsed":987751,"internal_node_id":"0.0-5.0-15.0"},{"rt":108971.20000004768,"responses":"{\"pregunta7\":\"a) se da como existente, y sólo se discute su relación con el cuerpo.\"}","question_order":"[0]","trial_type":"survey-multi-choice","trial_index":21,"time_elapsed":1096729,"internal_node_id":"0.0-5.0-16.0"},{"rt":6137,"response":{"pregunta7 likert":1},"question_order":[0],"trial_type":"survey-likert","trial_index":22,"time_elapsed":1102874,"internal_node_id":"0.0-5.0-17.0"},{"rt":82388.5,"responses":"{\"pregunta8\":\"a) El ser humano se comporta de acuerdo con las circunstancias.\"}","question_order":"[0]","trial_type":"survey-multi-choice","trial_index":23,"time_elapsed":1185268,"internal_node_id":"0.0-5.0-18.0"},{"rt":4862.5,"response":{"pregunta8 likert":2},"question_order":[0],"trial_type":"survey-likert","trial_index":24,"time_elapsed":1190136,"internal_node_id":"0.0-5.0-19.0"},{"rt":89267.90000009537,"responses":"{\"pregunta15\":\"c) el uranio es el elemento natural con el mayor número de protones en el núcleo.\"}","question_order":"[0]","trial_type":"survey-multi-choice","trial_index":25,"time_elapsed":1279411,"internal_node_id":"0.0-5.0-20.0"},{"rt":2282.399999976158,"response":{"pregunta15 likert":1},"question_order":[0],"trial_type":"survey-likert","trial_index":26,"time_elapsed":1281698,"internal_node_id":"0.0-5.0-21.0"},{"rt":37554.700000047684,"responses":"{\"pregunta16\":\"a) Por el riesgo que corren diariamente, los bomberos deberían tener mejores condiciones de seguridad.\"}","question_order":"[0]","trial_type":"survey-multi-choice","trial_index":27,"time_elapsed":1319258,"internal_node_id":"0.0-5.0-22.0"},{"rt":2380.1999999284744,"response":{"pregunta16 likert":2},"question_order":[0],"trial_type":"survey-likert","trial_index":28,"time_elapsed":1321644,"internal_node_id":"0.0-5.0-23.0"},{"rt":75489.5,"responses":"{\"pregunta2\":\"d) A la relación entre hechos capitales y parámetros del pensamiento.\"}","question_order":"[0]","trial_type":"survey-multi-choice","trial_index":29,"time_elapsed":1397139,"internal_node_id":"0.0-5.0-24.0"},{"rt":2120.2999999523163,"response":{"pregunta2 likert":0},"question_order":[0],"trial_type":"survey-likert","trial_index":30,"time_elapsed":1399265,"internal_node_id":"0.0-5.0-25.0"},{"rt":71798.89999997616,"responses":"{\"pregunta18\":\"d) El receptor es habitualmente pasivo frente a la publicidad.\"}","question_order":"[0]","trial_type":"survey-multi-choice","trial_index":31,"time_elapsed":1471069,"internal_node_id":"0.0-5.0-26.0"},{"rt":3776.399999976158,"response":{"pregunta18 likert":2},"question_order":[0],"trial_type":"survey-likert","trial_index":32,"time_elapsed":1474852,"internal_node_id":"0.0-5.0-27.0"},{"rt":53045.200000047684,"responses":"{\"pregunta23\":\"b) el jardinero estará muerto al día siguiente.\"}","question_order":"[0]","trial_type":"survey-multi-choice","trial_index":33,"time_elapsed":1527905,"internal_node_id":"0.0-5.0-28.0"},{"rt":3970.2000000476837,"response":{"pregunta23 likert":3},"question_order":[0],"trial_type":"survey-likert","trial_index":34,"time_elapsed":1531881,"internal_node_id":"0.0-5.0-29.0"},{"rt":82951.29999995232,"responses":"{\"pregunta1\":\"a) Muestran las opiniones expuestas por los personajes en un relato.\"}","question_order":"[0]","trial_type":"survey-multi-choice","trial_index":35,"time_elapsed":1614839,"internal_node_id":"0.0-5.0-30.0"},{"rt":3018.5,"response":{"pregunta1 likert":2},"question_order":[0],"trial_type":"survey-likert","trial_index":36,"time_elapsed":1617863,"internal_node_id":"0.0-5.0-31.0"},{"rt":65107.5,"responses":"{\"pregunta17\":\"d) A la influencia de grupos que rechazaban su música.\"}","question_order":"[0]","trial_type":"survey-multi-choice","trial_index":37,"time_elapsed":1682976,"internal_node_id":"0.0-5.0-32.0"},{"rt":3339.7000000476837,"response":{"pregunta17 likert":2},"question_order":[0],"trial_type":"survey-likert","trial_index":38,"time_elapsed":1686323,"internal_node_id":"0.0-5.0-33.0"},{"rt":30653.800000071526,"responses":"{\"pregunta24\":\"b) para el mexicano, la muerte es cotidiana.\"}","question_order":"[0]","trial_type":"survey-multi-choice","trial_index":39,"time_elapsed":1716983,"internal_node_id":"0.0-5.0-34.0"},{"rt":5839.399999976158,"response":{"pregunta24 likert":1},"question_order":[0],"trial_type":"survey-likert","trial_index":40,"time_elapsed":1722828,"internal_node_id":"0.0-5.0-35.0"},{"rt":49402.5,"responses":"{\"pregunta21\":\"b) El TLC puede traer más dificultades que progresos.\"}","question_order":"[0]","trial_type":"survey-multi-choice","trial_index":41,"time_elapsed":1772236,"internal_node_id":"0.0-5.0-36.0"},{"rt":2723.2999999523163,"response":{"pregunta21 likert":1},"question_order":[0],"trial_type":"survey-likert","trial_index":42,"time_elapsed":1774965,"internal_node_id":"0.0-5.0-37.0"},{"rt":44266,"responses":"{\"pregunta14\":\"a) el Primer Ministro debía morir por ambicioso.\"}","question_order":"[0]","trial_type":"survey-multi-choice","trial_index":43,"time_elapsed":1819237,"internal_node_id":"0.0-5.0-38.0"},{"rt":3421.2000000476837,"response":{"pregunta14 likert":1},"question_order":[0],"trial_type":"survey-likert","trial_index":44,"time_elapsed":1822664,"internal_node_id":"0.0-5.0-39.0"},{"rt":106251.29999995232,"responses":"{\"pregunta20\":\"c) el sujeto sufre con su modo de vida.\"}","question_order":"[0]","trial_type":"survey-multi-choice","trial_index":45,"time_elapsed":1928922,"internal_node_id":"0.0-5.0-40.0"},{"rt":1952.2000000476837,"response":{"pregunta20 likert":0},"question_order":[0],"trial_type":"survey-likert","trial_index":46,"time_elapsed":1930880,"internal_node_id":"0.0-5.0-41.0"},{"rt":90713.79999995232,"responses":"{\"pregunta5\":\"d) Los momentos triviales de los viajes, en la escritura se vuelven significativos.\"}","question_order":"[0]","trial_type":"survey-multi-choice","trial_index":47,"time_elapsed":2021600,"internal_node_id":"0.0-5.0-42.0"},{"rt":2743.5,"response":{"pregunta5 likert":0},"question_order":[0],"trial_type":"survey-likert","trial_index":48,"time_elapsed":2024349,"internal_node_id":"0.0-5.0-43.0"},{"rt":66922.30000007153,"responses":"{\"pregunta3\":\"c) El inicio de la civilización china.\"}","question_order":"[0]","trial_type":"survey-multi-choice","trial_index":49,"time_elapsed":2091277,"internal_node_id":"0.0-5.0-44.0"},{"rt":29304.600000023842,"response":{"pregunta3 likert":2},"question_order":[0],"trial_type":"survey-likert","trial_index":50,"time_elapsed":2120587,"internal_node_id":"0.0-5.0-45.0"},{"rt":163730.89999997616,"responses":"{\"pregunta6\":\"d) Promover la asistencia a un evento específico de decoración a través de una atractiva descripción.\"}","question_order":"[0]","trial_type":"survey-multi-choice","trial_index":51,"time_elapsed":2284324,"internal_node_id":"0.0-5.0-46.0"},{"rt":4137.399999976158,"response":{"pregunta6 likert":2},"question_order":[0],"trial_type":"survey-likert","trial_index":52,"time_elapsed":2288468,"internal_node_id":"0.0-5.0-47.0"}]