[{"rt":8943.699999988079,"stimulus":"<h1 style=\"color:red; margin-top: 3%;\">¡Bienvenido(a)!</h1><p style=\"text-align:left; justify-content:space-between; margin-right: 5%; margin-left: 5%; margin-top: 5%\"> Antes de empezar el estudio, necesitamos que nos confirmes que estás de acuerdo con participar. Recuerda que tu participación es 100% voluntaria y que lo único que te pedimos es responder lo mejor que puedas. Recuerda también que el estudio incluye:</p><ol style=\"text-align:left; justify-content:space-between; margin-right: 5%; margin-left: 5%;\"><li> un ejercicio de resolución de preguntas de selección múltiple (30’),</li><li>un cuestionario breve (5’),</li><li>un juego muy breve (3’),</li></ol><p style=\"text-align:left; justify-content:space-between; margin-right: 5%; margin-left: 5%;\">Si quieres participar, haz clic en “Acepto” luego de leer lo siguiente:<br></p><p style=\"text-align:left; justify-content:space-between; margin-right: 5%; margin-left: 5%;\">Acepto participar en el estudio “Estrategias de lectura y resolución de preguntas de selección múltiple”, en los términos aquí señalados:<br></p><p style=\"text-align:left; justify-content:space-between; margin-right: 5%; margin-left: 5%;\"><a href=\"http://ciae.uchile.cl/download.php?file=noticias/Asentimiento.pdf\" target=\"_blank\">Link a la hoja de información del Consentimiento.</a></p><p style=\"text-align:left; justify-content:space-between; margin-right: 5%; margin-left: 5%;\">Declaro que he leído (o se me ha leído) y (he) comprendido, las condiciones de mi participación en este estudio. He tenido la oportunidad de hacer preguntas y éstas han sido respondidas. No tengo dudas al respecto.</p>","response":0,"condicion_MCQ":2,"condicion_JUEGO":14,"condicion_INTER":14,"numero_participante":14,"numero_version":1,"dimx":1366,"dimy":768,"color_profundidad":24,"pixel_profundidad":24,"Browser":"Google Chrome","dia":2,"mes":5,"hora":22,"minuto":27,"segundo":13,"trial_type":"html-button-response","trial_index":0,"time_elapsed":8949,"internal_node_id":"0.0-0.0"},{"success":true,"trial_type":"fullscreen","trial_index":1,"time_elapsed":17361,"internal_node_id":"0.0-1.0"},{"rt":166937.90000000596,"responses":"{\"Nombres\":\"Catalina\",\"Apellidos\":\"Mosre Quintanilla \",\"Edad\":\"19\",\"Sexo\":\"mujer\",\"Curso\":\"sección 205\",\"Colegio\":\"Andrés bello casona\",\"Contacto\":\"catamosreq@gmail.com\"}","trial_type":"survey-text","trial_index":2,"time_elapsed":184312,"internal_node_id":"0.0-2.0"},{"success":true,"timeout":false,"failed_images":[],"failed_audio":[],"failed_video":[],"trial_type":"preload","trial_index":3,"time_elapsed":188540,"internal_node_id":"0.0-3.0"},{"rt":17170.29999998212,"stimulus":"<h1 style:\"margin-top: 5%;\">Ejercicios de Comprensión de Lectura de la Universidad de Chile</h1><p style=\"font-size: 120%;\">En esta actividad, debes responder 24 preguntas de selección múltiple. Cada pregunta presenta 4 respuestas alternativas, pero sólo una de ellas es correcta. Por lo tanto, debes escoger una sola alternativa para cada pregunta. Además, debes reportar qué tan seguro(a) estás de la respuesta que das, con un:</p><ol style=\"font-size: 120%;text-align:left;margin-left: 40%;\"><li>No estoy seguro(a) para nada</li><li>No estoy muy seguro(a)</li><li>Estoy bastante seguro(a)</li><li>Estoy totalmente seguro(a)</li></ol><p style=\"font-size: 120%;\">Por favor lee bien los enunciados antes de responder. ¡Éxito!</p>","response":0,"trial_type":"html-button-response","trial_index":4,"time_elapsed":205712,"internal_node_id":"0.0-4.0"},{"rt":73835.70000001788,"responses":"{\"pregunta19\":\"c) sufren dolores de espalda.\"}","question_order":"[0]","trial_type":"survey-multi-choice","trial_index":5,"time_elapsed":279570,"internal_node_id":"0.0-5.0-0.0"},{"rt":5268.0999999940395,"response":{"pregunta19 likert":2},"question_order":[0],"trial_type":"survey-likert","trial_index":6,"time_elapsed":285600,"internal_node_id":"0.0-5.0-1.0"},{"rt":60167.90000000596,"responses":"{\"pregunta12\":\"a) Homenajear a quienes murieron.\"}","question_order":"[0]","trial_type":"survey-multi-choice","trial_index":7,"time_elapsed":345771,"internal_node_id":"0.0-5.0-2.0"},{"rt":2932.2000000178814,"response":{"pregunta12 likert":3},"question_order":[0],"trial_type":"survey-likert","trial_index":8,"time_elapsed":348705,"internal_node_id":"0.0-5.0-3.0"},{"rt":89607.59999999404,"responses":"{\"pregunta18\":\"b) La publicidad ejerce una influencia positiva sobre la sociedad.\"}","question_order":"[0]","trial_type":"survey-multi-choice","trial_index":9,"time_elapsed":438315,"internal_node_id":"0.0-5.0-4.0"},{"rt":2512.800000011921,"response":{"pregunta18 likert":1},"question_order":[0],"trial_type":"survey-likert","trial_index":10,"time_elapsed":440830,"internal_node_id":"0.0-5.0-5.0"},{"rt":65288.5,"responses":"{\"pregunta7\":\"a) es un concepto introducido en la cultura por Platón.\"}","question_order":"[0]","trial_type":"survey-multi-choice","trial_index":11,"time_elapsed":506121,"internal_node_id":"0.0-5.0-6.0"},{"rt":3753.399999976158,"response":{"pregunta7 likert":2},"question_order":[0],"trial_type":"survey-likert","trial_index":12,"time_elapsed":509877,"internal_node_id":"0.0-5.0-7.0"},{"rt":76291.90000000596,"responses":"{\"pregunta20\":\"c) para Aristóteles la virtud estaba en el justo equilibrio.\"}","question_order":"[0]","trial_type":"survey-multi-choice","trial_index":13,"time_elapsed":586171,"internal_node_id":"0.0-5.0-8.0"},{"rt":2996.5,"response":{"pregunta20 likert":2},"question_order":[0],"trial_type":"survey-likert","trial_index":14,"time_elapsed":589169,"internal_node_id":"0.0-5.0-9.0"},{"rt":41300.40000000596,"responses":"{\"pregunta10\":\"d) ritualistas y obsesivos.\"}","question_order":"[0]","trial_type":"survey-multi-choice","trial_index":15,"time_elapsed":630471,"internal_node_id":"0.0-5.0-10.0"},{"rt":2285.4000000059605,"response":{"pregunta10 likert":3},"question_order":[0],"trial_type":"survey-likert","trial_index":16,"time_elapsed":632758,"internal_node_id":"0.0-5.0-11.0"},{"rt":34462.69999998808,"responses":"{\"pregunta13\":\"c) A la inutilidad de tanto esfuerzo si el objetivo es el reposo.\"}","question_order":"[0]","trial_type":"survey-multi-choice","trial_index":17,"time_elapsed":667221,"internal_node_id":"0.0-5.0-12.0"},{"rt":2166.5999999940395,"response":{"pregunta13 likert":3},"question_order":[0],"trial_type":"survey-likert","trial_index":18,"time_elapsed":669390,"internal_node_id":"0.0-5.0-13.0"},{"rt":43176.89999997616,"responses":"{\"pregunta24\":\"b) la muerte es distinta en las grandes ciudades.\"}","question_order":"[0]","trial_type":"survey-multi-choice","trial_index":19,"time_elapsed":712568,"internal_node_id":"0.0-5.0-14.0"},{"rt":3129.5999999940395,"response":{"pregunta24 likert":1},"question_order":[0],"trial_type":"survey-likert","trial_index":20,"time_elapsed":715700,"internal_node_id":"0.0-5.0-15.0"},{"rt":28789.79999998212,"responses":"{\"pregunta22\":\"d) Se necesita un marco legal para delimitar lo público y lo privado en materia informativa.\"}","question_order":"[0]","trial_type":"survey-multi-choice","trial_index":21,"time_elapsed":744491,"internal_node_id":"0.0-5.0-16.0"},{"rt":2582.9000000059605,"response":{"pregunta22 likert":3},"question_order":[0],"trial_type":"survey-likert","trial_index":22,"time_elapsed":747077,"internal_node_id":"0.0-5.0-17.0"},{"rt":26652.5,"responses":"{\"pregunta21\":\"a) El TLC causará una completa transformación de la economía chilena.\"}","question_order":"[0]","trial_type":"survey-multi-choice","trial_index":23,"time_elapsed":773731,"internal_node_id":"0.0-5.0-18.0"},{"rt":2398.5,"response":{"pregunta21 likert":2},"question_order":[0],"trial_type":"survey-likert","trial_index":24,"time_elapsed":776132,"internal_node_id":"0.0-5.0-19.0"},{"rt":52249.19999998808,"responses":"{\"pregunta15\":\"b) el uranio es el elemento natural con el mayor número de protones en el núcleo.\"}","question_order":"[0]","trial_type":"survey-multi-choice","trial_index":25,"time_elapsed":828384,"internal_node_id":"0.0-5.0-20.0"},{"rt":2409.4000000059605,"response":{"pregunta15 likert":2},"question_order":[0],"trial_type":"survey-likert","trial_index":26,"time_elapsed":830795,"internal_node_id":"0.0-5.0-21.0"},{"rt":72409.5,"responses":"{\"pregunta4\":\"c) En la literatura como en la vida, todo es metáfora.\"}","question_order":"[0]","trial_type":"survey-multi-choice","trial_index":27,"time_elapsed":903208,"internal_node_id":"0.0-5.0-22.0"},{"rt":3635.7000000178814,"response":{"pregunta4 likert":3},"question_order":[0],"trial_type":"survey-likert","trial_index":28,"time_elapsed":906846,"internal_node_id":"0.0-5.0-23.0"},{"rt":43887.09999999404,"responses":"{\"pregunta2\":\"a) A la relación entre pensamiento y estructura social.\"}","question_order":"[0]","trial_type":"survey-multi-choice","trial_index":29,"time_elapsed":950735,"internal_node_id":"0.0-5.0-24.0"},{"rt":2865.199999988079,"response":{"pregunta2 likert":2},"question_order":[0],"trial_type":"survey-likert","trial_index":30,"time_elapsed":953602,"internal_node_id":"0.0-5.0-25.0"},{"rt":46738.20000001788,"responses":"{\"pregunta11\":\"d) Provocar el deseo de la adquisición vertiginosa.\"}","question_order":"[0]","trial_type":"survey-multi-choice","trial_index":31,"time_elapsed":1000342,"internal_node_id":"0.0-5.0-26.0"},{"rt":4191.199999988079,"response":{"pregunta11 likert":2},"question_order":[0],"trial_type":"survey-likert","trial_index":32,"time_elapsed":1004535,"internal_node_id":"0.0-5.0-27.0"},{"rt":64159.60000002384,"responses":"{\"pregunta1\":\"a) Aportan informaciones con las que se reconstruye el personaje dentro de un relato.\"}","question_order":"[0]","trial_type":"survey-multi-choice","trial_index":33,"time_elapsed":1068697,"internal_node_id":"0.0-5.0-28.0"},{"rt":2847.5,"response":{"pregunta1 likert":2},"question_order":[0],"trial_type":"survey-likert","trial_index":34,"time_elapsed":1071547,"internal_node_id":"0.0-5.0-29.0"},{"rt":37558.69999998808,"responses":"{\"pregunta3\":\"d) Las grandes civilizaciones autóctonas.\"}","question_order":"[0]","trial_type":"survey-multi-choice","trial_index":35,"time_elapsed":1109107,"internal_node_id":"0.0-5.0-30.0"},{"rt":2958.5,"response":{"pregunta3 likert":3},"question_order":[0],"trial_type":"survey-likert","trial_index":36,"time_elapsed":1112068,"internal_node_id":"0.0-5.0-31.0"},{"rt":35333,"responses":"{\"pregunta23\":\"d) el jardinero estará muerto al día siguiente.\"}","question_order":"[0]","trial_type":"survey-multi-choice","trial_index":37,"time_elapsed":1147403,"internal_node_id":"0.0-5.0-32.0"},{"rt":3614,"response":{"pregunta23 likert":3},"question_order":[0],"trial_type":"survey-likert","trial_index":38,"time_elapsed":1151019,"internal_node_id":"0.0-5.0-33.0"},{"rt":47654.40000000596,"responses":"{\"pregunta14\":\"d) la muerte de Wu Ti fue una bendición.\"}","question_order":"[0]","trial_type":"survey-multi-choice","trial_index":39,"time_elapsed":1198675,"internal_node_id":"0.0-5.0-34.0"},{"rt":2610.9000000059605,"response":{"pregunta14 likert":2},"question_order":[0],"trial_type":"survey-likert","trial_index":40,"time_elapsed":1201288,"internal_node_id":"0.0-5.0-35.0"},{"rt":119376.39999997616,"responses":"{\"pregunta5\":\"c) En los viajes es esencial el momento mismo de la escritura.\"}","question_order":"[0]","trial_type":"survey-multi-choice","trial_index":41,"time_elapsed":1320667,"internal_node_id":"0.0-5.0-36.0"},{"rt":3479.2000000178814,"response":{"pregunta5 likert":1},"question_order":[0],"trial_type":"survey-likert","trial_index":42,"time_elapsed":1324148,"internal_node_id":"0.0-5.0-37.0"},{"rt":50188.69999998808,"responses":"{\"pregunta16\":\"d) Bomberos necesita ser defendido de la injusticia social que reina en el país.\"}","question_order":"[0]","trial_type":"survey-multi-choice","trial_index":43,"time_elapsed":1374338,"internal_node_id":"0.0-5.0-38.0"},{"rt":2861,"response":{"pregunta16 likert":1},"question_order":[0],"trial_type":"survey-likert","trial_index":44,"time_elapsed":1377201,"internal_node_id":"0.0-5.0-39.0"},{"rt":60532.80000001192,"responses":"{\"pregunta6\":\"c) Promover la asistencia a un evento específico de decoración a través de una atractiva descripción.\"}","question_order":"[0]","trial_type":"survey-multi-choice","trial_index":45,"time_elapsed":1437735,"internal_node_id":"0.0-5.0-40.0"},{"rt":2490.800000011921,"response":{"pregunta6 likert":3},"question_order":[0],"trial_type":"survey-likert","trial_index":46,"time_elapsed":1440227,"internal_node_id":"0.0-5.0-41.0"},{"rt":50233,"responses":"{\"pregunta9\":\"c) la persistencia de la melancolía y la desesperanza.\"}","question_order":"[0]","trial_type":"survey-multi-choice","trial_index":47,"time_elapsed":1490462,"internal_node_id":"0.0-5.0-42.0"},{"rt":2801.199999988079,"response":{"pregunta9 likert":1},"question_order":[0],"trial_type":"survey-likert","trial_index":48,"time_elapsed":1493265,"internal_node_id":"0.0-5.0-43.0"},{"rt":40474.10000002384,"responses":"{\"pregunta8\":\"c) El ser humano se comporta de acuerdo con las circunstancias.\"}","question_order":"[0]","trial_type":"survey-multi-choice","trial_index":49,"time_elapsed":1533741,"internal_node_id":"0.0-5.0-44.0"},{"rt":2025.300000011921,"response":{"pregunta8 likert":3},"question_order":[0],"trial_type":"survey-likert","trial_index":50,"time_elapsed":1535768,"internal_node_id":"0.0-5.0-45.0"},{"rt":48203.19999998808,"responses":"{\"pregunta17\":\"b) A la influencia de grupos que rechazaban su música.\"}","question_order":"[0]","trial_type":"survey-multi-choice","trial_index":51,"time_elapsed":1583972,"internal_node_id":"0.0-5.0-46.0"},{"rt":2368.5,"response":{"pregunta17 likert":3},"question_order":[0],"trial_type":"survey-likert","trial_index":52,"time_elapsed":1586343,"internal_node_id":"0.0-5.0-47.0"},{"rt":2707.199999988079,"stimulus":"<p style=\"font-size: 120%\">Gracias por completar esta etapa del estudio. Ahora te invitamos a responder el cuestionario.<br><br></p>","response":0,"trial_type":"html-button-response","trial_index":53,"time_elapsed":1589055,"internal_node_id":"0.0-6.0"},{"rt":17970.69999998808,"stimulus":"<h1 style=\"margin-top: 5%\">Cuestionario para la Evaluación de Metas Académicas</h1><p style=\"font-size: 120%; margin-left: 3%; margin-top: 5%\">Este es un cuestionario que permite conocer cuáles son los principales motivos por los que los estudiantes se esfuerzan en su trabajo académico. A continuación, se te presentarán una serie de afirmaciones acerca de los motivos que puedes tener para estudiar.<br>Te pedimos que contestes a dichas afirmaciones reflexionando sobre el contenido de cada una de ellas, que, aunque te parezcan semejantes, en realidad, no lo son.<br>NO HAY RESPUESTAS CORRECTAS o INCORRECTAS, sólo queremos que respondas con la mayor precisión y sinceridad posible a las preguntas que se plantean.","response":0,"trial_type":"html-button-response","trial_index":54,"time_elapsed":1607028,"internal_node_id":"0.0-7.0"},{"rt":89328.5,"response":{"Metas cuestionario pregunta1":2,"Metas cuestionario pregunta2":3,"Metas cuestionario pregunta3":2,"Metas cuestionario pregunta4":2,"Metas cuestionario pregunta5":3,"Metas cuestionario pregunta6":3,"Metas cuestionario pregunta7":3,"Metas cuestionario pregunta8":4,"Metas cuestionario pregunta9":2,"Metas cuestionario pregunta10":0,"Metas cuestionario pregunta11":0,"Metas cuestionario pregunta12":2,"Metas cuestionario pregunta13":2,"Metas cuestionario pregunta14":0,"Metas cuestionario pregunta15":4,"Metas cuestionario pregunta16":4,"Metas cuestionario pregunta17":4,"Metas cuestionario pregunta18":4,"Metas cuestionario pregunta19":4,"Metas cuestionario pregunta20":2},"question_order":[0,1,2,3,4,5,6,7,8,9,10,11,12,13,14,15,16,17,18,19],"trial_type":"survey-likert","trial_index":55,"time_elapsed":1696362,"internal_node_id":"0.0-8.0"},{"rt":2585.5999999940395,"stimulus":"<p style=\"font-size: 120%\">Gracias por responder el cuestionario. Ahora te invitamos a seguir con el juego, que es muy breve.<br><br></p>","response":0,"trial_type":"html-button-response","trial_index":56,"time_elapsed":1698952,"internal_node_id":"0.0-9.0"},{"rt":8758.700000017881,"stimulus":"<h1>Juego</h1><p style=\"font-size: 120%;\">A continuación se te presentarán 16 pequeñas historias.<br>Por favor lee el texto presentado en cada una de ellas y luego haz click en el objeto de tu elección.<br>Si estás listo(a),<span style=\"color:red;\"> haz click en \"comenzar\"</span>.</p>","response":0,"trial_type":"html-button-response","trial_index":57,"time_elapsed":1707712,"internal_node_id":"0.0-10.0"},{"rt":14246.800000011921,"grid":[[1,1,1],[1,1,1],[1,1,1],[1,1,1],[1,1,1],[1,1,1],[1,1,1],[1,1,1],[1,1,1]],"target":[0,0],"response":[3,1],"correct":false,"juego":13,"trial_type":"serial-reaction-time-mouse","trial_index":58,"time_elapsed":1721963,"internal_node_id":"0.0-11.0-0.0"},{"rt":17783.59999999404,"grid":[[1,1,1,1],[1,1,1,1],[1,1,1,1],[1,1,1,1],[1,1,1,1],[1,1,1,1],[1,1,1,1],[1,1,1,1],[1,1,1,1]],"target":[0,0],"response":[1,2],"correct":false,"juego":15,"trial_type":"serial-reaction-time-mouse","trial_index":59,"time_elapsed":1739751,"internal_node_id":"0.0-11.0-1.0"},{"rt":17889.59999999404,"grid":[[1,1,1,1]],"target":[0,0],"response":[0,3],"correct":false,"juego":2,"trial_type":"serial-reaction-time-mouse","trial_index":60,"time_elapsed":1757643,"internal_node_id":"0.0-11.0-2.0"},{"rt":12615.5,"grid":[[1,1,1,1]],"target":[0,0],"response":[0,2],"correct":false,"juego":12,"trial_type":"serial-reaction-time-mouse","trial_index":61,"time_elapsed":1770263,"internal_node_id":"0.0-11.0-3.0"},{"rt":9719.40000000596,"grid":[[1,1,1],[1,1,1],[1,1,1],[1,1,1],[1,1,1],[1,1,1],[1,1,1],[1,1,1],[1,1,1]],"target":[0,0],"response":[1,1],"correct":false,"juego":5,"trial_type":"serial-reaction-time-mouse","trial_index":62,"time_elapsed":1779991,"internal_node_id":"0.0-11.0-4.0"},{"rt":12697.40000000596,"grid":[[1,1,1,1]],"target":[0,0],"response":[0,2],"correct":false,"juego":11,"trial_type":"serial-reaction-time-mouse","trial_index":63,"time_elapsed":1792692,"internal_node_id":"0.0-11.0-5.0"},{"rt":10817.800000011921,"grid":[[1,1,1,1],[1,1,1,1],[1,1,1,1],[1,1,1,1],[1,1,1,1],[1,1,1,1],[1,1,1,1],[1,1,1,1],[1,1,1,1]],"target":[0,0],"response":[5,2],"correct":false,"juego":14,"trial_type":"serial-reaction-time-mouse","trial_index":64,"time_elapsed":1803514,"internal_node_id":"0.0-11.0-6.0"},{"rt":8590.300000011921,"grid":[[1,1,1,1]],"target":[0,0],"response":[0,2],"correct":false,"juego":7,"trial_type":"serial-reaction-time-mouse","trial_index":65,"time_elapsed":1812110,"internal_node_id":"0.0-11.0-7.0"},{"rt":7972.600000023842,"grid":[[1,1,1,1]],"target":[0,0],"response":[0,1],"correct":false,"juego":8,"trial_type":"serial-reaction-time-mouse","trial_index":66,"time_elapsed":1820088,"internal_node_id":"0.0-11.0-8.0"},{"rt":4484.5,"grid":[[1,1,1,1]],"target":[0,0],"response":[0,1],"correct":false,"juego":1,"trial_type":"serial-reaction-time-mouse","trial_index":67,"time_elapsed":1824579,"internal_node_id":"0.0-11.0-9.0"},{"rt":7681.4000000059605,"grid":[[1,1,1,1]],"target":[0,0],"response":[0,0],"correct":true,"juego":3,"trial_type":"serial-reaction-time-mouse","trial_index":68,"time_elapsed":1832263,"internal_node_id":"0.0-11.0-10.0"},{"rt":12677.300000011921,"grid":[[1,1,1],[1,1,1],[1,1,1],[1,1,1],[1,1,1],[1,1,1],[1,1,1],[1,1,1],[1,1,1]],"target":[0,0],"response":[1,0],"correct":false,"juego":10,"trial_type":"serial-reaction-time-mouse","trial_index":69,"time_elapsed":1844943,"internal_node_id":"0.0-11.0-11.0"},{"rt":4578.5999999940395,"grid":[[1],[1],[1],[1]],"target":[0,0],"response":[0,0],"correct":true,"juego":4,"trial_type":"serial-reaction-time-mouse","trial_index":70,"time_elapsed":1849527,"internal_node_id":"0.0-11.0-12.0"},{"rt":3675.699999988079,"grid":[[1,1,1],[1,1,1],[1,1,1],[1,1,1],[1,1,1],[1,1,1],[1,1,1],[1,1,1],[1,1,1]],"target":[0,0],"response":[1,1],"correct":false,"juego":6,"trial_type":"serial-reaction-time-mouse","trial_index":71,"time_elapsed":1853214,"internal_node_id":"0.0-11.0-13.0"},{"rt":9132.5,"grid":[[1,1,1,1]],"target":[0,0],"response":[0,2],"correct":false,"juego":9,"trial_type":"serial-reaction-time-mouse","trial_index":72,"time_elapsed":1862349,"internal_node_id":"0.0-11.0-14.0"}]