[{"rt":164825.40000000037,"stimulus":"<h1 style=\"color:red; margin-top: 3%;\">¡Bienvenido(a)!</h1><p style=\"text-align:left; justify-content:space-between; margin-right: 5%; margin-left: 5%; margin-top: 5%\"> Antes de empezar el estudio, necesitamos que nos confirmes que estás de acuerdo con participar. Recuerda que tu participación es 100% voluntaria y que lo único que te pedimos es responder lo mejor que puedas. Recuerda también que el estudio incluye:</p><ol style=\"text-align:left; justify-content:space-between; margin-right: 5%; margin-left: 5%;\"><li> un ejercicio de resolución de preguntas de selección múltiple (30’),</li><li>un cuestionario breve (5’),</li><li>un juego muy breve (3’),</li></ol><p style=\"text-align:left; justify-content:space-between; margin-right: 5%; margin-left: 5%;\">Si quieres participar, haz clic en “Acepto” luego de leer lo siguiente:<br></p><p style=\"text-align:left; justify-content:space-between; margin-right: 5%; margin-left: 5%;\">Acepto participar en el estudio “Estrategias de lectura y resolución de preguntas de selección múltiple”, en los términos aquí señalados:<br></p><p style=\"text-align:left; justify-content:space-between; margin-right: 5%; margin-left: 5%;\"><a href=\"http://ciae.uchile.cl/download.php?file=noticias/Asentimiento.pdf\" target=\"_blank\">Link a la hoja de información del Consentimiento.</a></p><p style=\"text-align:left; justify-content:space-between; margin-right: 5%; margin-left: 5%;\">Declaro que he leído (o se me ha leído) y (he) comprendido, las condiciones de mi participación en este estudio. He tenido la oportunidad de hacer preguntas y éstas han sido respondidas. No tengo dudas al respecto.</p>","response":0,"condicion_MCQ":12,"condicion_JUEGO":12,"condicion_INTER":12,"numero_participante":60,"numero_version":1,"dimx":1366,"dimy":768,"color_profundidad":24,"pixel_profundidad":24,"Browser":"Google Chrome","dia":7,"mes":5,"hora":16,"minuto":38,"segundo":34,"trial_type":"html-button-response","trial_index":0,"time_elapsed":164831,"internal_node_id":"0.0-0.0"},{"success":true,"trial_type":"fullscreen","trial_index":1,"time_elapsed":177100,"internal_node_id":"0.0-1.0"},{"rt":337502.9000000004,"responses":"{\"Nombres\":\"Nicolás Andrés\",\"Apellidos\":\"Rodríguez Aguilar \",\"Edad\":\"18\",\"Sexo\":\"hombre \",\"Curso\":\"sección 205\",\"Colegio\":\"Andrés Bello\",\"Contacto\":\"rodrigueznicolas864@gmail.com\"}","trial_type":"survey-text","trial_index":2,"time_elapsed":514613,"internal_node_id":"0.0-2.0"},{"success":true,"timeout":false,"failed_images":[],"failed_audio":[],"failed_video":[],"trial_type":"preload","trial_index":3,"time_elapsed":519693,"internal_node_id":"0.0-3.0"},{"rt":22277.800000000745,"stimulus":"<h1 style:\"margin-top: 5%;\">Ejercicios de Comprensión de Lectura de la Universidad de Chile</h1><p style=\"font-size: 120%;\">En esta actividad, debes responder 24 preguntas de selección múltiple. Cada pregunta presenta 4 respuestas alternativas, pero sólo una de ellas es correcta. Por lo tanto, debes escoger una sola alternativa para cada pregunta. Además, debes reportar qué tan seguro(a) estás de la respuesta que das, con un:</p><ol style=\"font-size: 120%;text-align:left;margin-left: 40%;\"><li>No estoy seguro(a) para nada</li><li>No estoy muy seguro(a)</li><li>Estoy bastante seguro(a)</li><li>Estoy totalmente seguro(a)</li></ol><p style=\"font-size: 120%;\">Por favor lee bien los enunciados antes de responder. ¡Éxito!</p>","response":0,"trial_type":"html-button-response","trial_index":4,"time_elapsed":541972,"internal_node_id":"0.0-4.0"},{"rt":346477.2000000011,"responses":"{\"pregunta20\":\"d) el hombre excesivo es inmoral.\"}","question_order":"[0]","trial_type":"survey-multi-choice","trial_index":5,"time_elapsed":888452,"internal_node_id":"0.0-5.0-0.0"},{"rt":9142.60000000149,"response":{"pregunta20 likert":2},"question_order":[0],"trial_type":"survey-likert","trial_index":6,"time_elapsed":897597,"internal_node_id":"0.0-5.0-1.0"},{"rt":222613.90000000037,"responses":"{\"pregunta10\":\"b) hedonistas y soñadores.\"}","question_order":"[0]","trial_type":"survey-multi-choice","trial_index":7,"time_elapsed":1120212,"internal_node_id":"0.0-5.0-2.0"},{"rt":2774.199999999255,"response":{"pregunta10 likert":3},"question_order":[0],"trial_type":"survey-likert","trial_index":8,"time_elapsed":1122988,"internal_node_id":"0.0-5.0-3.0"},{"rt":329270,"responses":"{\"pregunta21\":\"b) El TLC causará una completa transformación de la economía chilena.\"}","question_order":"[0]","trial_type":"survey-multi-choice","trial_index":9,"time_elapsed":1452260,"internal_node_id":"0.0-5.0-4.0"},{"rt":4637.700000001118,"response":{"pregunta21 likert":1},"question_order":[0],"trial_type":"survey-likert","trial_index":10,"time_elapsed":1456900,"internal_node_id":"0.0-5.0-5.0"},{"rt":84190.09999999963,"responses":"{\"pregunta1\":\"d) Aportan informaciones con las que se reconstruye el personaje dentro de un relato.\"}","question_order":"[0]","trial_type":"survey-multi-choice","trial_index":11,"time_elapsed":1541091,"internal_node_id":"0.0-5.0-6.0"},{"rt":3382.699999999255,"response":{"pregunta1 likert":3},"question_order":[0],"trial_type":"survey-likert","trial_index":12,"time_elapsed":1544475,"internal_node_id":"0.0-5.0-7.0"},{"rt":174485.80000000075,"responses":"{\"pregunta5\":\"b) Los momentos triviales de los viajes, en la escritura se vuelven significativos.\"}","question_order":"[0]","trial_type":"survey-multi-choice","trial_index":13,"time_elapsed":1718963,"internal_node_id":"0.0-5.0-8.0"},{"rt":2358.0999999996275,"response":{"pregunta5 likert":3},"question_order":[0],"trial_type":"survey-likert","trial_index":14,"time_elapsed":1721323,"internal_node_id":"0.0-5.0-9.0"},{"rt":106086.20000000112,"responses":"{\"pregunta3\":\"c) El inicio de la dinastía Chang.\"}","question_order":"[0]","trial_type":"survey-multi-choice","trial_index":15,"time_elapsed":1827411,"internal_node_id":"0.0-5.0-10.0"},{"rt":2293.89999999851,"response":{"pregunta3 likert":2},"question_order":[0],"trial_type":"survey-likert","trial_index":16,"time_elapsed":1829707,"internal_node_id":"0.0-5.0-11.0"},{"rt":111405.59999999963,"responses":"{\"pregunta23\":\"b) el jardinero era un hombre viejo.\"}","question_order":"[0]","trial_type":"survey-multi-choice","trial_index":17,"time_elapsed":1941114,"internal_node_id":"0.0-5.0-12.0"},{"rt":3126.199999999255,"response":{"pregunta23 likert":2},"question_order":[0],"trial_type":"survey-likert","trial_index":18,"time_elapsed":1944243,"internal_node_id":"0.0-5.0-13.0"},{"rt":47630.09999999963,"responses":"{\"pregunta24\":\"b) la muerte es distinta en las grandes ciudades.\"}","question_order":"[0]","trial_type":"survey-multi-choice","trial_index":19,"time_elapsed":1991875,"internal_node_id":"0.0-5.0-14.0"},{"rt":3013.9000000003725,"response":{"pregunta24 likert":2},"question_order":[0],"trial_type":"survey-likert","trial_index":20,"time_elapsed":1994891,"internal_node_id":"0.0-5.0-15.0"},{"rt":130141.40000000037,"responses":"{\"pregunta13\":\"d) Al premio merecido después de tantos esfuerzos.\"}","question_order":"[0]","trial_type":"survey-multi-choice","trial_index":21,"time_elapsed":2125034,"internal_node_id":"0.0-5.0-16.0"},{"rt":2694,"response":{"pregunta13 likert":3},"question_order":[0],"trial_type":"survey-likert","trial_index":22,"time_elapsed":2127730,"internal_node_id":"0.0-5.0-17.0"},{"rt":196550.29999999888,"responses":"{\"pregunta11\":\"c) Poner en escena objetos y servicios.\"}","question_order":"[0]","trial_type":"survey-multi-choice","trial_index":23,"time_elapsed":2324282,"internal_node_id":"0.0-5.0-18.0"},{"rt":2558.199999999255,"response":{"pregunta11 likert":2},"question_order":[0],"trial_type":"survey-likert","trial_index":24,"time_elapsed":2326842,"internal_node_id":"0.0-5.0-19.0"},{"rt":193678.1000000015,"responses":"{\"pregunta16\":\"a) Bomberos debería tener acceso a un seguro médico, al que pueda recurrir en caso de accidente.\"}","question_order":"[0]","trial_type":"survey-multi-choice","trial_index":25,"time_elapsed":2520522,"internal_node_id":"0.0-5.0-20.0"},{"rt":2429.800000000745,"response":{"pregunta16 likert":2},"question_order":[0],"trial_type":"survey-likert","trial_index":26,"time_elapsed":2522953,"internal_node_id":"0.0-5.0-21.0"},{"rt":265797.7999999989,"responses":"{\"pregunta2\":\"a) A la relación entre pensamiento y estructura social.\"}","question_order":"[0]","trial_type":"survey-multi-choice","trial_index":27,"time_elapsed":2788753,"internal_node_id":"0.0-5.0-22.0"},{"rt":2206.4000000003725,"response":{"pregunta2 likert":1},"question_order":[0],"trial_type":"survey-likert","trial_index":28,"time_elapsed":2790961,"internal_node_id":"0.0-5.0-23.0"},{"rt":100973.90000000037,"responses":"{\"pregunta4\":\"d) En la literatura como en la vida, todo es metáfora.\"}","question_order":"[0]","trial_type":"survey-multi-choice","trial_index":29,"time_elapsed":2891937,"internal_node_id":"0.0-5.0-24.0"},{"rt":1614.5,"response":{"pregunta4 likert":2},"question_order":[0],"trial_type":"survey-likert","trial_index":30,"time_elapsed":2893553,"internal_node_id":"0.0-5.0-25.0"},{"rt":69894.60000000149,"responses":"{\"pregunta8\":\"a) El concepto de normalidad es diferente para un psiquiatra que para nosotros.\"}","question_order":"[0]","trial_type":"survey-multi-choice","trial_index":31,"time_elapsed":2963449,"internal_node_id":"0.0-5.0-26.0"},{"rt":2101.7000000011176,"response":{"pregunta8 likert":3},"question_order":[0],"trial_type":"survey-likert","trial_index":32,"time_elapsed":2965553,"internal_node_id":"0.0-5.0-27.0"},{"rt":70870.59999999963,"responses":"{\"pregunta14\":\"d) sólo las leyes bastan para gobernarse.\"}","question_order":"[0]","trial_type":"survey-multi-choice","trial_index":33,"time_elapsed":3036426,"internal_node_id":"0.0-5.0-28.0"},{"rt":2005.9000000003725,"response":{"pregunta14 likert":2},"question_order":[0],"trial_type":"survey-likert","trial_index":34,"time_elapsed":3038434,"internal_node_id":"0.0-5.0-29.0"},{"rt":44686.29999999888,"responses":"{\"pregunta15\":\"c) la creación de elementos químicos artificiales ha resultado de la manipulación del uranio.\"}","question_order":"[0]","trial_type":"survey-multi-choice","trial_index":35,"time_elapsed":3083121,"internal_node_id":"0.0-5.0-30.0"},{"rt":2734.300000000745,"response":{"pregunta15 likert":3},"question_order":[0],"trial_type":"survey-likert","trial_index":36,"time_elapsed":3085857,"internal_node_id":"0.0-5.0-31.0"},{"rt":70590.80000000075,"responses":"{\"pregunta17\":\"b) A la influencia de grupos que rechazaban su música.\"}","question_order":"[0]","trial_type":"survey-multi-choice","trial_index":37,"time_elapsed":3156449,"internal_node_id":"0.0-5.0-32.0"},{"rt":2134.4000000003725,"response":{"pregunta17 likert":3},"question_order":[0],"trial_type":"survey-likert","trial_index":38,"time_elapsed":3158585,"internal_node_id":"0.0-5.0-33.0"},{"rt":160021.30000000075,"responses":"{\"pregunta7\":\"b) se da como existente, y sólo se discute su relación con el cuerpo.\"}","question_order":"[0]","trial_type":"survey-multi-choice","trial_index":39,"time_elapsed":3318608,"internal_node_id":"0.0-5.0-34.0"},{"rt":2142.5999999996275,"response":{"pregunta7 likert":1},"question_order":[0],"trial_type":"survey-likert","trial_index":40,"time_elapsed":3320752,"internal_node_id":"0.0-5.0-35.0"},{"rt":45702.89999999851,"responses":"{\"pregunta6\":\"b) Promover la asistencia a un evento específico de decoración a través de una atractiva descripción.\"}","question_order":"[0]","trial_type":"survey-multi-choice","trial_index":41,"time_elapsed":3366456,"internal_node_id":"0.0-5.0-36.0"},{"rt":2046.800000000745,"response":{"pregunta6 likert":3},"question_order":[0],"trial_type":"survey-likert","trial_index":42,"time_elapsed":3368504,"internal_node_id":"0.0-5.0-37.0"},{"rt":34086.699999999255,"responses":"{\"pregunta22\":\"a) Las personas públicas no tienen vida privada.\"}","question_order":"[0]","trial_type":"survey-multi-choice","trial_index":43,"time_elapsed":3402592,"internal_node_id":"0.0-5.0-38.0"},{"rt":2575.0999999996275,"response":{"pregunta22 likert":3},"question_order":[0],"trial_type":"survey-likert","trial_index":44,"time_elapsed":3405168,"internal_node_id":"0.0-5.0-39.0"},{"rt":84543.29999999888,"responses":"{\"pregunta12\":\"b) Atraer a los turistas.\"}","question_order":"[0]","trial_type":"survey-multi-choice","trial_index":45,"time_elapsed":3489711,"internal_node_id":"0.0-5.0-40.0"},{"rt":3591,"response":{"pregunta12 likert":2},"question_order":[0],"trial_type":"survey-likert","trial_index":46,"time_elapsed":3493303,"internal_node_id":"0.0-5.0-41.0"},{"rt":174654.90000000037,"responses":"{\"pregunta19\":\"a) tienen dificultades durante el parto.\"}","question_order":"[0]","trial_type":"survey-multi-choice","trial_index":47,"time_elapsed":3667959,"internal_node_id":"0.0-5.0-42.0"},{"rt":4247.799999998882,"response":{"pregunta19 likert":1},"question_order":[0],"trial_type":"survey-likert","trial_index":48,"time_elapsed":3672209,"internal_node_id":"0.0-5.0-43.0"},{"rt":51262.199999999255,"responses":"{\"pregunta9\":\"c) preparar los recuerdos del mañana.\"}","question_order":"[0]","trial_type":"survey-multi-choice","trial_index":49,"time_elapsed":3723473,"internal_node_id":"0.0-5.0-44.0"},{"rt":2845.9000000003725,"response":{"pregunta9 likert":1},"question_order":[0],"trial_type":"survey-likert","trial_index":50,"time_elapsed":3726320,"internal_node_id":"0.0-5.0-45.0"},{"rt":88670.5,"responses":"{\"pregunta18\":\"b) El receptor es habitualmente pasivo frente a la publicidad.\"}","question_order":"[0]","trial_type":"survey-multi-choice","trial_index":51,"time_elapsed":3814992,"internal_node_id":"0.0-5.0-46.0"},{"rt":1661.9000000003725,"response":{"pregunta18 likert":2},"question_order":[0],"trial_type":"survey-likert","trial_index":52,"time_elapsed":3816656,"internal_node_id":"0.0-5.0-47.0"}]