[{"rt":9809.199999928474,"stimulus":"<h1 style=\"color:red; margin-top: 3%;\">¡Bienvenido(a)!</h1><p style=\"text-align:left; justify-content:space-between; margin-right: 5%; margin-left: 5%; margin-top: 5%\"> Antes de empezar el estudio, necesitamos que nos confirmes que estás de acuerdo con participar. Recuerda que tu participación es 100% voluntaria y que lo único que te pedimos es responder lo mejor que puedas. Recuerda también que el estudio incluye:</p><ol style=\"text-align:left; justify-content:space-between; margin-right: 5%; margin-left: 5%;\"><li> un ejercicio de resolución de preguntas de selección múltiple (30’),</li><li>un cuestionario breve (5’),</li><li>un juego muy breve (3’),</li></ol><p style=\"text-align:left; justify-content:space-between; margin-right: 5%; margin-left: 5%;\">Si quieres participar, haz clic en “Acepto” luego de leer lo siguiente:<br></p><p style=\"text-align:left; justify-content:space-between; margin-right: 5%; margin-left: 5%;\">Acepto participar en el estudio “Estrategias de lectura y resolución de preguntas de selección múltiple”, en los términos aquí señalados:<br></p><p style=\"text-align:left; justify-content:space-between; margin-right: 5%; margin-left: 5%;\"><a href=\"http://ciae.uchile.cl/download.php?file=noticias/Asentimiento.pdf\" target=\"_blank\">Link a la hoja de información del Consentimiento.</a></p><p style=\"text-align:left; justify-content:space-between; margin-right: 5%; margin-left: 5%;\">Declaro que he leído (o se me ha leído) y (he) comprendido, las condiciones de mi participación en este estudio. He tenido la oportunidad de hacer preguntas y éstas han sido respondidas. No tengo dudas al respecto.</p>","response":0,"condicion_MCQ":12,"condicion_JUEGO":24,"condicion_INTER":24,"numero_participante":96,"numero_version":1,"dimx":1366,"dimy":768,"color_profundidad":24,"pixel_profundidad":24,"Browser":"Google Chrome","dia":18,"mes":5,"hora":14,"minuto":6,"segundo":13,"trial_type":"html-button-response","trial_index":0,"time_elapsed":9815,"internal_node_id":"0.0-0.0"},{"success":true,"trial_type":"fullscreen","trial_index":1,"time_elapsed":15915,"internal_node_id":"0.0-1.0"},{"rt":103097.5,"responses":"{\"Nombres\":\"Samantha Ignacia\",\"Apellidos\":\"Bolados Farias\",\"Edad\":\"19\",\"Sexo\":\"mujer\",\"Curso\":\"sección 204\",\"Colegio\":\"universidad andres bello\",\"Contacto\":\"sammyhuajsjak@gmail.com\"}","trial_type":"survey-text","trial_index":2,"time_elapsed":119028,"internal_node_id":"0.0-2.0"},{"success":true,"timeout":false,"failed_images":[],"failed_audio":[],"failed_video":[],"trial_type":"preload","trial_index":3,"time_elapsed":124243,"internal_node_id":"0.0-3.0"},{"rt":11211.700000047684,"stimulus":"<h1 style:\"margin-top: 5%;\">Ejercicios de Comprensión de Lectura de la Universidad de Chile</h1><p style=\"font-size: 120%;\">En esta actividad, debes responder 24 preguntas de selección múltiple. Cada pregunta presenta 4 respuestas alternativas, pero sólo una de ellas es correcta. Por lo tanto, debes escoger una sola alternativa para cada pregunta. Además, debes reportar qué tan seguro(a) estás de la respuesta que das, con un:</p><ol style=\"font-size: 120%;text-align:left;margin-left: 40%;\"><li>No estoy seguro(a) para nada</li><li>No estoy muy seguro(a)</li><li>Estoy bastante seguro(a)</li><li>Estoy totalmente seguro(a)</li></ol><p style=\"font-size: 120%;\">Por favor lee bien los enunciados antes de responder. ¡Éxito!</p>","response":0,"trial_type":"html-button-response","trial_index":4,"time_elapsed":135457,"internal_node_id":"0.0-4.0"},{"rt":105546.80000007153,"responses":"{\"pregunta20\":\"a) el sujeto sufre con su modo de vida.\"}","question_order":"[0]","trial_type":"survey-multi-choice","trial_index":5,"time_elapsed":241007,"internal_node_id":"0.0-5.0-0.0"},{"rt":3513.399999976158,"response":{"pregunta20 likert":1},"question_order":[0],"trial_type":"survey-likert","trial_index":6,"time_elapsed":244525,"internal_node_id":"0.0-5.0-1.0"},{"rt":38774.89999997616,"responses":"{\"pregunta13\":\"d) Al premio merecido después de tantos esfuerzos.\"}","question_order":"[0]","trial_type":"survey-multi-choice","trial_index":7,"time_elapsed":283303,"internal_node_id":"0.0-5.0-2.0"},{"rt":2557.2000000476837,"response":{"pregunta13 likert":2},"question_order":[0],"trial_type":"survey-likert","trial_index":8,"time_elapsed":285864,"internal_node_id":"0.0-5.0-3.0"},{"rt":51306.39999997616,"responses":"{\"pregunta18\":\"a) La publicidad ejerce una influencia positiva sobre la sociedad.\"}","question_order":"[0]","trial_type":"survey-multi-choice","trial_index":9,"time_elapsed":337173,"internal_node_id":"0.0-5.0-4.0"},{"rt":1819,"response":{"pregunta18 likert":1},"question_order":[0],"trial_type":"survey-likert","trial_index":10,"time_elapsed":338996,"internal_node_id":"0.0-5.0-5.0"},{"rt":48470.89999997616,"responses":"{\"pregunta1\":\"d) Aportan informaciones con las que se reconstruye el personaje dentro de un relato.\"}","question_order":"[0]","trial_type":"survey-multi-choice","trial_index":11,"time_elapsed":387472,"internal_node_id":"0.0-5.0-6.0"},{"rt":3141.399999976158,"response":{"pregunta1 likert":1},"question_order":[0],"trial_type":"survey-likert","trial_index":12,"time_elapsed":390617,"internal_node_id":"0.0-5.0-7.0"},{"rt":100109.30000007153,"responses":"{\"pregunta19\":\"b) sufren dolores de espalda.\"}","question_order":"[0]","trial_type":"survey-multi-choice","trial_index":13,"time_elapsed":490731,"internal_node_id":"0.0-5.0-8.0"},{"rt":2643.2000000476837,"response":{"pregunta19 likert":0},"question_order":[0],"trial_type":"survey-likert","trial_index":14,"time_elapsed":493378,"internal_node_id":"0.0-5.0-9.0"},{"rt":86902.10000002384,"responses":"{\"pregunta8\":\"c) El ser humano se comporta de acuerdo con las circunstancias.\"}","question_order":"[0]","trial_type":"survey-multi-choice","trial_index":15,"time_elapsed":580284,"internal_node_id":"0.0-5.0-10.0"},{"rt":2765.5,"response":{"pregunta8 likert":1},"question_order":[0],"trial_type":"survey-likert","trial_index":16,"time_elapsed":583052,"internal_node_id":"0.0-5.0-11.0"},{"rt":115891.60000002384,"responses":"{\"pregunta7\":\"b) se da como existente, y sólo se discute su relación con el cuerpo.\"}","question_order":"[0]","trial_type":"survey-multi-choice","trial_index":17,"time_elapsed":698947,"internal_node_id":"0.0-5.0-12.0"},{"rt":1899.6000000238419,"response":{"pregunta7 likert":0},"question_order":[0],"trial_type":"survey-likert","trial_index":18,"time_elapsed":700851,"internal_node_id":"0.0-5.0-13.0"},{"rt":133040.10000002384,"responses":"{\"pregunta14\":\"a) el mejor emperador es el que está muerto.\"}","question_order":"[0]","trial_type":"survey-multi-choice","trial_index":19,"time_elapsed":833894,"internal_node_id":"0.0-5.0-14.0"},{"rt":6584.5,"response":{"pregunta14 likert":1},"question_order":[0],"trial_type":"survey-likert","trial_index":20,"time_elapsed":840482,"internal_node_id":"0.0-5.0-15.0"},{"rt":96581.79999995232,"responses":"{\"pregunta2\":\"a) A la relación entre pensamiento y estructura social.\"}","question_order":"[0]","trial_type":"survey-multi-choice","trial_index":21,"time_elapsed":937069,"internal_node_id":"0.0-5.0-16.0"},{"rt":2674.8000000715256,"response":{"pregunta2 likert":0},"question_order":[0],"trial_type":"survey-likert","trial_index":22,"time_elapsed":939747,"internal_node_id":"0.0-5.0-17.0"},{"rt":122399.10000002384,"responses":"{\"pregunta5\":\"a) La escritura plasma los mejores momentos de los viajes.\"}","question_order":"[0]","trial_type":"survey-multi-choice","trial_index":23,"time_elapsed":1062150,"internal_node_id":"0.0-5.0-18.0"},{"rt":2138,"response":{"pregunta5 likert":1},"question_order":[0],"trial_type":"survey-likert","trial_index":24,"time_elapsed":1064293,"internal_node_id":"0.0-5.0-19.0"},{"rt":69954.59999990463,"responses":"{\"pregunta9\":\"c) preparar los recuerdos del mañana.\"}","question_order":"[0]","trial_type":"survey-multi-choice","trial_index":25,"time_elapsed":1134250,"internal_node_id":"0.0-5.0-20.0"},{"rt":3264.5,"response":{"pregunta9 likert":1},"question_order":[0],"trial_type":"survey-likert","trial_index":26,"time_elapsed":1137517,"internal_node_id":"0.0-5.0-21.0"},{"rt":78067,"responses":"{\"pregunta21\":\"c) Nuestra economía vivirá un proceso de ajuste a la nueva realidad.\"}","question_order":"[0]","trial_type":"survey-multi-choice","trial_index":27,"time_elapsed":1215587,"internal_node_id":"0.0-5.0-22.0"},{"rt":2716.399999976158,"response":{"pregunta21 likert":1},"question_order":[0],"trial_type":"survey-likert","trial_index":28,"time_elapsed":1218306,"internal_node_id":"0.0-5.0-23.0"},{"rt":38899.299999952316,"responses":"{\"pregunta3\":\"c) El inicio de la dinastía Chang.\"}","question_order":"[0]","trial_type":"survey-multi-choice","trial_index":29,"time_elapsed":1257208,"internal_node_id":"0.0-5.0-24.0"},{"rt":2846.600000023842,"response":{"pregunta3 likert":1},"question_order":[0],"trial_type":"survey-likert","trial_index":30,"time_elapsed":1260057,"internal_node_id":"0.0-5.0-25.0"},{"rt":31474.5,"responses":"{\"pregunta16\":\"b) Se debe crear un seguro médico especial para esta institución, pues es de alto riesgo.\"}","question_order":"[0]","trial_type":"survey-multi-choice","trial_index":31,"time_elapsed":1291534,"internal_node_id":"0.0-5.0-26.0"},{"rt":2647.6999999284744,"response":{"pregunta16 likert":1},"question_order":[0],"trial_type":"survey-likert","trial_index":32,"time_elapsed":1294184,"internal_node_id":"0.0-5.0-27.0"},{"rt":68130.10000002384,"responses":"{\"pregunta11\":\"a) Deleitar a sus receptores por medio de la belleza y el confort\"}","question_order":"[0]","trial_type":"survey-multi-choice","trial_index":33,"time_elapsed":1362317,"internal_node_id":"0.0-5.0-28.0"},{"rt":4442.900000095367,"response":{"pregunta11 likert":1},"question_order":[0],"trial_type":"survey-likert","trial_index":34,"time_elapsed":1366763,"internal_node_id":"0.0-5.0-29.0"},{"rt":105403.20000004768,"responses":"{\"pregunta12\":\"d) Homenajear a quienes murieron.\"}","question_order":"[0]","trial_type":"survey-multi-choice","trial_index":35,"time_elapsed":1472169,"internal_node_id":"0.0-5.0-30.0"},{"rt":2589,"response":{"pregunta12 likert":1},"question_order":[0],"trial_type":"survey-likert","trial_index":36,"time_elapsed":1474762,"internal_node_id":"0.0-5.0-31.0"},{"rt":101728,"responses":"{\"pregunta6\":\"c) Presentar positivamente las diversas tendencias del diseño de interiores a través de un comentario.\"}","question_order":"[0]","trial_type":"survey-multi-choice","trial_index":37,"time_elapsed":1576493,"internal_node_id":"0.0-5.0-32.0"},{"rt":1811.6000000238419,"response":{"pregunta6 likert":1},"question_order":[0],"trial_type":"survey-likert","trial_index":38,"time_elapsed":1578308,"internal_node_id":"0.0-5.0-33.0"},{"rt":58378.09999990463,"responses":"{\"pregunta15\":\"b) a partir de la manipulación del núcleo se han creado elementos químicos naturales.\"}","question_order":"[0]","trial_type":"survey-multi-choice","trial_index":39,"time_elapsed":1636689,"internal_node_id":"0.0-5.0-34.0"},{"rt":2898.8000000715256,"response":{"pregunta15 likert":0},"question_order":[0],"trial_type":"survey-likert","trial_index":40,"time_elapsed":1639591,"internal_node_id":"0.0-5.0-35.0"},{"rt":22466.799999952316,"responses":"{\"pregunta22\":\"c) Se necesita un marco legal para delimitar lo público y lo privado en materia informativa.\"}","question_order":"[0]","trial_type":"survey-multi-choice","trial_index":41,"time_elapsed":1662060,"internal_node_id":"0.0-5.0-36.0"},{"rt":2232.2999999523163,"response":{"pregunta22 likert":1},"question_order":[0],"trial_type":"survey-likert","trial_index":42,"time_elapsed":1664294,"internal_node_id":"0.0-5.0-37.0"},{"rt":49661.10000002384,"responses":"{\"pregunta23\":\"d) el jardinero estará muerto al día siguiente.\"}","question_order":"[0]","trial_type":"survey-multi-choice","trial_index":43,"time_elapsed":1713957,"internal_node_id":"0.0-5.0-38.0"},{"rt":2333.399999976158,"response":{"pregunta23 likert":1},"question_order":[0],"trial_type":"survey-likert","trial_index":44,"time_elapsed":1716293,"internal_node_id":"0.0-5.0-39.0"},{"rt":15988.399999976158,"responses":"{\"pregunta24\":\"d) para el mexicano, la muerte es cotidiana.\"}","question_order":"[0]","trial_type":"survey-multi-choice","trial_index":45,"time_elapsed":1732284,"internal_node_id":"0.0-5.0-40.0"},{"rt":2381.2000000476837,"response":{"pregunta24 likert":3},"question_order":[0],"trial_type":"survey-likert","trial_index":46,"time_elapsed":1734668,"internal_node_id":"0.0-5.0-41.0"},{"rt":40515.60000002384,"responses":"{\"pregunta10\":\"b) hedonistas y soñadores.\"}","question_order":"[0]","trial_type":"survey-multi-choice","trial_index":47,"time_elapsed":1775186,"internal_node_id":"0.0-5.0-42.0"},{"rt":2780.7000000476837,"response":{"pregunta10 likert":1},"question_order":[0],"trial_type":"survey-likert","trial_index":48,"time_elapsed":1777969,"internal_node_id":"0.0-5.0-43.0"},{"rt":11378,"responses":"{\"pregunta4\":\"b) En la literatura, el narrador expresa su voluntad de libertad.\"}","question_order":"[0]","trial_type":"survey-multi-choice","trial_index":49,"time_elapsed":1789350,"internal_node_id":"0.0-5.0-44.0"},{"rt":2570.7999999523163,"response":{"pregunta4 likert":1},"question_order":[0],"trial_type":"survey-likert","trial_index":50,"time_elapsed":1791924,"internal_node_id":"0.0-5.0-45.0"},{"rt":34282.39999997616,"responses":"{\"pregunta17\":\"a) A la inexistencia de un recinto adecuado para el recital.\"}","question_order":"[0]","trial_type":"survey-multi-choice","trial_index":51,"time_elapsed":1826208,"internal_node_id":"0.0-5.0-46.0"},{"rt":2390.4000000953674,"response":{"pregunta17 likert":1},"question_order":[0],"trial_type":"survey-likert","trial_index":52,"time_elapsed":1828601,"internal_node_id":"0.0-5.0-47.0"},{"rt":1988,"stimulus":"<p style=\"font-size: 120%\">Gracias por completar esta etapa del estudio. Ahora te invitamos a responder el cuestionario.<br><br></p>","response":0,"trial_type":"html-button-response","trial_index":53,"time_elapsed":1830595,"internal_node_id":"0.0-6.0"},{"rt":12812.100000023842,"stimulus":"<h1 style=\"margin-top: 5%\">Cuestionario para la Evaluación de Metas Académicas</h1><p style=\"font-size: 120%; margin-left: 3%; margin-top: 5%\">Este es un cuestionario que permite conocer cuáles son los principales motivos por los que los estudiantes se esfuerzan en su trabajo académico. A continuación, se te presentarán una serie de afirmaciones acerca de los motivos que puedes tener para estudiar.<br>Te pedimos que contestes a dichas afirmaciones reflexionando sobre el contenido de cada una de ellas, que, aunque te parezcan semejantes, en realidad, no lo son.<br>NO HAY RESPUESTAS CORRECTAS o INCORRECTAS, sólo queremos que respondas con la mayor precisión y sinceridad posible a las preguntas que se plantean.","response":0,"trial_type":"html-button-response","trial_index":54,"time_elapsed":1843409,"internal_node_id":"0.0-7.0"},{"rt":69912,"response":{"Metas cuestionario pregunta1":2,"Metas cuestionario pregunta2":3,"Metas cuestionario pregunta3":4,"Metas cuestionario pregunta4":2,"Metas cuestionario pregunta5":3,"Metas cuestionario pregunta6":4,"Metas cuestionario pregunta7":4,"Metas cuestionario pregunta8":2,"Metas cuestionario pregunta9":0,"Metas cuestionario pregunta10":0,"Metas cuestionario pregunta11":0,"Metas cuestionario pregunta12":0,"Metas cuestionario pregunta13":1,"Metas cuestionario pregunta14":0,"Metas cuestionario pregunta15":4,"Metas cuestionario pregunta16":4,"Metas cuestionario pregunta17":3,"Metas cuestionario pregunta18":3,"Metas cuestionario pregunta19":4,"Metas cuestionario pregunta20":4},"question_order":[0,1,2,3,4,5,6,7,8,9,10,11,12,13,14,15,16,17,18,19],"trial_type":"survey-likert","trial_index":55,"time_elapsed":1913333,"internal_node_id":"0.0-8.0"},{"rt":1721.8999999761581,"stimulus":"<p style=\"font-size: 120%\">Gracias por responder el cuestionario. Ahora te invitamos a seguir con el juego, que es muy breve.<br><br></p>","response":0,"trial_type":"html-button-response","trial_index":56,"time_elapsed":1915061,"internal_node_id":"0.0-9.0"},{"rt":4275.299999952316,"stimulus":"<h1>Juego</h1><p style=\"font-size: 120%;\">A continuación se te presentarán 16 pequeñas historias.<br>Por favor lee el texto presentado en cada una de ellas y luego haz click en el objeto de tu elección.<br>Si estás listo(a),<span style=\"color:red;\"> haz click en \"comenzar\"</span>.</p>","response":0,"trial_type":"html-button-response","trial_index":57,"time_elapsed":1919339,"internal_node_id":"0.0-10.0"},{"rt":13613.600000023842,"grid":[[1,1,1,1]],"target":[0,0],"response":[0,2],"correct":false,"juego":11,"trial_type":"serial-reaction-time-mouse","trial_index":58,"time_elapsed":1932956,"internal_node_id":"0.0-11.0-0.0"},{"rt":12660.299999952316,"grid":[[1,1,1],[1,1,1],[1,1,1],[1,1,1],[1,1,1],[1,1,1],[1,1,1],[1,1,1],[1,1,1]],"target":[0,0],"response":[3,1],"correct":false,"juego":5,"trial_type":"serial-reaction-time-mouse","trial_index":59,"time_elapsed":1945619,"internal_node_id":"0.0-11.0-1.0"},{"rt":11135.600000023842,"grid":[[1,1,1,1]],"target":[0,0],"response":[0,1],"correct":false,"juego":3,"trial_type":"serial-reaction-time-mouse","trial_index":60,"time_elapsed":1956757,"internal_node_id":"0.0-11.0-2.0"},{"rt":6937.600000023842,"grid":[[1,1,1,1]],"target":[0,0],"response":[0,2],"correct":false,"juego":9,"trial_type":"serial-reaction-time-mouse","trial_index":61,"time_elapsed":1963697,"internal_node_id":"0.0-11.0-3.0"},{"rt":13118.399999976158,"grid":[[1,1,1,1],[1,1,1,1],[1,1,1,1],[1,1,1,1],[1,1,1,1],[1,1,1,1],[1,1,1,1],[1,1,1,1],[1,1,1,1]],"target":[0,0],"response":[5,2],"correct":false,"juego":15,"trial_type":"serial-reaction-time-mouse","trial_index":62,"time_elapsed":1976819,"internal_node_id":"0.0-11.0-4.0"},{"rt":15254,"grid":[[1,1,1,1]],"target":[0,0],"response":[0,2],"correct":false,"juego":2,"trial_type":"serial-reaction-time-mouse","trial_index":63,"time_elapsed":1992076,"internal_node_id":"0.0-11.0-5.0"},{"rt":5440.300000071526,"grid":[[1,1,1],[1,1,1],[1,1,1],[1,1,1],[1,1,1],[1,1,1],[1,1,1],[1,1,1],[1,1,1]],"target":[0,0],"response":[5,1],"correct":false,"juego":6,"trial_type":"serial-reaction-time-mouse","trial_index":64,"time_elapsed":1997520,"internal_node_id":"0.0-11.0-6.0"},{"rt":3667,"grid":[[1,1,1,1]],"target":[0,0],"response":[0,3],"correct":false,"juego":1,"trial_type":"serial-reaction-time-mouse","trial_index":65,"time_elapsed":2001189,"internal_node_id":"0.0-11.0-7.0"},{"rt":9630.200000047684,"grid":[[1,1,1,1]],"target":[0,0],"response":[0,3],"correct":false,"juego":7,"trial_type":"serial-reaction-time-mouse","trial_index":66,"time_elapsed":2010822,"internal_node_id":"0.0-11.0-8.0"},{"rt":8652.5,"grid":[[1,1,1,1]],"target":[0,0],"response":[0,3],"correct":false,"juego":12,"trial_type":"serial-reaction-time-mouse","trial_index":67,"time_elapsed":2019477,"internal_node_id":"0.0-11.0-9.0"},{"rt":10478.5,"grid":[[1,1,1,1]],"target":[0,0],"response":[0,0],"correct":true,"juego":8,"trial_type":"serial-reaction-time-mouse","trial_index":68,"time_elapsed":2029958,"internal_node_id":"0.0-11.0-10.0"},{"rt":4463.100000023842,"grid":[[1,1,1,1],[1,1,1,1],[1,1,1,1],[1,1,1,1],[1,1,1,1],[1,1,1,1],[1,1,1,1],[1,1,1,1],[1,1,1,1]],"target":[0,0],"response":[7,2],"correct":false,"juego":14,"trial_type":"serial-reaction-time-mouse","trial_index":69,"time_elapsed":2034425,"internal_node_id":"0.0-11.0-11.0"},{"rt":4612.799999952316,"grid":[[1,1,1],[1,1,1],[1,1,1],[1,1,1],[1,1,1],[1,1,1],[1,1,1],[1,1,1],[1,1,1]],"target":[0,0],"response":[3,1],"correct":false,"juego":13,"trial_type":"serial-reaction-time-mouse","trial_index":70,"time_elapsed":2039042,"internal_node_id":"0.0-11.0-12.0"},{"rt":4523.899999976158,"grid":[[1],[1],[1],[1]],"target":[0,0],"response":[2,0],"correct":false,"juego":4,"trial_type":"serial-reaction-time-mouse","trial_index":71,"time_elapsed":2043569,"internal_node_id":"0.0-11.0-13.0"},{"rt":11951.700000047684,"grid":[[1,1,1],[1,1,1],[1,1,1],[1,1,1],[1,1,1],[1,1,1],[1,1,1],[1,1,1],[1,1,1]],"target":[0,0],"response":[1,0],"correct":false,"juego":10,"trial_type":"serial-reaction-time-mouse","trial_index":72,"time_elapsed":2055525,"internal_node_id":"0.0-11.0-14.0"},{"rt":3125.1999999284744,"stimulus":"<h1>Último juego</h1><p style=\"font-size: 130%;\">Tienes <span style=\"color:red\">25</span> segundos para recordar los pares de palabras que aparecerán a continuación. <br></p>","response":0,"trial_type":"html-button-response","trial_index":73,"time_elapsed":2058655,"internal_node_id":"0.0-12.0"},{"animation_sequence":[{"stimulus":"imagen_juego_interferencia.jpg","time":514.4000000953674},{"stimulus":"imagen_juego_interferencia.jpg","time":1001.5},{"stimulus":"imagen_juego_interferencia.jpg","time":1502.2000000476837},{"stimulus":"imagen_juego_interferencia.jpg","time":2002.9000000953674},{"stimulus":"imagen_juego_interferencia.jpg","time":2503.4000000953674},{"stimulus":"imagen_juego_interferencia.jpg","time":3002.8000000715256},{"stimulus":"imagen_juego_interferencia.jpg","time":3502.5},{"stimulus":"imagen_juego_interferencia.jpg","time":4002.2000000476837},{"stimulus":"imagen_juego_interferencia.jpg","time":4502.300000071526},{"stimulus":"imagen_juego_interferencia.jpg","time":5002.200000047684},{"stimulus":"imagen_juego_interferencia.jpg","time":5501.900000095367},{"stimulus":"imagen_juego_interferencia.jpg","time":6001.700000047684},{"stimulus":"imagen_juego_interferencia.jpg","time":6502.200000047684},{"stimulus":"imagen_juego_interferencia.jpg","time":7002.200000047684},{"stimulus":"imagen_juego_interferencia.jpg","time":7501.700000047684},{"stimulus":"imagen_juego_interferencia.jpg","time":8001.5},{"stimulus":"imagen_juego_interferencia.jpg","time":8501.700000047684},{"stimulus":"imagen_juego_interferencia.jpg","time":9001.400000095367},{"stimulus":"imagen_juego_interferencia.jpg","time":9502},{"stimulus":"imagen_juego_interferencia.jpg","time":10002.600000023842},{"stimulus":"imagen_juego_interferencia.jpg","time":10502.900000095367},{"stimulus":"imagen_juego_interferencia.jpg","time":11002.200000047684},{"stimulus":"imagen_juego_interferencia.jpg","time":11502.700000047684},{"stimulus":"imagen_juego_interferencia.jpg","time":12001.900000095367},{"stimulus":"imagen_juego_interferencia.jpg","time":12501.700000047684},{"stimulus":"imagen_juego_interferencia.jpg","time":13002.800000071526},{"stimulus":"imagen_juego_interferencia.jpg","time":13501.900000095367},{"stimulus":"imagen_juego_interferencia.jpg","time":14002.100000023842},{"stimulus":"imagen_juego_interferencia.jpg","time":14502.700000047684},{"stimulus":"imagen_juego_interferencia.jpg","time":15002.200000047684},{"stimulus":"imagen_juego_interferencia.jpg","time":15502.700000047684},{"stimulus":"imagen_juego_interferencia.jpg","time":16002.900000095367},{"stimulus":"imagen_juego_interferencia.jpg","time":16516.800000071526},{"stimulus":"imagen_juego_interferencia.jpg","time":17003.100000023842},{"stimulus":"imagen_juego_interferencia.jpg","time":17501.400000095367},{"stimulus":"imagen_juego_interferencia.jpg","time":18016.100000023842},{"stimulus":"imagen_juego_interferencia.jpg","time":18501.800000071526},{"stimulus":"imagen_juego_interferencia.jpg","time":19015.900000095367},{"stimulus":"imagen_juego_interferencia.jpg","time":19502.5},{"stimulus":"imagen_juego_interferencia.jpg","time":20001.200000047684},{"stimulus":"imagen_juego_interferencia.jpg","time":20501.700000047684},{"stimulus":"imagen_juego_interferencia.jpg","time":21010.300000071526},{"stimulus":"imagen_juego_interferencia.jpg","time":21516.100000023842},{"stimulus":"imagen_juego_interferencia.jpg","time":22016.700000047684},{"stimulus":"imagen_juego_interferencia.jpg","time":22515.700000047684},{"stimulus":"imagen_juego_interferencia.jpg","time":23005.100000023842},{"stimulus":"imagen_juego_interferencia.jpg","time":23515.100000023842},{"stimulus":"imagen_juego_interferencia.jpg","time":24015.100000023842},{"stimulus":"imagen_juego_interferencia.jpg","time":24515.900000095367},{"stimulus":"imagen_juego_interferencia.jpg","time":25016.200000047684}],"response":[],"trial_type":"animation","trial_index":74,"time_elapsed":2084171,"internal_node_id":"0.0-13.0"},{"rt":15710.099999904633,"responses":"{\"pregunta interferencia2\":\"saltamontes\"}","question_order":"[0]","trial_type":"survey-multi-choice-cuest","trial_index":75,"time_elapsed":2099883,"internal_node_id":"0.0-14.0-0.0"},{"rt":23522,"responses":"{\"pregunta interferencia4\":\"dentista\"}","question_order":"[0]","trial_type":"survey-multi-choice-cuest","trial_index":76,"time_elapsed":2123407,"internal_node_id":"0.0-14.0-1.0"},{"rt":6569.199999928474,"responses":"{\"pregunta interferencia1\":\"naranja\"}","question_order":"[0]","trial_type":"survey-multi-choice-cuest","trial_index":77,"time_elapsed":2129979,"internal_node_id":"0.0-14.0-2.0"},{"rt":11865.399999976158,"responses":"{\"pregunta interferencia3\":\"aluminio\"}","question_order":"[0]","trial_type":"survey-multi-choice-cuest","trial_index":78,"time_elapsed":2141847,"internal_node_id":"0.0-14.0-3.0"},{"success":true,"trial_type":"fullscreen","trial_index":79,"time_elapsed":2142850,"internal_node_id":"0.0-15.0"}]