[{"rt":11097,"stimulus":"<h1 style=\"color:red; margin-top: 3%;\">¡Bienvenido(a)!</h1><p style=\"text-align:left; justify-content:space-between; margin-right: 5%; margin-left: 5%; margin-top: 5%\"> Antes de empezar el estudio, necesitamos que nos confirmes que estás de acuerdo con participar. Recuerda que tu participación es 100% voluntaria y que lo único que te pedimos es responder lo mejor que puedas. Recuerda también que el estudio incluye:</p><ol style=\"text-align:left; justify-content:space-between; margin-right: 5%; margin-left: 5%;\"><li> un ejercicio de resolución de preguntas de selección múltiple (30’),</li><li>un cuestionario breve (5’),</li><li>un juego muy breve (3’),</li></ol><p style=\"text-align:left; justify-content:space-between; margin-right: 5%; margin-left: 5%;\">Si quieres participar, haz clic en “Acepto” luego de leer lo siguiente:<br></p><p style=\"text-align:left; justify-content:space-between; margin-right: 5%; margin-left: 5%;\">Acepto participar en el estudio “Estrategias de lectura y resolución de preguntas de selección múltiple”, en los términos aquí señalados:<br></p><p style=\"text-align:left; justify-content:space-between; margin-right: 5%; margin-left: 5%;\"><a href=\"http://ciae.uchile.cl/download.php?file=noticias/Asentimiento.pdf\" target=\"_blank\">Link a la hoja de información del Consentimiento.</a></p><p style=\"text-align:left; justify-content:space-between; margin-right: 5%; margin-left: 5%;\">Declaro que he leído (o se me ha leído) y (he) comprendido, las condiciones de mi participación en este estudio. He tenido la oportunidad de hacer preguntas y éstas han sido respondidas. No tengo dudas al respecto.</p>","response":0,"condicion_MCQ":9,"condicion_JUEGO":21,"condicion_INTER":21,"numero_participante":69,"numero_version":1,"dimx":1440,"dimy":900,"color_profundidad":24,"pixel_profundidad":24,"Browser":"Apple Safari","dia":9,"mes":5,"hora":11,"minuto":9,"segundo":7,"trial_type":"html-button-response","trial_index":0,"time_elapsed":11130,"internal_node_id":"0.0-0.0"},{"success":true,"trial_type":"fullscreen","trial_index":1,"time_elapsed":239940,"internal_node_id":"0.0-1.0"},{"rt":62390.99999999997,"responses":"{\"Nombres\":\"axel ignacio\",\"Apellidos\":\"nuñez canales\",\"Edad\":\"20\",\"Sexo\":\"hombre\",\"Curso\":\"sección 218\",\"Colegio\":\"una\",\"Contacto\":\"a.nezcanales@uandresbello.edu\"}","trial_type":"survey-text","trial_index":2,"time_elapsed":302483,"internal_node_id":"0.0-2.0"},{"success":true,"timeout":false,"failed_images":[],"failed_audio":[],"failed_video":[],"trial_type":"preload","trial_index":3,"time_elapsed":303636,"internal_node_id":"0.0-3.0"},{"rt":16849.00000000006,"stimulus":"<h1 style:\"margin-top: 5%;\">Ejercicios de Comprensión de Lectura de la Universidad de Chile</h1><p style=\"font-size: 120%;\">En esta actividad, debes responder 24 preguntas de selección múltiple. Cada pregunta presenta 4 respuestas alternativas, pero sólo una de ellas es correcta. Por lo tanto, debes escoger una sola alternativa para cada pregunta. Además, debes reportar qué tan seguro(a) estás de la respuesta que das, con un:</p><ol style=\"font-size: 120%;text-align:left;margin-left: 40%;\"><li>No estoy seguro(a) para nada</li><li>No estoy muy seguro(a)</li><li>Estoy bastante seguro(a)</li><li>Estoy totalmente seguro(a)</li></ol><p style=\"font-size: 120%;\">Por favor lee bien los enunciados antes de responder. ¡Éxito!</p>","response":0,"trial_type":"html-button-response","trial_index":4,"time_elapsed":320487,"internal_node_id":"0.0-4.0"},{"rt":119033,"responses":"{\"pregunta8\":\"b) El ser humano se comporta de acuerdo con las circunstancias.\"}","question_order":"[0]","trial_type":"survey-multi-choice","trial_index":5,"time_elapsed":439532,"internal_node_id":"0.0-5.0-0.0"},{"rt":6540,"response":{"pregunta8 likert":2},"question_order":[0],"trial_type":"survey-likert","trial_index":6,"time_elapsed":446079,"internal_node_id":"0.0-5.0-1.0"},{"rt":118908,"responses":"{\"pregunta4\":\"c) En la literatura como en la vida, todo es metáfora.\"}","question_order":"[0]","trial_type":"survey-multi-choice","trial_index":7,"time_elapsed":564993,"internal_node_id":"0.0-5.0-2.0"},{"rt":2392.9999999998836,"response":{"pregunta4 likert":2},"question_order":[0],"trial_type":"survey-likert","trial_index":8,"time_elapsed":567389,"internal_node_id":"0.0-5.0-3.0"},{"rt":41007,"responses":"{\"pregunta24\":\"c) para el mexicano, la muerte es cotidiana.\"}","question_order":"[0]","trial_type":"survey-multi-choice","trial_index":9,"time_elapsed":608399,"internal_node_id":"0.0-5.0-4.0"},{"rt":2676,"response":{"pregunta24 likert":1},"question_order":[0],"trial_type":"survey-likert","trial_index":10,"time_elapsed":611077,"internal_node_id":"0.0-5.0-5.0"},{"rt":51927,"responses":"{\"pregunta9\":\"b) preparar los recuerdos del mañana.\"}","question_order":"[0]","trial_type":"survey-multi-choice","trial_index":11,"time_elapsed":663044,"internal_node_id":"0.0-5.0-6.0"},{"rt":2195,"response":{"pregunta9 likert":3},"question_order":[0],"trial_type":"survey-likert","trial_index":12,"time_elapsed":665243,"internal_node_id":"0.0-5.0-7.0"},{"rt":87327,"responses":"{\"pregunta20\":\"b) para Aristóteles la virtud estaba en el justo equilibrio.\"}","question_order":"[0]","trial_type":"survey-multi-choice","trial_index":13,"time_elapsed":752578,"internal_node_id":"0.0-5.0-8.0"},{"rt":3180,"response":{"pregunta20 likert":1},"question_order":[0],"trial_type":"survey-likert","trial_index":14,"time_elapsed":755761,"internal_node_id":"0.0-5.0-9.0"},{"rt":46884,"responses":"{\"pregunta13\":\"c) Al premio merecido después de tantos esfuerzos.\"}","question_order":"[0]","trial_type":"survey-multi-choice","trial_index":15,"time_elapsed":802649,"internal_node_id":"0.0-5.0-10.0"},{"rt":2440,"response":{"pregunta13 likert":3},"question_order":[0],"trial_type":"survey-likert","trial_index":16,"time_elapsed":805090,"internal_node_id":"0.0-5.0-11.0"},{"rt":66089,"responses":"{\"pregunta17\":\"b) A la inexistencia de un recinto adecuado para el recital.\"}","question_order":"[0]","trial_type":"survey-multi-choice","trial_index":17,"time_elapsed":871184,"internal_node_id":"0.0-5.0-12.0"},{"rt":2262.9999999998836,"response":{"pregunta17 likert":2},"question_order":[0],"trial_type":"survey-likert","trial_index":18,"time_elapsed":873449,"internal_node_id":"0.0-5.0-13.0"},{"rt":73327,"responses":"{\"pregunta15\":\"c) la creación de elementos químicos es altamente contaminante.\"}","question_order":"[0]","trial_type":"survey-multi-choice","trial_index":19,"time_elapsed":946780,"internal_node_id":"0.0-5.0-14.0"},{"rt":2041,"response":{"pregunta15 likert":1},"question_order":[0],"trial_type":"survey-likert","trial_index":20,"time_elapsed":948823,"internal_node_id":"0.0-5.0-15.0"},{"rt":31080,"responses":"{\"pregunta16\":\"d) Bomberos debería tener acceso a un seguro médico, al que pueda recurrir en caso de accidente.\"}","question_order":"[0]","trial_type":"survey-multi-choice","trial_index":21,"time_elapsed":979906,"internal_node_id":"0.0-5.0-16.0"},{"rt":2083,"response":{"pregunta16 likert":3},"question_order":[0],"trial_type":"survey-likert","trial_index":22,"time_elapsed":981990,"internal_node_id":"0.0-5.0-17.0"},{"rt":64305,"responses":"{\"pregunta11\":\"c) Provocar el deseo de la adquisición vertiginosa.\"}","question_order":"[0]","trial_type":"survey-multi-choice","trial_index":23,"time_elapsed":1046300,"internal_node_id":"0.0-5.0-18.0"},{"rt":2229.9999999998836,"response":{"pregunta11 likert":3},"question_order":[0],"trial_type":"survey-likert","trial_index":24,"time_elapsed":1048532,"internal_node_id":"0.0-5.0-19.0"},{"rt":55330,"responses":"{\"pregunta10\":\"b) ritualistas y obsesivos.\"}","question_order":"[0]","trial_type":"survey-multi-choice","trial_index":25,"time_elapsed":1103866,"internal_node_id":"0.0-5.0-20.0"},{"rt":2308.000000000233,"response":{"pregunta10 likert":3},"question_order":[0],"trial_type":"survey-likert","trial_index":26,"time_elapsed":1106176,"internal_node_id":"0.0-5.0-21.0"},{"rt":61475,"responses":"{\"pregunta2\":\"a) A la relación entre sociedad y constitución social.\"}","question_order":"[0]","trial_type":"survey-multi-choice","trial_index":27,"time_elapsed":1167655,"internal_node_id":"0.0-5.0-22.0"},{"rt":1682,"response":{"pregunta2 likert":1},"question_order":[0],"trial_type":"survey-likert","trial_index":28,"time_elapsed":1169338,"internal_node_id":"0.0-5.0-23.0"},{"rt":52515,"responses":"{\"pregunta23\":\"c) el jardinero estará muerto al día siguiente.\"}","question_order":"[0]","trial_type":"survey-multi-choice","trial_index":29,"time_elapsed":1221857,"internal_node_id":"0.0-5.0-24.0"},{"rt":2283,"response":{"pregunta23 likert":3},"question_order":[0],"trial_type":"survey-likert","trial_index":30,"time_elapsed":1224140,"internal_node_id":"0.0-5.0-25.0"},{"rt":134225.99999999977,"responses":"{\"pregunta18\":\"a) El receptor es habitualmente pasivo frente a la publicidad.\"}","question_order":"[0]","trial_type":"survey-multi-choice","trial_index":31,"time_elapsed":1358372,"internal_node_id":"0.0-5.0-26.0"},{"rt":2638,"response":{"pregunta18 likert":2},"question_order":[0],"trial_type":"survey-likert","trial_index":32,"time_elapsed":1361012,"internal_node_id":"0.0-5.0-27.0"},{"rt":74616,"responses":"{\"pregunta6\":\"c) Presentar positivamente las diversas tendencias del diseño de interiores a través de un comentario.\"}","question_order":"[0]","trial_type":"survey-multi-choice","trial_index":33,"time_elapsed":1435633,"internal_node_id":"0.0-5.0-28.0"},{"rt":2743,"response":{"pregunta6 likert":1},"question_order":[0],"trial_type":"survey-likert","trial_index":34,"time_elapsed":1438377,"internal_node_id":"0.0-5.0-29.0"},{"rt":56799,"responses":"{\"pregunta14\":\"d) el mejor emperador es el que está muerto.\"}","question_order":"[0]","trial_type":"survey-multi-choice","trial_index":35,"time_elapsed":1495181,"internal_node_id":"0.0-5.0-30.0"},{"rt":2683,"response":{"pregunta14 likert":2},"question_order":[0],"trial_type":"survey-likert","trial_index":36,"time_elapsed":1497866,"internal_node_id":"0.0-5.0-31.0"},{"rt":48204,"responses":"{\"pregunta1\":\"b) Enjuician la acción del narrador dentro del relato.\"}","question_order":"[0]","trial_type":"survey-multi-choice","trial_index":37,"time_elapsed":1546081,"internal_node_id":"0.0-5.0-32.0"},{"rt":2510.999999999767,"response":{"pregunta1 likert":1},"question_order":[0],"trial_type":"survey-likert","trial_index":38,"time_elapsed":1548594,"internal_node_id":"0.0-5.0-33.0"},{"rt":25560,"responses":"{\"pregunta21\":\"c) El TLC causará una completa transformación de la economía chilena.\"}","question_order":"[0]","trial_type":"survey-multi-choice","trial_index":39,"time_elapsed":1574158,"internal_node_id":"0.0-5.0-34.0"},{"rt":1933,"response":{"pregunta21 likert":1},"question_order":[0],"trial_type":"survey-likert","trial_index":40,"time_elapsed":1576093,"internal_node_id":"0.0-5.0-35.0"},{"rt":10922.000000000233,"responses":"{\"pregunta12\":\"c) Homenajear a quienes murieron.\"}","question_order":"[0]","trial_type":"survey-multi-choice","trial_index":41,"time_elapsed":1587018,"internal_node_id":"0.0-5.0-36.0"},{"rt":2077,"response":{"pregunta12 likert":2},"question_order":[0],"trial_type":"survey-likert","trial_index":42,"time_elapsed":1589097,"internal_node_id":"0.0-5.0-37.0"},{"rt":33601.00000000023,"responses":"{\"pregunta22\":\"b) Se necesita un marco legal para delimitar lo público y lo privado en materia informativa.\"}","question_order":"[0]","trial_type":"survey-multi-choice","trial_index":43,"time_elapsed":1622702,"internal_node_id":"0.0-5.0-38.0"},{"rt":2290,"response":{"pregunta22 likert":2},"question_order":[0],"trial_type":"survey-likert","trial_index":44,"time_elapsed":1624995,"internal_node_id":"0.0-5.0-39.0"},{"rt":36197,"responses":"{\"pregunta5\":\"b) La escritura plasma los mejores momentos de los viajes.\"}","question_order":"[0]","trial_type":"survey-multi-choice","trial_index":45,"time_elapsed":1661196,"internal_node_id":"0.0-5.0-40.0"},{"rt":1495,"response":{"pregunta5 likert":1},"question_order":[0],"trial_type":"survey-likert","trial_index":46,"time_elapsed":1662692,"internal_node_id":"0.0-5.0-41.0"},{"rt":34348,"responses":"{\"pregunta3\":\"a) El origen de las grandes civilizaciones.\"}","question_order":"[0]","trial_type":"survey-multi-choice","trial_index":47,"time_elapsed":1697045,"internal_node_id":"0.0-5.0-42.0"},{"rt":1714,"response":{"pregunta3 likert":1},"question_order":[0],"trial_type":"survey-likert","trial_index":48,"time_elapsed":1698761,"internal_node_id":"0.0-5.0-43.0"},{"rt":34716.99999999977,"responses":"{\"pregunta7\":\"c) es una noción que obedece a una visión pesimista de la vida.\"}","question_order":"[0]","trial_type":"survey-multi-choice","trial_index":49,"time_elapsed":1733480,"internal_node_id":"0.0-5.0-44.0"},{"rt":1762.0000000002328,"response":{"pregunta7 likert":0},"question_order":[0],"trial_type":"survey-likert","trial_index":50,"time_elapsed":1735245,"internal_node_id":"0.0-5.0-45.0"},{"rt":71421.00000000023,"responses":"{\"pregunta19\":\"d) llevan un control grupal de su embarazo.\"}","question_order":"[0]","trial_type":"survey-multi-choice","trial_index":51,"time_elapsed":1806670,"internal_node_id":"0.0-5.0-46.0"},{"rt":2113.000000000233,"response":{"pregunta19 likert":2},"question_order":[0],"trial_type":"survey-likert","trial_index":52,"time_elapsed":1808785,"internal_node_id":"0.0-5.0-47.0"}]