[{"rt":10674.834999954328,"stimulus":"<h1 style=\"color:red; margin-top: 3%;\">¡Bienvenido(a)!</h1><p style=\"text-align:left; justify-content:space-between; margin-right: 5%; margin-left: 5%; margin-top: 5%\"> Antes de empezar el estudio, necesitamos que nos confirmes que estás de acuerdo con participar. Recuerda que tu participación es 100% voluntaria y que lo único que te pedimos es responder lo mejor que puedas. Recuerda también que el estudio incluye:</p><ol style=\"text-align:left; justify-content:space-between; margin-right: 5%; margin-left: 5%;\"><li> un ejercicio de resolución de preguntas de selección múltiple (30’),</li><li>un cuestionario breve (5’),</li><li>un juego muy breve (3’),</li></ol><p style=\"text-align:left; justify-content:space-between; margin-right: 5%; margin-left: 5%;\">Si quieres participar, haz clic en “Acepto” luego de leer lo siguiente:<br></p><p style=\"text-align:left; justify-content:space-between; margin-right: 5%; margin-left: 5%;\">Acepto participar en el estudio “Estrategias de lectura y resolución de preguntas de selección múltiple”, en los términos aquí señalados:<br></p><p style=\"text-align:left; justify-content:space-between; margin-right: 5%; margin-left: 5%;\"><a href=\"http://ciae.uchile.cl/download.php?file=noticias/Asentimiento.pdf\" target=\"_blank\">Link a la hoja de información del Consentimiento.</a></p><p style=\"text-align:left; justify-content:space-between; margin-right: 5%; margin-left: 5%;\">Declaro que he leído (o se me ha leído) y (he) comprendido, las condiciones de mi participación en este estudio. He tenido la oportunidad de hacer preguntas y éstas han sido respondidas. No tengo dudas al respecto.</p>","response":0,"condicion_MCQ":2,"condicion_JUEGO":14,"condicion_INTER":14,"numero_participante":38,"numero_version":1,"dimx":1366,"dimy":768,"color_profundidad":24,"pixel_profundidad":24,"Browser":"Google Chrome","dia":3,"mes":5,"hora":23,"minuto":6,"segundo":55,"trial_type":"html-button-response","trial_index":0,"time_elapsed":10687,"internal_node_id":"0.0-0.0"},{"success":true,"trial_type":"fullscreen","trial_index":1,"time_elapsed":14068,"internal_node_id":"0.0-1.0"},{"rt":143694.86499996856,"responses":"{\"Nombres\":\"Jeremías Leonardo\",\"Apellidos\":\"Toledo Ortega\",\"Edad\":\"18\",\"Sexo\":\"hombre\",\"Curso\":\"218 primer año \",\"Colegio\":\"unab \",\"Contacto\":\"jeremiasleonardo1604@gmail.com\"}","trial_type":"survey-text","trial_index":2,"time_elapsed":157865,"internal_node_id":"0.0-2.0"},{"success":true,"timeout":false,"failed_images":[],"failed_audio":[],"failed_video":[],"trial_type":"preload","trial_index":3,"time_elapsed":175731,"internal_node_id":"0.0-3.0"},{"rt":25363.279999932274,"stimulus":"<h1 style:\"margin-top: 5%;\">Ejercicios de Comprensión de Lectura de la Universidad de Chile</h1><p style=\"font-size: 120%;\">En esta actividad, debes responder 24 preguntas de selección múltiple. Cada pregunta presenta 4 respuestas alternativas, pero sólo una de ellas es correcta. Por lo tanto, debes escoger una sola alternativa para cada pregunta. Además, debes reportar qué tan seguro(a) estás de la respuesta que das, con un:</p><ol style=\"font-size: 120%;text-align:left;margin-left: 40%;\"><li>No estoy seguro(a) para nada</li><li>No estoy muy seguro(a)</li><li>Estoy bastante seguro(a)</li><li>Estoy totalmente seguro(a)</li></ol><p style=\"font-size: 120%;\">Por favor lee bien los enunciados antes de responder. ¡Éxito!</p>","response":0,"trial_type":"html-button-response","trial_index":4,"time_elapsed":201098,"internal_node_id":"0.0-4.0"},{"rt":71692.90499994531,"responses":"{\"pregunta15\":\"c) a partir de la manipulación del núcleo se han creado elementos químicos naturales.\"}","question_order":"[0]","trial_type":"survey-multi-choice","trial_index":5,"time_elapsed":272865,"internal_node_id":"0.0-5.0-0.0"},{"rt":5749.515000032261,"response":{"pregunta15 likert":3},"question_order":[0],"trial_type":"survey-likert","trial_index":6,"time_elapsed":278623,"internal_node_id":"0.0-5.0-1.0"},{"rt":84501.11000007018,"responses":"{\"pregunta1\":\"c) Muestran las opiniones expuestas por los personajes en un relato.\"}","question_order":"[0]","trial_type":"survey-multi-choice","trial_index":7,"time_elapsed":363130,"internal_node_id":"0.0-5.0-2.0"},{"rt":3285.5299999937415,"response":{"pregunta1 likert":3},"question_order":[0],"trial_type":"survey-likert","trial_index":8,"time_elapsed":366423,"internal_node_id":"0.0-5.0-3.0"},{"rt":110058.18499997258,"responses":"{\"pregunta4\":\"b) En la literatura como en la vida, lo importante son las preguntas.\"}","question_order":"[0]","trial_type":"survey-multi-choice","trial_index":9,"time_elapsed":476486,"internal_node_id":"0.0-5.0-4.0"},{"rt":3754.3099999893457,"response":{"pregunta4 likert":3},"question_order":[0],"trial_type":"survey-likert","trial_index":10,"time_elapsed":480245,"internal_node_id":"0.0-5.0-5.0"},{"rt":359637.98000011593,"responses":"{\"pregunta7\":\"c) se da como existente, y sólo se discute su relación con el cuerpo.\"}","question_order":"[0]","trial_type":"survey-multi-choice","trial_index":11,"time_elapsed":839891,"internal_node_id":"0.0-5.0-6.0"},{"rt":8593.594999983907,"response":{"pregunta7 likert":2},"question_order":[0],"trial_type":"survey-likert","trial_index":12,"time_elapsed":848489,"internal_node_id":"0.0-5.0-7.0"},{"rt":77518.88000010513,"responses":"{\"pregunta3\":\"d) Las grandes civilizaciones autóctonas.\"}","question_order":"[0]","trial_type":"survey-multi-choice","trial_index":13,"time_elapsed":926013,"internal_node_id":"0.0-5.0-8.0"},{"rt":12888.71999992989,"response":{"pregunta3 likert":3},"question_order":[0],"trial_type":"survey-likert","trial_index":14,"time_elapsed":938907,"internal_node_id":"0.0-5.0-9.0"},{"rt":102189.2649999354,"responses":"{\"pregunta24\":\"b) la muerte es distinta en las grandes ciudades.\"}","question_order":"[0]","trial_type":"survey-multi-choice","trial_index":15,"time_elapsed":1041103,"internal_node_id":"0.0-5.0-10.0"},{"rt":10529.584999894723,"response":{"pregunta24 likert":3},"question_order":[0],"trial_type":"survey-likert","trial_index":16,"time_elapsed":1051642,"internal_node_id":"0.0-5.0-11.0"},{"rt":202269.08500003628,"responses":"{\"pregunta9\":\"d) preparar los recuerdos del mañana.\"}","question_order":"[0]","trial_type":"survey-multi-choice","trial_index":17,"time_elapsed":1253915,"internal_node_id":"0.0-5.0-12.0"},{"rt":3698.395000072196,"response":{"pregunta9 likert":2},"question_order":[0],"trial_type":"survey-likert","trial_index":18,"time_elapsed":1257618,"internal_node_id":"0.0-5.0-13.0"},{"rt":106007.16500007547,"responses":"{\"pregunta2\":\"a) A la relación entre pensamiento y estructura social.\"}","question_order":"[0]","trial_type":"survey-multi-choice","trial_index":19,"time_elapsed":1363632,"internal_node_id":"0.0-5.0-14.0"},{"rt":4836.95499994792,"response":{"pregunta2 likert":3},"question_order":[0],"trial_type":"survey-likert","trial_index":20,"time_elapsed":1368476,"internal_node_id":"0.0-5.0-15.0"},{"rt":143818.49500001408,"responses":"{\"pregunta12\":\"d) Construir un museo.\"}","question_order":"[0]","trial_type":"survey-multi-choice","trial_index":21,"time_elapsed":1512292,"internal_node_id":"0.0-5.0-16.0"},{"rt":83403.92499999143,"response":{"pregunta12 likert":2},"question_order":[0],"trial_type":"survey-likert","trial_index":22,"time_elapsed":1595711,"internal_node_id":"0.0-5.0-17.0"},{"rt":102274.06500000507,"responses":"{\"pregunta16\":\"a) Se debe crear un seguro médico especial para esta institución, pues es de alto riesgo.\"}","question_order":"[0]","trial_type":"survey-multi-choice","trial_index":23,"time_elapsed":1697991,"internal_node_id":"0.0-5.0-18.0"},{"rt":4439.989999867976,"response":{"pregunta16 likert":3},"question_order":[0],"trial_type":"survey-likert","trial_index":24,"time_elapsed":1702436,"internal_node_id":"0.0-5.0-19.0"},{"rt":173283.2800000906,"responses":"{\"pregunta23\":\"c) la Muerte vaticina el futuro mediante gestos.\"}","question_order":"[0]","trial_type":"survey-multi-choice","trial_index":25,"time_elapsed":1875725,"internal_node_id":"0.0-5.0-20.0"},{"rt":15149.429999990389,"response":{"pregunta23 likert":3},"question_order":[0],"trial_type":"survey-likert","trial_index":26,"time_elapsed":1890883,"internal_node_id":"0.0-5.0-21.0"},{"rt":49081.480000168085,"responses":"{\"pregunta22\":\"b) El derecho a informar y el derecho a la privacidad son inconciliables.\"}","question_order":"[0]","trial_type":"survey-multi-choice","trial_index":27,"time_elapsed":1939969,"internal_node_id":"0.0-5.0-22.0"},{"rt":39175.09500007145,"response":{"pregunta22 likert":3},"question_order":[0],"trial_type":"survey-likert","trial_index":28,"time_elapsed":1979150,"internal_node_id":"0.0-5.0-23.0"},{"rt":93119.21499995515,"responses":"{\"pregunta10\":\"b) religiosos y precavidos.\"}","question_order":"[0]","trial_type":"survey-multi-choice","trial_index":29,"time_elapsed":2072274,"internal_node_id":"0.0-5.0-24.0"},{"rt":3657.9299999866635,"response":{"pregunta10 likert":3},"question_order":[0],"trial_type":"survey-likert","trial_index":30,"time_elapsed":2075938,"internal_node_id":"0.0-5.0-25.0"},{"rt":71728.52499992587,"responses":"{\"pregunta8\":\"c) El ser humano se comporta de acuerdo con las circunstancias.\"}","question_order":"[0]","trial_type":"survey-multi-choice","trial_index":31,"time_elapsed":2147676,"internal_node_id":"0.0-5.0-26.0"},{"rt":2287.779999896884,"response":{"pregunta8 likert":3},"question_order":[0],"trial_type":"survey-likert","trial_index":32,"time_elapsed":2149970,"internal_node_id":"0.0-5.0-27.0"},{"rt":72169.98499981128,"responses":"{\"pregunta5\":\"b) Los momentos triviales de los viajes, en la escritura se vuelven significativos.\"}","question_order":"[0]","trial_type":"survey-multi-choice","trial_index":33,"time_elapsed":2222145,"internal_node_id":"0.0-5.0-28.0"},{"rt":3870.5849999096245,"response":{"pregunta5 likert":2},"question_order":[0],"trial_type":"survey-likert","trial_index":34,"time_elapsed":2226024,"internal_node_id":"0.0-5.0-29.0"},{"rt":143388.3650000207,"responses":"{\"pregunta20\":\"c) para Aristóteles la virtud estaba en el justo equilibrio.\"}","question_order":"[0]","trial_type":"survey-multi-choice","trial_index":35,"time_elapsed":2369418,"internal_node_id":"0.0-5.0-30.0"},{"rt":7458.705000113696,"response":{"pregunta20 likert":2},"question_order":[0],"trial_type":"survey-likert","trial_index":36,"time_elapsed":2376884,"internal_node_id":"0.0-5.0-31.0"},{"rt":95492.74500017054,"responses":"{\"pregunta14\":\"a) el mejor emperador es el que está muerto.\"}","question_order":"[0]","trial_type":"survey-multi-choice","trial_index":37,"time_elapsed":2472384,"internal_node_id":"0.0-5.0-32.0"},{"rt":5791.2649998907,"response":{"pregunta14 likert":2},"question_order":[0],"trial_type":"survey-likert","trial_index":38,"time_elapsed":2478183,"internal_node_id":"0.0-5.0-33.0"},{"rt":104508.06000013836,"responses":"{\"pregunta19\":\"c) sufren dolores de espalda.\"}","question_order":"[0]","trial_type":"survey-multi-choice","trial_index":39,"time_elapsed":2582697,"internal_node_id":"0.0-5.0-34.0"},{"rt":5875.46500004828,"response":{"pregunta19 likert":3},"question_order":[0],"trial_type":"survey-likert","trial_index":40,"time_elapsed":2588579,"internal_node_id":"0.0-5.0-35.0"},{"rt":79279.53000017442,"responses":"{\"pregunta13\":\"c) A la inutilidad de tanto esfuerzo si el objetivo es el reposo.\"}","question_order":"[0]","trial_type":"survey-multi-choice","trial_index":41,"time_elapsed":2667863,"internal_node_id":"0.0-5.0-36.0"},{"rt":6528.124999953434,"response":{"pregunta13 likert":3},"question_order":[0],"trial_type":"survey-likert","trial_index":42,"time_elapsed":2674398,"internal_node_id":"0.0-5.0-37.0"},{"rt":80721.55499993823,"responses":"{\"pregunta11\":\"d) Provocar el deseo de la adquisición vertiginosa.\"}","question_order":"[0]","trial_type":"survey-multi-choice","trial_index":43,"time_elapsed":2755129,"internal_node_id":"0.0-5.0-38.0"},{"rt":6743.1949998717755,"response":{"pregunta11 likert":3},"question_order":[0],"trial_type":"survey-likert","trial_index":44,"time_elapsed":2761879,"internal_node_id":"0.0-5.0-39.0"},{"rt":91107.28499991819,"responses":"{\"pregunta17\":\"b) A la influencia de grupos que rechazaban su música.\"}","question_order":"[0]","trial_type":"survey-multi-choice","trial_index":45,"time_elapsed":2852994,"internal_node_id":"0.0-5.0-40.0"},{"rt":7693.6850000638515,"response":{"pregunta17 likert":0},"question_order":[0],"trial_type":"survey-likert","trial_index":46,"time_elapsed":2860694,"internal_node_id":"0.0-5.0-41.0"},{"rt":106709.71500012092,"responses":"{\"pregunta21\":\"d) Nuestra economía vivirá un proceso de ajuste a la nueva realidad.\"}","question_order":"[0]","trial_type":"survey-multi-choice","trial_index":47,"time_elapsed":2967410,"internal_node_id":"0.0-5.0-42.0"},{"rt":3124.9949999619275,"response":{"pregunta21 likert":3},"question_order":[0],"trial_type":"survey-likert","trial_index":48,"time_elapsed":2970542,"internal_node_id":"0.0-5.0-43.0"},{"rt":100059.23500005156,"responses":"{\"pregunta6\":\"a) Presentar positivamente las diversas tendencias del diseño de interiores a través de un comentario.\"}","question_order":"[0]","trial_type":"survey-multi-choice","trial_index":49,"time_elapsed":3070608,"internal_node_id":"0.0-5.0-44.0"},{"rt":4342.640000162646,"response":{"pregunta6 likert":2},"question_order":[0],"trial_type":"survey-likert","trial_index":50,"time_elapsed":3074958,"internal_node_id":"0.0-5.0-45.0"},{"rt":87232.79000003822,"responses":"{\"pregunta18\":\"a) La publicidad es dañina para sus receptores.\"}","question_order":"[0]","trial_type":"survey-multi-choice","trial_index":51,"time_elapsed":3162198,"internal_node_id":"0.0-5.0-46.0"},{"rt":5742.989999940619,"response":{"pregunta18 likert":3},"question_order":[0],"trial_type":"survey-likert","trial_index":52,"time_elapsed":3167947,"internal_node_id":"0.0-5.0-47.0"},{"rt":3064.40500007011,"stimulus":"<p style=\"font-size: 120%\">Gracias por completar esta etapa del estudio. Ahora te invitamos a responder el cuestionario.<br><br></p>","response":0,"trial_type":"html-button-response","trial_index":53,"time_elapsed":3171082,"internal_node_id":"0.0-6.0"},{"rt":29191.805000184104,"stimulus":"<h1 style=\"margin-top: 5%\">Cuestionario para la Evaluación de Metas Académicas</h1><p style=\"font-size: 120%; margin-left: 3%; margin-top: 5%\">Este es un cuestionario que permite conocer cuáles son los principales motivos por los que los estudiantes se esfuerzan en su trabajo académico. A continuación, se te presentarán una serie de afirmaciones acerca de los motivos que puedes tener para estudiar.<br>Te pedimos que contestes a dichas afirmaciones reflexionando sobre el contenido de cada una de ellas, que, aunque te parezcan semejantes, en realidad, no lo son.<br>NO HAY RESPUESTAS CORRECTAS o INCORRECTAS, sólo queremos que respondas con la mayor precisión y sinceridad posible a las preguntas que se plantean.","response":0,"trial_type":"html-button-response","trial_index":54,"time_elapsed":3200278,"internal_node_id":"0.0-7.0"},{"rt":568894.2299999762,"response":{"Metas cuestionario pregunta1":4,"Metas cuestionario pregunta2":2,"Metas cuestionario pregunta3":3,"Metas cuestionario pregunta4":1,"Metas cuestionario pregunta5":3,"Metas cuestionario pregunta6":4,"Metas cuestionario pregunta7":4,"Metas cuestionario pregunta8":2,"Metas cuestionario pregunta9":2,"Metas cuestionario pregunta10":0,"Metas cuestionario pregunta11":1,"Metas cuestionario pregunta12":2,"Metas cuestionario pregunta13":2,"Metas cuestionario pregunta14":0,"Metas cuestionario pregunta15":3,"Metas cuestionario pregunta16":3,"Metas cuestionario pregunta17":4,"Metas cuestionario pregunta18":4,"Metas cuestionario pregunta19":2,"Metas cuestionario pregunta20":2},"question_order":[0,1,2,3,4,5,6,7,8,9,10,11,12,13,14,15,16,17,18,19],"trial_type":"survey-likert","trial_index":55,"time_elapsed":3769199,"internal_node_id":"0.0-8.0"},{"rt":26370.72500004433,"stimulus":"<p style=\"font-size: 120%\">Gracias por responder el cuestionario. Ahora te invitamos a seguir con el juego, que es muy breve.<br><br></p>","response":0,"trial_type":"html-button-response","trial_index":56,"time_elapsed":3795585,"internal_node_id":"0.0-9.0"},{"rt":388332.2000000626,"stimulus":"<h1>Juego</h1><p style=\"font-size: 120%;\">A continuación se te presentarán 16 pequeñas historias.<br>Por favor lee el texto presentado en cada una de ellas y luego haz click en el objeto de tu elección.<br>Si estás listo(a),<span style=\"color:red;\"> haz click en \"comenzar\"</span>.</p>","response":0,"trial_type":"html-button-response","trial_index":57,"time_elapsed":4183920,"internal_node_id":"0.0-10.0"},{"rt":46937.77499999851,"grid":[[1,1,1,1],[1,1,1,1],[1,1,1,1],[1,1,1,1],[1,1,1,1],[1,1,1,1],[1,1,1,1],[1,1,1,1],[1,1,1,1]],"target":[0,0],"response":[1,2],"correct":false,"juego":15,"trial_type":"serial-reaction-time-mouse","trial_index":58,"time_elapsed":4230871,"internal_node_id":"0.0-11.0-0.0"},{"rt":70614.13999996148,"grid":[[1,1,1],[1,1,1],[1,1,1],[1,1,1],[1,1,1],[1,1,1],[1,1,1],[1,1,1],[1,1,1]],"target":[0,0],"response":[1,0],"correct":false,"juego":10,"trial_type":"serial-reaction-time-mouse","trial_index":59,"time_elapsed":4301496,"internal_node_id":"0.0-11.0-1.0"},{"rt":17645.32500016503,"grid":[[1,1,1],[1,1,1],[1,1,1],[1,1,1],[1,1,1],[1,1,1],[1,1,1],[1,1,1],[1,1,1]],"target":[0,0],"response":[7,1],"correct":false,"juego":6,"trial_type":"serial-reaction-time-mouse","trial_index":60,"time_elapsed":4319151,"internal_node_id":"0.0-11.0-2.0"},{"rt":40512.06000009552,"grid":[[1,1,1,1],[1,1,1,1],[1,1,1,1],[1,1,1,1],[1,1,1,1],[1,1,1,1],[1,1,1,1],[1,1,1,1],[1,1,1,1]],"target":[0,0],"response":[1,2],"correct":false,"juego":14,"trial_type":"serial-reaction-time-mouse","trial_index":61,"time_elapsed":4359688,"internal_node_id":"0.0-11.0-3.0"},{"rt":76642.53500010818,"grid":[[1,1,1,1]],"target":[0,0],"response":[0,3],"correct":false,"juego":11,"trial_type":"serial-reaction-time-mouse","trial_index":62,"time_elapsed":4436338,"internal_node_id":"0.0-11.0-4.0"},{"rt":25821.569999912754,"grid":[[1],[1],[1],[1]],"target":[0,0],"response":[2,0],"correct":false,"juego":4,"trial_type":"serial-reaction-time-mouse","trial_index":63,"time_elapsed":4462164,"internal_node_id":"0.0-11.0-5.0"},{"rt":17725.129999918863,"grid":[[1,1,1,1]],"target":[0,0],"response":[0,2],"correct":false,"juego":7,"trial_type":"serial-reaction-time-mouse","trial_index":64,"time_elapsed":4479898,"internal_node_id":"0.0-11.0-6.0"},{"rt":10559.104999992996,"grid":[[1,1,1,1]],"target":[0,0],"response":[0,1],"correct":false,"juego":8,"trial_type":"serial-reaction-time-mouse","trial_index":65,"time_elapsed":4490462,"internal_node_id":"0.0-11.0-7.0"},{"rt":2567.409999901429,"grid":[[1,1,1,1]],"target":[0,0],"response":[0,1],"correct":false,"juego":3,"trial_type":"serial-reaction-time-mouse","trial_index":66,"time_elapsed":4493033,"internal_node_id":"0.0-11.0-8.0"},{"rt":16526.2300001923,"grid":[[1,1,1],[1,1,1],[1,1,1],[1,1,1],[1,1,1],[1,1,1],[1,1,1],[1,1,1],[1,1,1]],"target":[0,0],"response":[3,1],"correct":false,"juego":5,"trial_type":"serial-reaction-time-mouse","trial_index":67,"time_elapsed":4509574,"internal_node_id":"0.0-11.0-9.0"},{"rt":31577.855000039563,"grid":[[1,1,1],[1,1,1],[1,1,1],[1,1,1],[1,1,1],[1,1,1],[1,1,1],[1,1,1],[1,1,1]],"target":[0,0],"response":[1,1],"correct":false,"juego":13,"trial_type":"serial-reaction-time-mouse","trial_index":68,"time_elapsed":4541164,"internal_node_id":"0.0-11.0-10.0"},{"rt":18158.435000106692,"grid":[[1,1,1,1]],"target":[0,0],"response":[0,1],"correct":false,"juego":12,"trial_type":"serial-reaction-time-mouse","trial_index":69,"time_elapsed":4559328,"internal_node_id":"0.0-11.0-11.0"},{"rt":7164.029999868944,"grid":[[1,1,1,1]],"target":[0,0],"response":[0,3],"correct":false,"juego":1,"trial_type":"serial-reaction-time-mouse","trial_index":70,"time_elapsed":4566500,"internal_node_id":"0.0-11.0-12.0"},{"rt":13787.289999891073,"grid":[[1,1,1,1]],"target":[0,0],"response":[0,0],"correct":true,"juego":9,"trial_type":"serial-reaction-time-mouse","trial_index":71,"time_elapsed":4580300,"internal_node_id":"0.0-11.0-13.0"},{"rt":9108.680000063032,"grid":[[1,1,1,1]],"target":[0,0],"response":[0,0],"correct":true,"juego":2,"trial_type":"serial-reaction-time-mouse","trial_index":72,"time_elapsed":4589416,"internal_node_id":"0.0-11.0-14.0"}]