[{"rt":3368.279999936931,"stimulus":"<h1 style=\"color:red; margin-top: 3%;\">¡Bienvenido(a)!</h1><p style=\"text-align:left; justify-content:space-between; margin-right: 5%; margin-left: 5%; margin-top: 5%\"> Antes de empezar el estudio, necesitamos que nos confirmes que estás de acuerdo con participar. Recuerda que tu participación es 100% voluntaria y que lo único que te pedimos es responder lo mejor que puedas. Recuerda también que el estudio incluye:</p><ol style=\"text-align:left; justify-content:space-between; margin-right: 5%; margin-left: 5%;\"><li> un ejercicio de resolución de preguntas de selección múltiple (30’),</li><li>un cuestionario breve (5’),</li><li>un juego muy breve (3’),</li></ol><p style=\"text-align:left; justify-content:space-between; margin-right: 5%; margin-left: 5%;\">Si quieres participar, haz clic en “Acepto” luego de leer lo siguiente:<br></p><p style=\"text-align:left; justify-content:space-between; margin-right: 5%; margin-left: 5%;\">Acepto participar en el estudio “Estrategias de lectura y resolución de preguntas de selección múltiple”, en los términos aquí señalados:<br></p><p style=\"text-align:left; justify-content:space-between; margin-right: 5%; margin-left: 5%;\"><a href=\"http://ciae.uchile.cl/download.php?file=noticias/Asentimiento.pdf\" target=\"_blank\">Link a la hoja de información del Consentimiento.</a></p><p style=\"text-align:left; justify-content:space-between; margin-right: 5%; margin-left: 5%;\">Declaro que he leído (o se me ha leído) y (he) comprendido, las condiciones de mi participación en este estudio. He tenido la oportunidad de hacer preguntas y éstas han sido respondidas. No tengo dudas al respecto.</p>","response":0,"condicion_MCQ":10,"condicion_JUEGO":10,"condicion_INTER":10,"numero_participante":10,"numero_version":4,"dimx":1366,"dimy":768,"color_profundidad":24,"pixel_profundidad":24,"Browser":"Google Chrome","dia":7,"mes":5,"hora":15,"minuto":33,"segundo":42,"trial_type":"html-button-response","trial_index":0,"time_elapsed":3381,"internal_node_id":"0.0-0.0"},{"success":true,"trial_type":"fullscreen","trial_index":1,"time_elapsed":6277,"internal_node_id":"0.0-1.0"},{"rt":49799.09500002395,"responses":"{\"Nombres\":\"anai gisselle\",\"Apellidos\":\"peñaloza leova\",\"Edad\":\"20\",\"Sexo\":\"mujer\",\"Curso\":\"seccion 205\",\"Colegio\":\"universidad andres bello\",\"Contacto\":\"anai.gisselle01@gmail.com\"}","trial_type":"survey-text","trial_index":2,"time_elapsed":56128,"internal_node_id":"0.0-2.0"},{"success":true,"timeout":false,"failed_images":[],"failed_audio":[],"failed_video":[],"trial_type":"preload","trial_index":3,"time_elapsed":58073,"internal_node_id":"0.0-3.0"},{"rt":5838.965000002645,"stimulus":"<h1 style:\"margin-top: 5%;\">Ejercicios de Comprensión de Lectura de la Universidad de Chile</h1><p style=\"font-size: 120%;\">En esta actividad, debes responder 24 preguntas de selección múltiple. Cada pregunta presenta 4 respuestas alternativas, pero sólo una de ellas es correcta. Por lo tanto, debes escoger una sola alternativa para cada pregunta. Además, debes reportar qué tan seguro(a) estás de la respuesta que das, con un:</p><ol style=\"font-size: 120%;text-align:left;margin-left: 40%;\"><li>No estoy seguro(a) para nada</li><li>No estoy muy seguro(a)</li><li>Estoy bastante seguro(a)</li><li>Estoy totalmente seguro(a)</li></ol><p style=\"font-size: 120%;\">Por favor lee bien los enunciados antes de responder. ¡Éxito!</p>","response":0,"trial_type":"html-button-response","trial_index":4,"time_elapsed":63914,"internal_node_id":"0.0-4.0"},{"rt":57507.549999980256,"responses":"{\"pregunta19\":\"d) son propensas a fertilizar in vitro.\"}","question_order":"[0]","trial_type":"survey-multi-choice","trial_index":5,"time_elapsed":121428,"internal_node_id":"0.0-5.0-0.0"},{"rt":6536.025000037625,"response":{"pregunta19 likert":2},"question_order":[0],"trial_type":"survey-likert","trial_index":6,"time_elapsed":127987,"internal_node_id":"0.0-5.0-1.0"},{"rt":40903.36500003468,"responses":"{\"pregunta13\":\"a) A la inutilidad de tanto esfuerzo si el objetivo es el reposo.\"}","question_order":"[0]","trial_type":"survey-multi-choice","trial_index":7,"time_elapsed":168907,"internal_node_id":"0.0-5.0-2.0"},{"rt":5078.830000013113,"response":{"pregunta13 likert":3},"question_order":[0],"trial_type":"survey-likert","trial_index":8,"time_elapsed":173994,"internal_node_id":"0.0-5.0-3.0"},{"rt":38322.049999958836,"responses":"{\"pregunta11\":\"c) Provocar el deseo de la adquisición vertiginosa.\"}","question_order":"[0]","trial_type":"survey-multi-choice","trial_index":9,"time_elapsed":212330,"internal_node_id":"0.0-5.0-4.0"},{"rt":3230.210000067018,"response":{"pregunta11 likert":2},"question_order":[0],"trial_type":"survey-likert","trial_index":10,"time_elapsed":215578,"internal_node_id":"0.0-5.0-5.0"},{"rt":40121.56999995932,"responses":"{\"pregunta14\":\"d) el mejor emperador es el que está muerto.\"}","question_order":"[0]","trial_type":"survey-multi-choice","trial_index":11,"time_elapsed":255711,"internal_node_id":"0.0-5.0-6.0"},{"rt":2399.305000086315,"response":{"pregunta14 likert":3},"question_order":[0],"trial_type":"survey-likert","trial_index":12,"time_elapsed":258128,"internal_node_id":"0.0-5.0-7.0"},{"rt":66764.4099999452,"responses":"{\"pregunta9\":\"c) la persistencia de la melancolía y la desesperanza.\"}","question_order":"[0]","trial_type":"survey-multi-choice","trial_index":13,"time_elapsed":324918,"internal_node_id":"0.0-5.0-8.0"},{"rt":4746.455000014976,"response":{"pregunta9 likert":1},"question_order":[0],"trial_type":"survey-likert","trial_index":14,"time_elapsed":329677,"internal_node_id":"0.0-5.0-9.0"},{"rt":33633.60499998089,"responses":"{\"pregunta17\":\"a) A la influencia de grupos que rechazaban su música.\"}","question_order":"[0]","trial_type":"survey-multi-choice","trial_index":15,"time_elapsed":363327,"internal_node_id":"0.0-5.0-10.0"},{"rt":2295.5999999539927,"response":{"pregunta17 likert":3},"question_order":[0],"trial_type":"survey-likert","trial_index":16,"time_elapsed":365632,"internal_node_id":"0.0-5.0-11.0"},{"rt":29240.12000008952,"responses":"{\"pregunta21\":\"c) Será difícil que las empresas nacionales compitan con las estadounidenses.\"}","question_order":"[0]","trial_type":"survey-multi-choice","trial_index":17,"time_elapsed":394883,"internal_node_id":"0.0-5.0-12.0"},{"rt":2053.485000040382,"response":{"pregunta21 likert":3},"question_order":[0],"trial_type":"survey-likert","trial_index":18,"time_elapsed":396956,"internal_node_id":"0.0-5.0-13.0"},{"rt":50405.75999999419,"responses":"{\"pregunta5\":\"c) La escritura plasma los mejores momentos de los viajes.\"}","question_order":"[0]","trial_type":"survey-multi-choice","trial_index":19,"time_elapsed":447374,"internal_node_id":"0.0-5.0-14.0"},{"rt":2039.519999991171,"response":{"pregunta5 likert":3},"question_order":[0],"trial_type":"survey-likert","trial_index":20,"time_elapsed":449431,"internal_node_id":"0.0-5.0-15.0"},{"rt":33178.60499990638,"responses":"{\"pregunta24\":\"c) para el mexicano, la muerte es cotidiana.\"}","question_order":"[0]","trial_type":"survey-multi-choice","trial_index":21,"time_elapsed":482625,"internal_node_id":"0.0-5.0-16.0"},{"rt":5416.734999977052,"response":{"pregunta24 likert":0},"question_order":[0],"trial_type":"survey-likert","trial_index":22,"time_elapsed":488056,"internal_node_id":"0.0-5.0-17.0"},{"rt":61092.30999997817,"responses":"{\"pregunta4\":\"a) En la literatura como en la vida, lo importante son las preguntas.\"}","question_order":"[0]","trial_type":"survey-multi-choice","trial_index":23,"time_elapsed":549163,"internal_node_id":"0.0-5.0-18.0"},{"rt":2213.609999977052,"response":{"pregunta4 likert":2},"question_order":[0],"trial_type":"survey-likert","trial_index":24,"time_elapsed":551393,"internal_node_id":"0.0-5.0-19.0"},{"rt":25531.635000021197,"responses":"{\"pregunta3\":\"a) El origen de las grandes civilizaciones.\"}","question_order":"[0]","trial_type":"survey-multi-choice","trial_index":25,"time_elapsed":576934,"internal_node_id":"0.0-5.0-20.0"},{"rt":2421.500000054948,"response":{"pregunta3 likert":2},"question_order":[0],"trial_type":"survey-likert","trial_index":26,"time_elapsed":579368,"internal_node_id":"0.0-5.0-21.0"},{"rt":49659.660000004806,"responses":"{\"pregunta2\":\"d) A la relación entre pensamiento y estructura social.\"}","question_order":"[0]","trial_type":"survey-multi-choice","trial_index":27,"time_elapsed":629041,"internal_node_id":"0.0-5.0-22.0"},{"rt":2199.4100000010803,"response":{"pregunta2 likert":2},"question_order":[0],"trial_type":"survey-likert","trial_index":28,"time_elapsed":631253,"internal_node_id":"0.0-5.0-23.0"},{"rt":27708.07000005152,"responses":"{\"pregunta7\":\"b) se da como existente, y sólo se discute su relación con el cuerpo.\"}","question_order":"[0]","trial_type":"survey-multi-choice","trial_index":29,"time_elapsed":658976,"internal_node_id":"0.0-5.0-24.0"},{"rt":2097.5999999791384,"response":{"pregunta7 likert":2},"question_order":[0],"trial_type":"survey-likert","trial_index":30,"time_elapsed":661083,"internal_node_id":"0.0-5.0-25.0"},{"rt":14146.200000075623,"responses":"{\"pregunta15\":\"b) la creación de elementos químicos es altamente contaminante.\"}","question_order":"[0]","trial_type":"survey-multi-choice","trial_index":31,"time_elapsed":675236,"internal_node_id":"0.0-5.0-26.0"},{"rt":1875.0350000336766,"response":{"pregunta15 likert":2},"question_order":[0],"trial_type":"survey-likert","trial_index":32,"time_elapsed":677132,"internal_node_id":"0.0-5.0-27.0"},{"rt":65489.094999968074,"responses":"{\"pregunta23\":\"c) el jardinero estará muerto al día siguiente.\"}","question_order":"[0]","trial_type":"survey-multi-choice","trial_index":33,"time_elapsed":742631,"internal_node_id":"0.0-5.0-28.0"},{"rt":1947.359999991022,"response":{"pregunta23 likert":2},"question_order":[0],"trial_type":"survey-likert","trial_index":34,"time_elapsed":744588,"internal_node_id":"0.0-5.0-29.0"},{"rt":81768.9600000158,"responses":"{\"pregunta10\":\"d) hedonistas y soñadores.\"}","question_order":"[0]","trial_type":"survey-multi-choice","trial_index":35,"time_elapsed":826374,"internal_node_id":"0.0-5.0-30.0"},{"rt":2866.5999999502674,"response":{"pregunta10 likert":2},"question_order":[0],"trial_type":"survey-likert","trial_index":36,"time_elapsed":829248,"internal_node_id":"0.0-5.0-31.0"},{"rt":9074.799999943934,"responses":"{\"pregunta12\":\"a) Generar polémica entre distintos críticos.\"}","question_order":"[0]","trial_type":"survey-multi-choice","trial_index":37,"time_elapsed":838332,"internal_node_id":"0.0-5.0-32.0"},{"rt":2569.2000000271946,"response":{"pregunta12 likert":3},"question_order":[0],"trial_type":"survey-likert","trial_index":38,"time_elapsed":840916,"internal_node_id":"0.0-5.0-33.0"},{"rt":2248635.3050000034,"responses":"{\"pregunta20\":\"c) el sujeto sufre con su modo de vida.\"}","question_order":"[0]","trial_type":"survey-multi-choice","trial_index":39,"time_elapsed":3089559,"internal_node_id":"0.0-5.0-34.0"},{"rt":3726.9300000043586,"response":{"pregunta20 likert":0},"question_order":[0],"trial_type":"survey-likert","trial_index":40,"time_elapsed":3093293,"internal_node_id":"0.0-5.0-35.0"},{"rt":22533.754999982193,"responses":"{\"pregunta22\":\"c) Se necesita un marco legal para delimitar lo público y lo privado en materia informativa.\"}","question_order":"[0]","trial_type":"survey-multi-choice","trial_index":41,"time_elapsed":3115830,"internal_node_id":"0.0-5.0-36.0"},{"rt":1936.920000007376,"response":{"pregunta22 likert":3},"question_order":[0],"trial_type":"survey-likert","trial_index":42,"time_elapsed":3117773,"internal_node_id":"0.0-5.0-37.0"},{"rt":460568.28499992844,"responses":"{\"pregunta1\":\"d) Aportan informaciones con las que se reconstruye el personaje dentro de un relato.\"}","question_order":"[0]","trial_type":"survey-multi-choice","trial_index":43,"time_elapsed":3578348,"internal_node_id":"0.0-5.0-38.0"},{"rt":2375.6450000219047,"response":{"pregunta1 likert":2},"question_order":[0],"trial_type":"survey-likert","trial_index":44,"time_elapsed":3580732,"internal_node_id":"0.0-5.0-39.0"},{"rt":45652.33999991324,"responses":"{\"pregunta18\":\"a) El receptor es habitualmente pasivo frente a la publicidad.\"}","question_order":"[0]","trial_type":"survey-multi-choice","trial_index":45,"time_elapsed":3626393,"internal_node_id":"0.0-5.0-40.0"},{"rt":1990.4950000345707,"response":{"pregunta18 likert":3},"question_order":[0],"trial_type":"survey-likert","trial_index":46,"time_elapsed":3628402,"internal_node_id":"0.0-5.0-41.0"},{"rt":32919.355000020005,"responses":"{\"pregunta8\":\"d) Lo que es normal en un asilo es anormal en un campo de concentración.\"}","question_order":"[0]","trial_type":"survey-multi-choice","trial_index":47,"time_elapsed":3661329,"internal_node_id":"0.0-5.0-42.0"},{"rt":2551.8450000090525,"response":{"pregunta8 likert":3},"question_order":[0],"trial_type":"survey-likert","trial_index":48,"time_elapsed":3663890,"internal_node_id":"0.0-5.0-43.0"},{"rt":38389.63500002865,"responses":"{\"pregunta6\":\"d) Presentar positivamente las diversas tendencias del diseño de interiores a través de un comentario.\"}","question_order":"[0]","trial_type":"survey-multi-choice","trial_index":49,"time_elapsed":3702289,"internal_node_id":"0.0-5.0-44.0"},{"rt":2633.4700000006706,"response":{"pregunta6 likert":1},"question_order":[0],"trial_type":"survey-likert","trial_index":50,"time_elapsed":3704928,"internal_node_id":"0.0-5.0-45.0"},{"rt":29763.385000056587,"responses":"{\"pregunta16\":\"c) Se debe crear un seguro médico especial para esta institución, pues es de alto riesgo.\"}","question_order":"[0]","trial_type":"survey-multi-choice","trial_index":51,"time_elapsed":3734701,"internal_node_id":"0.0-5.0-46.0"},{"rt":2784.5899999374524,"response":{"pregunta16 likert":2},"question_order":[0],"trial_type":"survey-likert","trial_index":52,"time_elapsed":3737493,"internal_node_id":"0.0-5.0-47.0"},{"rt":10785.924999974668,"stimulus":"<p style=\"font-size: 120%\">Gracias por completar esta etapa del estudio. Ahora te invitamos a responder el cuestionario.<br><br></p>","response":0,"trial_type":"html-button-response","trial_index":53,"time_elapsed":3748406,"internal_node_id":"0.0-6.0"},{"rt":3497.4899999797344,"stimulus":"<h1 style=\"margin-top: 5%\">Cuestionario para la Evaluación de Metas Académicas</h1><p style=\"font-size: 120%; margin-left: 3%; margin-top: 5%\">Este es un cuestionario que permite conocer cuáles son los principales motivos por los que los estudiantes se esfuerzan en su trabajo académico. A continuación, se te presentarán una serie de afirmaciones acerca de los motivos que puedes tener para estudiar.<br>Te pedimos que contestes a dichas afirmaciones reflexionando sobre el contenido de cada una de ellas, que, aunque te parezcan semejantes, en realidad, no lo son.<br>NO HAY RESPUESTAS CORRECTAS o INCORRECTAS, sólo queremos que respondas con la mayor precisión y sinceridad posible a las preguntas que se plantean.","response":0,"trial_type":"html-button-response","trial_index":54,"time_elapsed":3751909,"internal_node_id":"0.0-7.0"},{"rt":89086.57000004314,"response":{"Metas cuestionario pregunta1":1,"Metas cuestionario pregunta2":4,"Metas cuestionario pregunta3":4,"Metas cuestionario pregunta4":3,"Metas cuestionario pregunta5":2,"Metas cuestionario pregunta6":4,"Metas cuestionario pregunta7":3,"Metas cuestionario pregunta8":4,"Metas cuestionario pregunta9":1,"Metas cuestionario pregunta10":0,"Metas cuestionario pregunta11":0,"Metas cuestionario pregunta12":0,"Metas cuestionario pregunta13":2,"Metas cuestionario pregunta14":0,"Metas cuestionario pregunta15":4,"Metas cuestionario pregunta16":4,"Metas cuestionario pregunta17":4,"Metas cuestionario pregunta18":4,"Metas cuestionario pregunta19":4,"Metas cuestionario pregunta20":4},"question_order":[0,1,2,3,4,5,6,7,8,9,10,11,12,13,14,15,16,17,18,19],"trial_type":"survey-likert","trial_index":55,"time_elapsed":3841075,"internal_node_id":"0.0-8.0"}]