[{"rt":18631,"stimulus":"<h1 style=\"color:red; margin-top: 3%;\">¡Bienvenido(a)!</h1><p style=\"text-align:left; justify-content:space-between; margin-right: 5%; margin-left: 5%; margin-top: 5%\"> Antes de empezar el estudio, necesitamos que nos confirmes que estás de acuerdo con participar. Recuerda que tu participación es 100% voluntaria y que lo único que te pedimos es responder lo mejor que puedas. Recuerda también que el estudio incluye:</p><ol style=\"text-align:left; justify-content:space-between; margin-right: 5%; margin-left: 5%;\"><li> un ejercicio de resolución de preguntas de selección múltiple (30’),</li><li>un cuestionario breve (5’),</li><li>un juego muy breve (3’),</li></ol><p style=\"text-align:left; justify-content:space-between; margin-right: 5%; margin-left: 5%;\">Si quieres participar, haz clic en “Acepto” luego de leer lo siguiente:<br></p><p style=\"text-align:left; justify-content:space-between; margin-right: 5%; margin-left: 5%;\">Acepto participar en el estudio “Estrategias de lectura y resolución de preguntas de selección múltiple”, en los términos aquí señalados:<br></p><p style=\"text-align:left; justify-content:space-between; margin-right: 5%; margin-left: 5%;\"><a href=\"http://ciae.uchile.cl/download.php?file=noticias/Asentimiento.pdf\" target=\"_blank\">Link a la hoja de información del Consentimiento.</a></p><p style=\"text-align:left; justify-content:space-between; margin-right: 5%; margin-left: 5%;\">Declaro que he leído (o se me ha leído) y (he) comprendido, las condiciones de mi participación en este estudio. He tenido la oportunidad de hacer preguntas y éstas han sido respondidas. No tengo dudas al respecto.</p>","response":0,"condicion_MCQ":1,"condicion_JUEGO":1,"condicion_INTER":1,"numero_participante":1,"numero_version":3,"dimx":414,"dimy":896,"color_profundidad":32,"pixel_profundidad":32,"Browser":"No identificado","dia":2,"mes":5,"hora":18,"minuto":0,"segundo":38,"trial_type":"html-button-response","trial_index":0,"time_elapsed":18636,"internal_node_id":"0.0-0.0"},{"success":true,"trial_type":"fullscreen","trial_index":1,"time_elapsed":25491,"internal_node_id":"0.0-1.0"},{"rt":54449,"responses":"{\"Nombres\":\"Nayadeth \",\"Apellidos\":\"Barrera guerra\",\"Edad\":\"18\",\"Sexo\":\"Femenino \",\"Curso\":\"Seccion 204\",\"Colegio\":\"Andrés bello\",\"Contacto\":\"Nayadethbarrera1@gmail.com\"}","trial_type":"survey-text","trial_index":2,"time_elapsed":79970,"internal_node_id":"0.0-2.0"},{"success":true,"timeout":false,"failed_images":[],"failed_audio":[],"failed_video":[],"trial_type":"preload","trial_index":3,"time_elapsed":81274,"internal_node_id":"0.0-3.0"},{"rt":4891,"stimulus":"<h1 style:\"margin-top: 5%;\">Ejercicios de Comprensión de Lectura de la Universidad de Chile</h1><p style=\"font-size: 120%;\">En esta actividad, debes responder 24 preguntas de selección múltiple. Cada pregunta presenta 4 respuestas alternativas, pero sólo una de ellas es correcta. Por lo tanto, debes escoger una sola alternativa para cada pregunta. Además, debes reportar qué tan seguro(a) estás de la respuesta que das, con un:</p><ol style=\"font-size: 120%;text-align:left;margin-left: 40%;\"><li>No estoy seguro(a) para nada</li><li>No estoy muy seguro(a)</li><li>Estoy bastante seguro(a)</li><li>Estoy totalmente seguro(a)</li></ol><p style=\"font-size: 120%;\">Por favor lee bien los enunciados antes de responder. ¡Éxito!</p>","response":0,"trial_type":"html-button-response","trial_index":4,"time_elapsed":86167,"internal_node_id":"0.0-4.0"},{"rt":58975,"responses":"{\"pregunta7\":\"c) se da como existente, y sólo se discute su relación con el cuerpo.\"}","question_order":"[0]","trial_type":"survey-multi-choice","trial_index":5,"time_elapsed":145148,"internal_node_id":"0.0-5.0-0.0"},{"rt":6871,"response":{"pregunta7 likert":2},"question_order":[0],"trial_type":"survey-likert","trial_index":6,"time_elapsed":152028,"internal_node_id":"0.0-5.0-1.0"},{"rt":55923,"responses":"{\"pregunta23\":\"d) el jardinero estará muerto al día siguiente.\"}","question_order":"[0]","trial_type":"survey-multi-choice","trial_index":7,"time_elapsed":207954,"internal_node_id":"0.0-5.0-2.0"},{"rt":2178,"response":{"pregunta23 likert":3},"question_order":[0],"trial_type":"survey-likert","trial_index":8,"time_elapsed":210135,"internal_node_id":"0.0-5.0-3.0"},{"rt":54088,"responses":"{\"pregunta13\":\"b) A la inutilidad de tanto esfuerzo si el objetivo es el reposo.\"}","question_order":"[0]","trial_type":"survey-multi-choice","trial_index":9,"time_elapsed":264226,"internal_node_id":"0.0-5.0-4.0"},{"rt":1355.0000000000582,"response":{"pregunta13 likert":2},"question_order":[0],"trial_type":"survey-likert","trial_index":10,"time_elapsed":265585,"internal_node_id":"0.0-5.0-5.0"},{"rt":36978,"responses":"{\"pregunta22\":\"d) Se necesita un marco legal para delimitar lo público y lo privado en materia informativa.\"}","question_order":"[0]","trial_type":"survey-multi-choice","trial_index":11,"time_elapsed":302569,"internal_node_id":"0.0-5.0-6.0"},{"rt":1118,"response":{"pregunta22 likert":3},"question_order":[0],"trial_type":"survey-likert","trial_index":12,"time_elapsed":303691,"internal_node_id":"0.0-5.0-7.0"},{"rt":69236,"responses":"{\"pregunta8\":\"c) El ser humano se comporta de acuerdo con las circunstancias.\"}","question_order":"[0]","trial_type":"survey-multi-choice","trial_index":13,"time_elapsed":372930,"internal_node_id":"0.0-5.0-8.0"},{"rt":1471,"response":{"pregunta8 likert":2},"question_order":[0],"trial_type":"survey-likert","trial_index":14,"time_elapsed":374403,"internal_node_id":"0.0-5.0-9.0"},{"rt":56113,"responses":"{\"pregunta15\":\"b) a partir de la manipulación del núcleo se han creado elementos químicos naturales.\"}","question_order":"[0]","trial_type":"survey-multi-choice","trial_index":15,"time_elapsed":430519,"internal_node_id":"0.0-5.0-10.0"},{"rt":3054,"response":{"pregunta15 likert":1},"question_order":[0],"trial_type":"survey-likert","trial_index":16,"time_elapsed":433576,"internal_node_id":"0.0-5.0-11.0"},{"rt":61418,"responses":"{\"pregunta2\":\"d) A la relación entre hechos capitales y parámetros del pensamiento.\"}","question_order":"[0]","trial_type":"survey-multi-choice","trial_index":17,"time_elapsed":494997,"internal_node_id":"0.0-5.0-12.0"},{"rt":1449,"response":{"pregunta2 likert":2},"question_order":[0],"trial_type":"survey-likert","trial_index":18,"time_elapsed":496449,"internal_node_id":"0.0-5.0-13.0"},{"rt":68869,"responses":"{\"pregunta19\":\"a) llevan un control grupal de su embarazo.\"}","question_order":"[0]","trial_type":"survey-multi-choice","trial_index":19,"time_elapsed":565322,"internal_node_id":"0.0-5.0-14.0"},{"rt":1943.0000000001164,"response":{"pregunta19 likert":2},"question_order":[0],"trial_type":"survey-likert","trial_index":20,"time_elapsed":567268,"internal_node_id":"0.0-5.0-15.0"},{"rt":38671,"responses":"{\"pregunta9\":\"d) un recuerdo nostálgico.\"}","question_order":"[0]","trial_type":"survey-multi-choice","trial_index":21,"time_elapsed":605942,"internal_node_id":"0.0-5.0-16.0"},{"rt":1740,"response":{"pregunta9 likert":2},"question_order":[0],"trial_type":"survey-likert","trial_index":22,"time_elapsed":607685,"internal_node_id":"0.0-5.0-17.0"},{"rt":60102,"responses":"{\"pregunta4\":\"a) En la literatura como en la vida, todo es metáfora.\"}","question_order":"[0]","trial_type":"survey-multi-choice","trial_index":23,"time_elapsed":667790,"internal_node_id":"0.0-5.0-18.0"},{"rt":3239,"response":{"pregunta4 likert":3},"question_order":[0],"trial_type":"survey-likert","trial_index":24,"time_elapsed":671033,"internal_node_id":"0.0-5.0-19.0"},{"rt":56793,"responses":"{\"pregunta5\":\"c) La escritura plasma los mejores momentos de los viajes.\"}","question_order":"[0]","trial_type":"survey-multi-choice","trial_index":25,"time_elapsed":727827,"internal_node_id":"0.0-5.0-20.0"},{"rt":1097,"response":{"pregunta5 likert":1},"question_order":[0],"trial_type":"survey-likert","trial_index":26,"time_elapsed":728927,"internal_node_id":"0.0-5.0-21.0"},{"rt":69670,"responses":"{\"pregunta1\":\"a) Aportan informaciones con las que se reconstruye el personaje dentro de un relato.\"}","question_order":"[0]","trial_type":"survey-multi-choice","trial_index":27,"time_elapsed":798598,"internal_node_id":"0.0-5.0-22.0"},{"rt":1870,"response":{"pregunta1 likert":2},"question_order":[0],"trial_type":"survey-likert","trial_index":28,"time_elapsed":800473,"internal_node_id":"0.0-5.0-23.0"},{"rt":127948,"responses":"{\"pregunta14\":\"c) la muerte de Wu Ti fue una bendición.\"}","question_order":"[0]","trial_type":"survey-multi-choice","trial_index":29,"time_elapsed":928427,"internal_node_id":"0.0-5.0-24.0"},{"rt":3945,"response":{"pregunta14 likert":2},"question_order":[0],"trial_type":"survey-likert","trial_index":30,"time_elapsed":932375,"internal_node_id":"0.0-5.0-25.0"},{"rt":34418.00000000012,"responses":"{\"pregunta16\":\"a) Por el riesgo que corren diariamente, los bomberos deberían tener mejores condiciones de seguridad.\"}","question_order":"[0]","trial_type":"survey-multi-choice","trial_index":31,"time_elapsed":966797,"internal_node_id":"0.0-5.0-26.0"},{"rt":2087.0000000001164,"response":{"pregunta16 likert":3},"question_order":[0],"trial_type":"survey-likert","trial_index":32,"time_elapsed":968887,"internal_node_id":"0.0-5.0-27.0"},{"rt":56094,"responses":"{\"pregunta18\":\"b) El receptor es habitualmente pasivo frente a la publicidad.\"}","question_order":"[0]","trial_type":"survey-multi-choice","trial_index":33,"time_elapsed":1024984,"internal_node_id":"0.0-5.0-28.0"},{"rt":1981,"response":{"pregunta18 likert":2},"question_order":[0],"trial_type":"survey-likert","trial_index":34,"time_elapsed":1026967,"internal_node_id":"0.0-5.0-29.0"},{"rt":61297.00000000012,"responses":"{\"pregunta21\":\"d) El TLC causará una completa transformación de la economía chilena.\"}","question_order":"[0]","trial_type":"survey-multi-choice","trial_index":35,"time_elapsed":1088267,"internal_node_id":"0.0-5.0-30.0"},{"rt":1260,"response":{"pregunta21 likert":2},"question_order":[0],"trial_type":"survey-likert","trial_index":36,"time_elapsed":1089532,"internal_node_id":"0.0-5.0-31.0"},{"rt":34180,"responses":"{\"pregunta11\":\"d) Provocar el deseo de la adquisición vertiginosa.\"}","question_order":"[0]","trial_type":"survey-multi-choice","trial_index":37,"time_elapsed":1123715,"internal_node_id":"0.0-5.0-32.0"},{"rt":1613,"response":{"pregunta11 likert":3},"question_order":[0],"trial_type":"survey-likert","trial_index":38,"time_elapsed":1125331,"internal_node_id":"0.0-5.0-33.0"},{"rt":64627,"responses":"{\"pregunta6\":\"b) Promover la asistencia a un evento específico de decoración a través de una atractiva descripción.\"}","question_order":"[0]","trial_type":"survey-multi-choice","trial_index":39,"time_elapsed":1189960,"internal_node_id":"0.0-5.0-34.0"},{"rt":1156,"response":{"pregunta6 likert":1},"question_order":[0],"trial_type":"survey-likert","trial_index":40,"time_elapsed":1191122,"internal_node_id":"0.0-5.0-35.0"},{"rt":76465,"responses":"{\"pregunta3\":\"b) El origen de las grandes civilizaciones.\"}","question_order":"[0]","trial_type":"survey-multi-choice","trial_index":41,"time_elapsed":1267590,"internal_node_id":"0.0-5.0-36.0"},{"rt":1189.9999999997672,"response":{"pregunta3 likert":2},"question_order":[0],"trial_type":"survey-likert","trial_index":42,"time_elapsed":1268783,"internal_node_id":"0.0-5.0-37.0"},{"rt":23631,"responses":"{\"pregunta24\":\"c) la muerte es distinta en las grandes ciudades.\"}","question_order":"[0]","trial_type":"survey-multi-choice","trial_index":43,"time_elapsed":1292417,"internal_node_id":"0.0-5.0-38.0"},{"rt":1519,"response":{"pregunta24 likert":3},"question_order":[0],"trial_type":"survey-likert","trial_index":44,"time_elapsed":1293939,"internal_node_id":"0.0-5.0-39.0"},{"rt":43193,"responses":"{\"pregunta20\":\"a) las personas excesivas son más felices.\"}","question_order":"[0]","trial_type":"survey-multi-choice","trial_index":45,"time_elapsed":1337136,"internal_node_id":"0.0-5.0-40.0"},{"rt":1079,"response":{"pregunta20 likert":2},"question_order":[0],"trial_type":"survey-likert","trial_index":46,"time_elapsed":1338219,"internal_node_id":"0.0-5.0-41.0"},{"rt":61239,"responses":"{\"pregunta17\":\"c) A la inexistencia de un recinto adecuado para el recital.\"}","question_order":"[0]","trial_type":"survey-multi-choice","trial_index":47,"time_elapsed":1399459,"internal_node_id":"0.0-5.0-42.0"},{"rt":1113,"response":{"pregunta17 likert":2},"question_order":[0],"trial_type":"survey-likert","trial_index":48,"time_elapsed":1400577,"internal_node_id":"0.0-5.0-43.0"},{"rt":43203,"responses":"{\"pregunta10\":\"a) religiosos y precavidos.\"}","question_order":"[0]","trial_type":"survey-multi-choice","trial_index":49,"time_elapsed":1443783,"internal_node_id":"0.0-5.0-44.0"},{"rt":1103,"response":{"pregunta10 likert":2},"question_order":[0],"trial_type":"survey-likert","trial_index":50,"time_elapsed":1444893,"internal_node_id":"0.0-5.0-45.0"},{"rt":44766,"responses":"{\"pregunta12\":\"d) Homenajear a quienes murieron.\"}","question_order":"[0]","trial_type":"survey-multi-choice","trial_index":51,"time_elapsed":1489662,"internal_node_id":"0.0-5.0-46.0"},{"rt":1239,"response":{"pregunta12 likert":3},"question_order":[0],"trial_type":"survey-likert","trial_index":52,"time_elapsed":1490905,"internal_node_id":"0.0-5.0-47.0"},{"rt":7192,"stimulus":"<p style=\"font-size: 120%\">Gracias por completar esta etapa del estudio. Ahora te invitamos a responder el cuestionario.<br><br></p>","response":0,"trial_type":"html-button-response","trial_index":53,"time_elapsed":1498111,"internal_node_id":"0.0-6.0"},{"rt":11299,"stimulus":"<h1 style=\"margin-top: 5%\">Cuestionario para la Evaluación de Metas Académicas</h1><p style=\"font-size: 120%; margin-left: 3%; margin-top: 5%\">Este es un cuestionario que permite conocer cuáles son los principales motivos por los que los estudiantes se esfuerzan en su trabajo académico. A continuación, se te presentarán una serie de afirmaciones acerca de los motivos que puedes tener para estudiar.<br>Te pedimos que contestes a dichas afirmaciones reflexionando sobre el contenido de cada una de ellas, que, aunque te parezcan semejantes, en realidad, no lo son.<br>NO HAY RESPUESTAS CORRECTAS o INCORRECTAS, sólo queremos que respondas con la mayor precisión y sinceridad posible a las preguntas que se plantean.","response":0,"trial_type":"html-button-response","trial_index":54,"time_elapsed":1509412,"internal_node_id":"0.0-7.0"},{"rt":136059.99999999977,"response":{"Metas cuestionario pregunta1":4,"Metas cuestionario pregunta2":4,"Metas cuestionario pregunta3":4,"Metas cuestionario pregunta4":3,"Metas cuestionario pregunta5":3,"Metas cuestionario pregunta6":3,"Metas cuestionario pregunta7":3,"Metas cuestionario pregunta8":4,"Metas cuestionario pregunta9":3,"Metas cuestionario pregunta10":3,"Metas cuestionario pregunta11":2,"Metas cuestionario pregunta12":2,"Metas cuestionario pregunta13":4,"Metas cuestionario pregunta14":2,"Metas cuestionario pregunta15":4,"Metas cuestionario pregunta16":4,"Metas cuestionario pregunta17":4,"Metas cuestionario pregunta18":4,"Metas cuestionario pregunta19":4,"Metas cuestionario pregunta20":4},"question_order":[0,1,2,3,4,5,6,7,8,9,10,11,12,13,14,15,16,17,18,19],"trial_type":"survey-likert","trial_index":55,"time_elapsed":1645487,"internal_node_id":"0.0-8.0"},{"rt":2049,"stimulus":"<p style=\"font-size: 120%\">Gracias por responder el cuestionario. Ahora te invitamos a seguir con el juego, que es muy breve.<br><br></p>","response":0,"trial_type":"html-button-response","trial_index":56,"time_elapsed":1647541,"internal_node_id":"0.0-9.0"},{"rt":9066.000000000233,"stimulus":"<h1>Juego</h1><p style=\"font-size: 120%;\">A continuación se te presentarán 16 pequeñas historias.<br>Por favor lee el texto presentado en cada una de ellas y luego haz click en el objeto de tu elección.<br>Si estás listo(a),<span style=\"color:red;\"> haz click en \"comenzar\"</span>.</p>","response":0,"trial_type":"html-button-response","trial_index":57,"time_elapsed":1656609,"internal_node_id":"0.0-10.0"},{"rt":10772.000000000233,"grid":[[1,1,1,1]],"target":[0,0],"response":[0,2],"correct":false,"juego":12,"trial_type":"serial-reaction-time-mouse","trial_index":58,"time_elapsed":1667388,"internal_node_id":"0.0-11.0-0.0"},{"rt":5172,"grid":[[1,1,1,1]],"target":[0,0],"response":[0,0],"correct":true,"juego":1,"trial_type":"serial-reaction-time-mouse","trial_index":59,"time_elapsed":1672564,"internal_node_id":"0.0-11.0-1.0"},{"rt":7222,"grid":[[1,1,1,1]],"target":[0,0],"response":[0,2],"correct":false,"juego":7,"trial_type":"serial-reaction-time-mouse","trial_index":60,"time_elapsed":1679788,"internal_node_id":"0.0-11.0-2.0"},{"rt":5904.999999999767,"grid":[[1,1,1,1]],"target":[0,0],"response":[0,2],"correct":false,"juego":2,"trial_type":"serial-reaction-time-mouse","trial_index":61,"time_elapsed":1685697,"internal_node_id":"0.0-11.0-3.0"},{"rt":6233,"grid":[[1,1,1,1],[1,1,1,1],[1,1,1,1],[1,1,1,1],[1,1,1,1],[1,1,1,1],[1,1,1,1],[1,1,1,1],[1,1,1,1]],"target":[0,0],"response":[5,2],"correct":false,"juego":15,"trial_type":"serial-reaction-time-mouse","trial_index":62,"time_elapsed":1691937,"internal_node_id":"0.0-11.0-4.0"},{"rt":4305,"grid":[[1,1,1,1]],"target":[0,0],"response":[0,0],"correct":true,"juego":8,"trial_type":"serial-reaction-time-mouse","trial_index":63,"time_elapsed":1696246,"internal_node_id":"0.0-11.0-5.0"},{"rt":4363,"grid":[[1],[1],[1],[1]],"target":[0,0],"response":[2,0],"correct":false,"juego":4,"trial_type":"serial-reaction-time-mouse","trial_index":64,"time_elapsed":1700611,"internal_node_id":"0.0-11.0-6.0"},{"rt":3119,"grid":[[1,1,1],[1,1,1],[1,1,1],[1,1,1],[1,1,1],[1,1,1],[1,1,1],[1,1,1],[1,1,1]],"target":[0,0],"response":[1,1],"correct":false,"juego":6,"trial_type":"serial-reaction-time-mouse","trial_index":65,"time_elapsed":1703736,"internal_node_id":"0.0-11.0-7.0"},{"rt":8173,"grid":[[1,1,1,1],[1,1,1,1],[1,1,1,1],[1,1,1,1],[1,1,1,1],[1,1,1,1],[1,1,1,1],[1,1,1,1],[1,1,1,1]],"target":[0,0],"response":[1,2],"correct":false,"juego":14,"trial_type":"serial-reaction-time-mouse","trial_index":66,"time_elapsed":1711921,"internal_node_id":"0.0-11.0-8.0"},{"rt":2897.000000000233,"grid":[[1,1,1,1]],"target":[0,0],"response":[0,1],"correct":false,"juego":9,"trial_type":"serial-reaction-time-mouse","trial_index":67,"time_elapsed":1714820,"internal_node_id":"0.0-11.0-9.0"},{"rt":5184,"grid":[[1,1,1],[1,1,1],[1,1,1],[1,1,1],[1,1,1],[1,1,1],[1,1,1],[1,1,1],[1,1,1]],"target":[0,0],"response":[1,1],"correct":false,"juego":13,"trial_type":"serial-reaction-time-mouse","trial_index":68,"time_elapsed":1720011,"internal_node_id":"0.0-11.0-10.0"},{"rt":3825,"grid":[[1,1,1,1]],"target":[0,0],"response":[0,2],"correct":false,"juego":11,"trial_type":"serial-reaction-time-mouse","trial_index":69,"time_elapsed":1723838,"internal_node_id":"0.0-11.0-11.0"},{"rt":2475,"grid":[[1,1,1],[1,1,1],[1,1,1],[1,1,1],[1,1,1],[1,1,1],[1,1,1],[1,1,1],[1,1,1]],"target":[0,0],"response":[1,1],"correct":false,"juego":5,"trial_type":"serial-reaction-time-mouse","trial_index":70,"time_elapsed":1726319,"internal_node_id":"0.0-11.0-12.0"},{"rt":5060,"grid":[[1,1,1],[1,1,1],[1,1,1],[1,1,1],[1,1,1],[1,1,1],[1,1,1],[1,1,1],[1,1,1]],"target":[0,0],"response":[1,0],"correct":false,"juego":10,"trial_type":"serial-reaction-time-mouse","trial_index":71,"time_elapsed":1731386,"internal_node_id":"0.0-11.0-13.0"},{"rt":3286.000000000233,"grid":[[1,1,1,1]],"target":[0,0],"response":[0,1],"correct":false,"juego":3,"trial_type":"serial-reaction-time-mouse","trial_index":72,"time_elapsed":1734675,"internal_node_id":"0.0-11.0-14.0"}]