[{"rt":3487.300000011921,"stimulus":"<h1 style=\"color:red; margin-top: 3%;\">¡Bienvenido(a)!</h1><p style=\"text-align:left; justify-content:space-between; margin-right: 5%; margin-left: 5%; margin-top: 5%\"> Antes de empezar el estudio, necesitamos que nos confirmes que estás de acuerdo con participar. Recuerda que tu participación es 100% voluntaria y que lo único que te pedimos es responder lo mejor que puedas. Recuerda también que el estudio incluye:</p><ol style=\"text-align:left; justify-content:space-between; margin-right: 5%; margin-left: 5%;\"><li> un ejercicio de resolución de preguntas de selección múltiple (30’),</li><li>un cuestionario breve (5’),</li><li>un juego muy breve (3’),</li></ol><p style=\"text-align:left; justify-content:space-between; margin-right: 5%; margin-left: 5%;\">Si quieres participar, haz clic en “Acepto” luego de leer lo siguiente:<br></p><p style=\"text-align:left; justify-content:space-between; margin-right: 5%; margin-left: 5%;\">Acepto participar en el estudio “Estrategias de lectura y resolución de preguntas de selección múltiple”, en los términos aquí señalados:<br></p><p style=\"text-align:left; justify-content:space-between; margin-right: 5%; margin-left: 5%;\"><a href=\"http://ciae.uchile.cl/download.php?file=noticias/Asentimiento.pdf\" target=\"_blank\">Link a la hoja de información del Consentimiento.</a></p><p style=\"text-align:left; justify-content:space-between; margin-right: 5%; margin-left: 5%;\">Declaro que he leído (o se me ha leído) y (he) comprendido, las condiciones de mi participación en este estudio. He tenido la oportunidad de hacer preguntas y éstas han sido respondidas. No tengo dudas al respecto.</p>","response":0,"condicion_MCQ":2,"condicion_JUEGO":2,"condicion_INTER":2,"numero_participante":74,"numero_version":1,"dimx":1536,"dimy":864,"color_profundidad":24,"pixel_profundidad":24,"Browser":"Google Chrome","dia":9,"mes":5,"hora":20,"minuto":31,"segundo":26,"trial_type":"html-button-response","trial_index":0,"time_elapsed":3492,"internal_node_id":"0.0-0.0"},{"success":true,"trial_type":"fullscreen","trial_index":1,"time_elapsed":9510,"internal_node_id":"0.0-1.0"},{"rt":87426.89999997616,"responses":"{\"Nombres\":\"Catalina \",\"Apellidos\":\"Marín Alderete\",\"Edad\":\"18\",\"Sexo\":\"mujer \",\"Curso\":\"218\",\"Colegio\":\"U. Andrés Bello \",\"Contacto\":\"catita.m.a.1@gmail.com\"}","trial_type":"survey-text","trial_index":2,"time_elapsed":96959,"internal_node_id":"0.0-2.0"},{"success":true,"timeout":false,"failed_images":[],"failed_audio":[],"failed_video":[],"trial_type":"preload","trial_index":3,"time_elapsed":98539,"internal_node_id":"0.0-3.0"},{"rt":3742.5,"stimulus":"<h1 style:\"margin-top: 5%;\">Ejercicios de Comprensión de Lectura de la Universidad de Chile</h1><p style=\"font-size: 120%;\">En esta actividad, debes responder 24 preguntas de selección múltiple. Cada pregunta presenta 4 respuestas alternativas, pero sólo una de ellas es correcta. Por lo tanto, debes escoger una sola alternativa para cada pregunta. Además, debes reportar qué tan seguro(a) estás de la respuesta que das, con un:</p><ol style=\"font-size: 120%;text-align:left;margin-left: 40%;\"><li>No estoy seguro(a) para nada</li><li>No estoy muy seguro(a)</li><li>Estoy bastante seguro(a)</li><li>Estoy totalmente seguro(a)</li></ol><p style=\"font-size: 120%;\">Por favor lee bien los enunciados antes de responder. ¡Éxito!</p>","response":0,"trial_type":"html-button-response","trial_index":4,"time_elapsed":102284,"internal_node_id":"0.0-4.0"},{"rt":181210.19999998808,"responses":"{\"pregunta17\":\"a) A la temática satánica de las canciones del grupo.\"}","question_order":"[0]","trial_type":"survey-multi-choice","trial_index":5,"time_elapsed":283498,"internal_node_id":"0.0-5.0-0.0"},{"rt":7552.5,"response":{"pregunta17 likert":1},"question_order":[0],"trial_type":"survey-likert","trial_index":6,"time_elapsed":291058,"internal_node_id":"0.0-5.0-1.0"},{"rt":82189.59999996424,"responses":"{\"pregunta18\":\"a) La publicidad es dañina para sus receptores.\"}","question_order":"[0]","trial_type":"survey-multi-choice","trial_index":7,"time_elapsed":373253,"internal_node_id":"0.0-5.0-2.0"},{"rt":3260,"response":{"pregunta18 likert":1},"question_order":[0],"trial_type":"survey-likert","trial_index":8,"time_elapsed":376520,"internal_node_id":"0.0-5.0-3.0"},{"rt":113272.39999997616,"responses":"{\"pregunta20\":\"a) las personas excesivas son más felices.\"}","question_order":"[0]","trial_type":"survey-multi-choice","trial_index":9,"time_elapsed":489800,"internal_node_id":"0.0-5.0-4.0"},{"rt":3043,"response":{"pregunta20 likert":0},"question_order":[0],"trial_type":"survey-likert","trial_index":10,"time_elapsed":492850,"internal_node_id":"0.0-5.0-5.0"},{"rt":41988,"responses":"{\"pregunta6\":\"c) Promover la asistencia a un evento específico de decoración a través de una atractiva descripción.\"}","question_order":"[0]","trial_type":"survey-multi-choice","trial_index":11,"time_elapsed":534845,"internal_node_id":"0.0-5.0-6.0"},{"rt":3866,"response":{"pregunta6 likert":2},"question_order":[0],"trial_type":"survey-likert","trial_index":12,"time_elapsed":538718,"internal_node_id":"0.0-5.0-7.0"},{"rt":70435,"responses":"{\"pregunta7\":\"b) es una realidad discutida por algunos.\"}","question_order":"[0]","trial_type":"survey-multi-choice","trial_index":13,"time_elapsed":609159,"internal_node_id":"0.0-5.0-8.0"},{"rt":3524,"response":{"pregunta7 likert":2},"question_order":[0],"trial_type":"survey-likert","trial_index":14,"time_elapsed":612690,"internal_node_id":"0.0-5.0-9.0"},{"rt":71555.80000001192,"responses":"{\"pregunta13\":\"c) A la inutilidad de tanto esfuerzo si el objetivo es el reposo.\"}","question_order":"[0]","trial_type":"survey-multi-choice","trial_index":15,"time_elapsed":684249,"internal_node_id":"0.0-5.0-10.0"},{"rt":3720.5,"response":{"pregunta13 likert":2},"question_order":[0],"trial_type":"survey-likert","trial_index":16,"time_elapsed":687977,"internal_node_id":"0.0-5.0-11.0"},{"rt":46403.60000002384,"responses":"{\"pregunta12\":\"c) Generar polémica entre distintos críticos.\"}","question_order":"[0]","trial_type":"survey-multi-choice","trial_index":17,"time_elapsed":734392,"internal_node_id":"0.0-5.0-12.0"},{"rt":6540,"response":{"pregunta12 likert":2},"question_order":[0],"trial_type":"survey-likert","trial_index":18,"time_elapsed":740939,"internal_node_id":"0.0-5.0-13.0"},{"rt":43777.60000002384,"responses":"{\"pregunta21\":\"a) El TLC causará una completa transformación de la economía chilena.\"}","question_order":"[0]","trial_type":"survey-multi-choice","trial_index":19,"time_elapsed":784723,"internal_node_id":"0.0-5.0-14.0"},{"rt":2489.199999988079,"response":{"pregunta21 likert":2},"question_order":[0],"trial_type":"survey-likert","trial_index":20,"time_elapsed":787220,"internal_node_id":"0.0-5.0-15.0"},{"rt":67364.39999997616,"responses":"{\"pregunta2\":\"d) A la relación entre sociedad y constitución social.\"}","question_order":"[0]","trial_type":"survey-multi-choice","trial_index":21,"time_elapsed":854590,"internal_node_id":"0.0-5.0-16.0"},{"rt":3021.5,"response":{"pregunta2 likert":1},"question_order":[0],"trial_type":"survey-likert","trial_index":22,"time_elapsed":857618,"internal_node_id":"0.0-5.0-17.0"},{"rt":56899.89999997616,"responses":"{\"pregunta10\":\"d) ritualistas y obsesivos.\"}","question_order":"[0]","trial_type":"survey-multi-choice","trial_index":23,"time_elapsed":914526,"internal_node_id":"0.0-5.0-18.0"},{"rt":2425,"response":{"pregunta10 likert":1},"question_order":[0],"trial_type":"survey-likert","trial_index":24,"time_elapsed":916958,"internal_node_id":"0.0-5.0-19.0"},{"rt":46873.19999998808,"responses":"{\"pregunta5\":\"b) Los momentos triviales de los viajes, en la escritura se vuelven significativos.\"}","question_order":"[0]","trial_type":"survey-multi-choice","trial_index":25,"time_elapsed":963838,"internal_node_id":"0.0-5.0-20.0"},{"rt":2589.399999976158,"response":{"pregunta5 likert":2},"question_order":[0],"trial_type":"survey-likert","trial_index":26,"time_elapsed":966435,"internal_node_id":"0.0-5.0-21.0"},{"rt":36447.5,"responses":"{\"pregunta22\":\"d) Se necesita un marco legal para delimitar lo público y lo privado en materia informativa.\"}","question_order":"[0]","trial_type":"survey-multi-choice","trial_index":27,"time_elapsed":1002885,"internal_node_id":"0.0-5.0-22.0"},{"rt":5123.800000011921,"response":{"pregunta22 likert":3},"question_order":[0],"trial_type":"survey-likert","trial_index":28,"time_elapsed":1008016,"internal_node_id":"0.0-5.0-23.0"},{"rt":78400.5,"responses":"{\"pregunta15\":\"b) el uranio es el elemento natural con el mayor número de protones en el núcleo.\"}","question_order":"[0]","trial_type":"survey-multi-choice","trial_index":29,"time_elapsed":1086426,"internal_node_id":"0.0-5.0-24.0"},{"rt":2831,"response":{"pregunta15 likert":1},"question_order":[0],"trial_type":"survey-likert","trial_index":30,"time_elapsed":1089264,"internal_node_id":"0.0-5.0-25.0"},{"rt":51056.69999998808,"responses":"{\"pregunta24\":\"a) para el mexicano, la muerte es cotidiana.\"}","question_order":"[0]","trial_type":"survey-multi-choice","trial_index":31,"time_elapsed":1140325,"internal_node_id":"0.0-5.0-26.0"},{"rt":5953.400000035763,"response":{"pregunta24 likert":2},"question_order":[0],"trial_type":"survey-likert","trial_index":32,"time_elapsed":1146285,"internal_node_id":"0.0-5.0-27.0"},{"rt":66574,"responses":"{\"pregunta14\":\"d) la muerte de Wu Ti fue una bendición.\"}","question_order":"[0]","trial_type":"survey-multi-choice","trial_index":33,"time_elapsed":1212865,"internal_node_id":"0.0-5.0-28.0"},{"rt":3002.100000023842,"response":{"pregunta14 likert":1},"question_order":[0],"trial_type":"survey-likert","trial_index":34,"time_elapsed":1215879,"internal_node_id":"0.0-5.0-29.0"},{"rt":39033.10000002384,"responses":"{\"pregunta23\":\"c) la Muerte vaticina el futuro mediante gestos.\"}","question_order":"[0]","trial_type":"survey-multi-choice","trial_index":35,"time_elapsed":1254918,"internal_node_id":"0.0-5.0-30.0"},{"rt":3794.599999964237,"response":{"pregunta23 likert":1},"question_order":[0],"trial_type":"survey-likert","trial_index":36,"time_elapsed":1258720,"internal_node_id":"0.0-5.0-31.0"},{"rt":1655416.6000000238,"responses":"{\"pregunta11\":\"c) Deleitar a sus receptores por medio de la belleza y el confort\"}","question_order":"[0]","trial_type":"survey-multi-choice","trial_index":37,"time_elapsed":2914139,"internal_node_id":"0.0-5.0-32.0"},{"rt":2306.800000011921,"response":{"pregunta11 likert":1},"question_order":[0],"trial_type":"survey-likert","trial_index":38,"time_elapsed":2916453,"internal_node_id":"0.0-5.0-33.0"},{"rt":278654.5,"responses":"{\"pregunta9\":\"a) un recuerdo nostálgico.\"}","question_order":"[0]","trial_type":"survey-multi-choice","trial_index":39,"time_elapsed":3195113,"internal_node_id":"0.0-5.0-34.0"},{"rt":2697,"response":{"pregunta9 likert":1},"question_order":[0],"trial_type":"survey-likert","trial_index":40,"time_elapsed":3197817,"internal_node_id":"0.0-5.0-35.0"},{"rt":38724.10000002384,"responses":"{\"pregunta8\":\"c) El ser humano se comporta de acuerdo con las circunstancias.\"}","question_order":"[0]","trial_type":"survey-multi-choice","trial_index":41,"time_elapsed":3236547,"internal_node_id":"0.0-5.0-36.0"},{"rt":3832.800000011921,"response":{"pregunta8 likert":1},"question_order":[0],"trial_type":"survey-likert","trial_index":42,"time_elapsed":3240387,"internal_node_id":"0.0-5.0-37.0"},{"rt":72813.60000002384,"responses":"{\"pregunta19\":\"c) sufren dolores de espalda.\"}","question_order":"[0]","trial_type":"survey-multi-choice","trial_index":43,"time_elapsed":3313207,"internal_node_id":"0.0-5.0-38.0"},{"rt":5041.700000047684,"response":{"pregunta19 likert":2},"question_order":[0],"trial_type":"survey-likert","trial_index":44,"time_elapsed":3318255,"internal_node_id":"0.0-5.0-39.0"},{"rt":36556.19999998808,"responses":"{\"pregunta1\":\"d) Enjuician la acción del narrador dentro del relato.\"}","question_order":"[0]","trial_type":"survey-multi-choice","trial_index":45,"time_elapsed":3354818,"internal_node_id":"0.0-5.0-40.0"},{"rt":3553.7999999523163,"response":{"pregunta1 likert":1},"question_order":[0],"trial_type":"survey-likert","trial_index":46,"time_elapsed":3358377,"internal_node_id":"0.0-5.0-41.0"},{"rt":52764.5,"responses":"{\"pregunta3\":\"d) Las grandes civilizaciones autóctonas.\"}","question_order":"[0]","trial_type":"survey-multi-choice","trial_index":47,"time_elapsed":3411148,"internal_node_id":"0.0-5.0-42.0"},{"rt":3875.199999988079,"response":{"pregunta3 likert":1},"question_order":[0],"trial_type":"survey-likert","trial_index":48,"time_elapsed":3415030,"internal_node_id":"0.0-5.0-43.0"},{"rt":9728.899999976158,"responses":"{\"pregunta4\":\"c) En la literatura como en la vida, todo es metáfora.\"}","question_order":"[0]","trial_type":"survey-multi-choice","trial_index":49,"time_elapsed":3424771,"internal_node_id":"0.0-5.0-44.0"},{"rt":2256.5,"response":{"pregunta4 likert":1},"question_order":[0],"trial_type":"survey-likert","trial_index":50,"time_elapsed":3427035,"internal_node_id":"0.0-5.0-45.0"},{"rt":41647.5,"responses":"{\"pregunta16\":\"d) Bomberos necesita ser defendido de la injusticia social que reina en el país.\"}","question_order":"[0]","trial_type":"survey-multi-choice","trial_index":51,"time_elapsed":3468689,"internal_node_id":"0.0-5.0-46.0"},{"rt":2710.300000011921,"response":{"pregunta16 likert":1},"question_order":[0],"trial_type":"survey-likert","trial_index":52,"time_elapsed":3471406,"internal_node_id":"0.0-5.0-47.0"},{"rt":1634.800000011921,"stimulus":"<p style=\"font-size: 120%\">Gracias por completar esta etapa del estudio. Ahora te invitamos a responder el cuestionario.<br><br></p>","response":0,"trial_type":"html-button-response","trial_index":53,"time_elapsed":3473052,"internal_node_id":"0.0-6.0"},{"rt":18931.69999998808,"stimulus":"<h1 style=\"margin-top: 5%\">Cuestionario para la Evaluación de Metas Académicas</h1><p style=\"font-size: 120%; margin-left: 3%; margin-top: 5%\">Este es un cuestionario que permite conocer cuáles son los principales motivos por los que los estudiantes se esfuerzan en su trabajo académico. A continuación, se te presentarán una serie de afirmaciones acerca de los motivos que puedes tener para estudiar.<br>Te pedimos que contestes a dichas afirmaciones reflexionando sobre el contenido de cada una de ellas, que, aunque te parezcan semejantes, en realidad, no lo son.<br>NO HAY RESPUESTAS CORRECTAS o INCORRECTAS, sólo queremos que respondas con la mayor precisión y sinceridad posible a las preguntas que se plantean.","response":0,"trial_type":"html-button-response","trial_index":54,"time_elapsed":3491984,"internal_node_id":"0.0-7.0"},{"rt":147490.59999996424,"response":{"Metas cuestionario pregunta1":2,"Metas cuestionario pregunta2":2,"Metas cuestionario pregunta3":2,"Metas cuestionario pregunta4":1,"Metas cuestionario pregunta5":2,"Metas cuestionario pregunta6":2,"Metas cuestionario pregunta7":2,"Metas cuestionario pregunta8":2,"Metas cuestionario pregunta9":3,"Metas cuestionario pregunta10":1,"Metas cuestionario pregunta11":0,"Metas cuestionario pregunta12":2,"Metas cuestionario pregunta13":3,"Metas cuestionario pregunta14":3,"Metas cuestionario pregunta15":3,"Metas cuestionario pregunta16":3,"Metas cuestionario pregunta17":4,"Metas cuestionario pregunta18":4,"Metas cuestionario pregunta19":4,"Metas cuestionario pregunta20":4},"question_order":[0,1,2,3,4,5,6,7,8,9,10,11,12,13,14,15,16,17,18,19],"trial_type":"survey-likert","trial_index":55,"time_elapsed":3639486,"internal_node_id":"0.0-8.0"}]