[{"rt":49733.70000000298,"stimulus":"<h1 style=\"color:red; margin-top: 3%;\">¡Bienvenido(a)!</h1><p style=\"text-align:left; justify-content:space-between; margin-right: 5%; margin-left: 5%; margin-top: 5%\"> Antes de empezar el estudio, necesitamos que nos confirmes que estás de acuerdo con participar. Recuerda que tu participación es 100% voluntaria y que lo único que te pedimos es responder lo mejor que puedas. Recuerda también que el estudio incluye:</p><ol style=\"text-align:left; justify-content:space-between; margin-right: 5%; margin-left: 5%;\"><li> un ejercicio de resolución de preguntas de selección múltiple (30’),</li><li>un cuestionario breve (5’),</li><li>un juego muy breve (3’),</li></ol><p style=\"text-align:left; justify-content:space-between; margin-right: 5%; margin-left: 5%;\">Si quieres participar, haz clic en “Acepto” luego de leer lo siguiente:<br></p><p style=\"text-align:left; justify-content:space-between; margin-right: 5%; margin-left: 5%;\">Acepto participar en el estudio “Estrategias de lectura y resolución de preguntas de selección múltiple”, en los términos aquí señalados:<br></p><p style=\"text-align:left; justify-content:space-between; margin-right: 5%; margin-left: 5%;\"><a href=\"http://ciae.uchile.cl/download.php?file=noticias/Asentimiento.pdf\" target=\"_blank\">Link a la hoja de información del Consentimiento.</a></p><p style=\"text-align:left; justify-content:space-between; margin-right: 5%; margin-left: 5%;\">Declaro que he leído (o se me ha leído) y (he) comprendido, las condiciones de mi participación en este estudio. He tenido la oportunidad de hacer preguntas y éstas han sido respondidas. No tengo dudas al respecto.</p>","response":0,"condicion_MCQ":6,"condicion_JUEGO":18,"condicion_INTER":18,"numero_participante":42,"numero_version":1,"dimx":1366,"dimy":768,"color_profundidad":24,"pixel_profundidad":24,"Browser":"Google Chrome","dia":4,"mes":5,"hora":11,"minuto":44,"segundo":22,"trial_type":"html-button-response","trial_index":0,"time_elapsed":49736,"internal_node_id":"0.0-0.0"},{"success":true,"trial_type":"fullscreen","trial_index":1,"time_elapsed":65503,"internal_node_id":"0.0-1.0"},{"rt":124134.70000000298,"responses":"{\"Nombres\":\"Matias\",\"Apellidos\":\"Janko Rivas\",\"Edad\":\"20\",\"Sexo\":\"hombre\",\"Curso\":\"204\",\"Colegio\":\"Universidad Andres bello\",\"Contacto\":\"matiasjanko@hotmail.com\"}","trial_type":"survey-text","trial_index":2,"time_elapsed":189647,"internal_node_id":"0.0-2.0"},{"success":true,"timeout":false,"failed_images":[],"failed_audio":[],"failed_video":[],"trial_type":"preload","trial_index":3,"time_elapsed":196801,"internal_node_id":"0.0-3.0"},{"rt":30887.60000000894,"stimulus":"<h1 style:\"margin-top: 5%;\">Ejercicios de Comprensión de Lectura de la Universidad de Chile</h1><p style=\"font-size: 120%;\">En esta actividad, debes responder 24 preguntas de selección múltiple. Cada pregunta presenta 4 respuestas alternativas, pero sólo una de ellas es correcta. Por lo tanto, debes escoger una sola alternativa para cada pregunta. Además, debes reportar qué tan seguro(a) estás de la respuesta que das, con un:</p><ol style=\"font-size: 120%;text-align:left;margin-left: 40%;\"><li>No estoy seguro(a) para nada</li><li>No estoy muy seguro(a)</li><li>Estoy bastante seguro(a)</li><li>Estoy totalmente seguro(a)</li></ol><p style=\"font-size: 120%;\">Por favor lee bien los enunciados antes de responder. ¡Éxito!</p>","response":0,"trial_type":"html-button-response","trial_index":4,"time_elapsed":227691,"internal_node_id":"0.0-4.0"},{"rt":49789.19999998808,"responses":"{\"pregunta15\":\"c) el uranio es el elemento natural con el mayor número de protones en el núcleo.\"}","question_order":"[0]","trial_type":"survey-multi-choice","trial_index":5,"time_elapsed":277482,"internal_node_id":"0.0-5.0-0.0"},{"rt":4779.79999999702,"response":{"pregunta15 likert":3},"question_order":[0],"trial_type":"survey-likert","trial_index":6,"time_elapsed":282264,"internal_node_id":"0.0-5.0-1.0"},{"rt":146007.79999999702,"responses":"{\"pregunta23\":\"b) el jardinero estará muerto al día siguiente.\"}","question_order":"[0]","trial_type":"survey-multi-choice","trial_index":7,"time_elapsed":428273,"internal_node_id":"0.0-5.0-2.0"},{"rt":2381.5,"response":{"pregunta23 likert":2},"question_order":[0],"trial_type":"survey-likert","trial_index":8,"time_elapsed":430657,"internal_node_id":"0.0-5.0-3.0"},{"rt":103403.40000000596,"responses":"{\"pregunta11\":\"b) Provocar el deseo de la adquisición vertiginosa.\"}","question_order":"[0]","trial_type":"survey-multi-choice","trial_index":9,"time_elapsed":534062,"internal_node_id":"0.0-5.0-4.0"},{"rt":1739.2000000029802,"response":{"pregunta11 likert":2},"question_order":[0],"trial_type":"survey-likert","trial_index":10,"time_elapsed":535803,"internal_node_id":"0.0-5.0-5.0"},{"rt":82748.90000000596,"responses":"{\"pregunta7\":\"d) se da como existente, y sólo se discute su relación con el cuerpo.\"}","question_order":"[0]","trial_type":"survey-multi-choice","trial_index":11,"time_elapsed":618552,"internal_node_id":"0.0-5.0-6.0"},{"rt":2734,"response":{"pregunta7 likert":2},"question_order":[0],"trial_type":"survey-likert","trial_index":12,"time_elapsed":621288,"internal_node_id":"0.0-5.0-7.0"},{"rt":98560.40000000596,"responses":"{\"pregunta12\":\"b) Homenajear a quienes murieron.\"}","question_order":"[0]","trial_type":"survey-multi-choice","trial_index":13,"time_elapsed":719850,"internal_node_id":"0.0-5.0-8.0"},{"rt":1990.5999999940395,"response":{"pregunta12 likert":2},"question_order":[0],"trial_type":"survey-likert","trial_index":14,"time_elapsed":721842,"internal_node_id":"0.0-5.0-9.0"},{"rt":39520.70000000298,"responses":"{\"pregunta10\":\"a) ritualistas y obsesivos.\"}","question_order":"[0]","trial_type":"survey-multi-choice","trial_index":15,"time_elapsed":761364,"internal_node_id":"0.0-5.0-10.0"},{"rt":2097.5,"response":{"pregunta10 likert":0},"question_order":[0],"trial_type":"survey-likert","trial_index":16,"time_elapsed":763463,"internal_node_id":"0.0-5.0-11.0"},{"rt":90394.5,"responses":"{\"pregunta4\":\"c) En la literatura como en la vida, lo importante son las preguntas.\"}","question_order":"[0]","trial_type":"survey-multi-choice","trial_index":17,"time_elapsed":853859,"internal_node_id":"0.0-5.0-12.0"},{"rt":1980.5,"response":{"pregunta4 likert":2},"question_order":[0],"trial_type":"survey-likert","trial_index":18,"time_elapsed":855841,"internal_node_id":"0.0-5.0-13.0"},{"rt":29538.20000000298,"responses":"{\"pregunta22\":\"a) Se necesita un marco legal para delimitar lo público y lo privado en materia informativa.\"}","question_order":"[0]","trial_type":"survey-multi-choice","trial_index":19,"time_elapsed":885381,"internal_node_id":"0.0-5.0-14.0"},{"rt":3413.5999999940395,"response":{"pregunta22 likert":3},"question_order":[0],"trial_type":"survey-likert","trial_index":20,"time_elapsed":888796,"internal_node_id":"0.0-5.0-15.0"},{"rt":39000.39999999106,"responses":"{\"pregunta21\":\"a) Nuestra economía vivirá un proceso de ajuste a la nueva realidad.\"}","question_order":"[0]","trial_type":"survey-multi-choice","trial_index":21,"time_elapsed":927798,"internal_node_id":"0.0-5.0-16.0"},{"rt":1606.300000011921,"response":{"pregunta21 likert":3},"question_order":[0],"trial_type":"survey-likert","trial_index":22,"time_elapsed":929406,"internal_node_id":"0.0-5.0-17.0"},{"rt":81805.79999999702,"responses":"{\"pregunta3\":\"c) El inicio de la civilización china.\"}","question_order":"[0]","trial_type":"survey-multi-choice","trial_index":23,"time_elapsed":1011214,"internal_node_id":"0.0-5.0-18.0"},{"rt":1745.7999999970198,"response":{"pregunta3 likert":3},"question_order":[0],"trial_type":"survey-likert","trial_index":24,"time_elapsed":1012963,"internal_node_id":"0.0-5.0-19.0"},{"rt":46077.20000000298,"responses":"{\"pregunta18\":\"d) El receptor es habitualmente pasivo frente a la publicidad.\"}","question_order":"[0]","trial_type":"survey-multi-choice","trial_index":25,"time_elapsed":1059043,"internal_node_id":"0.0-5.0-20.0"},{"rt":2330.8999999910593,"response":{"pregunta18 likert":1},"question_order":[0],"trial_type":"survey-likert","trial_index":26,"time_elapsed":1061377,"internal_node_id":"0.0-5.0-21.0"},{"rt":69035.5,"responses":"{\"pregunta16\":\"c) Bomberos debería tener acceso a un seguro médico, al que pueda recurrir en caso de accidente.\"}","question_order":"[0]","trial_type":"survey-multi-choice","trial_index":27,"time_elapsed":1130415,"internal_node_id":"0.0-5.0-22.0"},{"rt":1902.7000000029802,"response":{"pregunta16 likert":2},"question_order":[0],"trial_type":"survey-likert","trial_index":28,"time_elapsed":1132320,"internal_node_id":"0.0-5.0-23.0"},{"rt":35349.90000000596,"responses":"{\"pregunta6\":\"b) Presentar positivamente las diversas tendencias del diseño de interiores a través de un comentario.\"}","question_order":"[0]","trial_type":"survey-multi-choice","trial_index":29,"time_elapsed":1167671,"internal_node_id":"0.0-5.0-24.0"},{"rt":2946.6000000089407,"response":{"pregunta6 likert":0},"question_order":[0],"trial_type":"survey-likert","trial_index":30,"time_elapsed":1170619,"internal_node_id":"0.0-5.0-25.0"},{"rt":3207.2999999970198,"responses":"{\"pregunta17\":\"a) A la inexistencia de un recinto adecuado para el recital.\"}","question_order":"[0]","trial_type":"survey-multi-choice","trial_index":31,"time_elapsed":1173828,"internal_node_id":"0.0-5.0-26.0"},{"rt":2020.7999999970198,"response":{"pregunta17 likert":0},"question_order":[0],"trial_type":"survey-likert","trial_index":32,"time_elapsed":1175850,"internal_node_id":"0.0-5.0-27.0"},{"rt":42331.39999999106,"responses":"{\"pregunta5\":\"a) La escritura plasma los mejores momentos de los viajes.\"}","question_order":"[0]","trial_type":"survey-multi-choice","trial_index":33,"time_elapsed":1218183,"internal_node_id":"0.0-5.0-28.0"},{"rt":1420.7000000029802,"response":{"pregunta5 likert":2},"question_order":[0],"trial_type":"survey-likert","trial_index":34,"time_elapsed":1219605,"internal_node_id":"0.0-5.0-29.0"},{"rt":55279.20000000298,"responses":"{\"pregunta2\":\"c) A la relación entre pensamiento y estructura social.\"}","question_order":"[0]","trial_type":"survey-multi-choice","trial_index":35,"time_elapsed":1274886,"internal_node_id":"0.0-5.0-30.0"},{"rt":2668.3999999910593,"response":{"pregunta2 likert":2},"question_order":[0],"trial_type":"survey-likert","trial_index":36,"time_elapsed":1277556,"internal_node_id":"0.0-5.0-31.0"},{"rt":70941.59999999404,"responses":"{\"pregunta13\":\"b) Al premio merecido después de tantos esfuerzos.\"}","question_order":"[0]","trial_type":"survey-multi-choice","trial_index":37,"time_elapsed":1348499,"internal_node_id":"0.0-5.0-32.0"},{"rt":1806.5,"response":{"pregunta13 likert":3},"question_order":[0],"trial_type":"survey-likert","trial_index":38,"time_elapsed":1350307,"internal_node_id":"0.0-5.0-33.0"},{"rt":47967.59999999404,"responses":"{\"pregunta24\":\"b) para el mexicano, la muerte es cotidiana.\"}","question_order":"[0]","trial_type":"survey-multi-choice","trial_index":39,"time_elapsed":1398275,"internal_node_id":"0.0-5.0-34.0"},{"rt":1887.4000000059605,"response":{"pregunta24 likert":1},"question_order":[0],"trial_type":"survey-likert","trial_index":40,"time_elapsed":1400164,"internal_node_id":"0.0-5.0-35.0"},{"rt":20271.59999999404,"responses":"{\"pregunta9\":\"a) preparar los recuerdos del mañana.\"}","question_order":"[0]","trial_type":"survey-multi-choice","trial_index":41,"time_elapsed":1420438,"internal_node_id":"0.0-5.0-36.0"},{"rt":1533.9000000059605,"response":{"pregunta9 likert":0},"question_order":[0],"trial_type":"survey-likert","trial_index":42,"time_elapsed":1421973,"internal_node_id":"0.0-5.0-37.0"},{"rt":2351.6000000089407,"responses":"{\"pregunta20\":\"a) para Aristóteles la virtud estaba en el justo equilibrio.\"}","question_order":"[0]","trial_type":"survey-multi-choice","trial_index":43,"time_elapsed":1424326,"internal_node_id":"0.0-5.0-38.0"},{"rt":2112.5,"response":{"pregunta20 likert":0},"question_order":[0],"trial_type":"survey-likert","trial_index":44,"time_elapsed":1426440,"internal_node_id":"0.0-5.0-39.0"},{"rt":3186.7000000029802,"responses":"{\"pregunta19\":\"c) llevan un control grupal de su embarazo.\"}","question_order":"[0]","trial_type":"survey-multi-choice","trial_index":45,"time_elapsed":1429628,"internal_node_id":"0.0-5.0-40.0"},{"rt":1699.2000000029802,"response":{"pregunta19 likert":0},"question_order":[0],"trial_type":"survey-likert","trial_index":46,"time_elapsed":1431329,"internal_node_id":"0.0-5.0-41.0"},{"rt":66787.5,"responses":"{\"pregunta1\":\"b) Aportan informaciones con las que se reconstruye el personaje dentro de un relato.\"}","question_order":"[0]","trial_type":"survey-multi-choice","trial_index":47,"time_elapsed":1498118,"internal_node_id":"0.0-5.0-42.0"},{"rt":3133.5,"response":{"pregunta1 likert":1},"question_order":[0],"trial_type":"survey-likert","trial_index":48,"time_elapsed":1501253,"internal_node_id":"0.0-5.0-43.0"},{"rt":2654.699999988079,"responses":"{\"pregunta8\":\"a) El ser humano se comporta de acuerdo con las circunstancias.\"}","question_order":"[0]","trial_type":"survey-multi-choice","trial_index":49,"time_elapsed":1503909,"internal_node_id":"0.0-5.0-44.0"},{"rt":2680,"response":{"pregunta8 likert":0},"question_order":[0],"trial_type":"survey-likert","trial_index":50,"time_elapsed":1506591,"internal_node_id":"0.0-5.0-45.0"},{"rt":1993.7000000029802,"responses":"{\"pregunta14\":\"b) el Primer Ministro debía morir por ambicioso.\"}","question_order":"[0]","trial_type":"survey-multi-choice","trial_index":51,"time_elapsed":1508586,"internal_node_id":"0.0-5.0-46.0"},{"rt":1666.9000000059605,"response":{"pregunta14 likert":0},"question_order":[0],"trial_type":"survey-likert","trial_index":52,"time_elapsed":1510254,"internal_node_id":"0.0-5.0-47.0"},{"rt":1535.5999999940395,"stimulus":"<p style=\"font-size: 120%\">Gracias por completar esta etapa del estudio. Ahora te invitamos a responder el cuestionario.<br><br></p>","response":0,"trial_type":"html-button-response","trial_index":53,"time_elapsed":1511793,"internal_node_id":"0.0-6.0"},{"rt":15714.59999999404,"stimulus":"<h1 style=\"margin-top: 5%\">Cuestionario para la Evaluación de Metas Académicas</h1><p style=\"font-size: 120%; margin-left: 3%; margin-top: 5%\">Este es un cuestionario que permite conocer cuáles son los principales motivos por los que los estudiantes se esfuerzan en su trabajo académico. A continuación, se te presentarán una serie de afirmaciones acerca de los motivos que puedes tener para estudiar.<br>Te pedimos que contestes a dichas afirmaciones reflexionando sobre el contenido de cada una de ellas, que, aunque te parezcan semejantes, en realidad, no lo son.<br>NO HAY RESPUESTAS CORRECTAS o INCORRECTAS, sólo queremos que respondas con la mayor precisión y sinceridad posible a las preguntas que se plantean.","response":0,"trial_type":"html-button-response","trial_index":54,"time_elapsed":1527509,"internal_node_id":"0.0-7.0"},{"rt":128127.20000000298,"response":{"Metas cuestionario pregunta1":0,"Metas cuestionario pregunta2":2,"Metas cuestionario pregunta3":3,"Metas cuestionario pregunta4":0,"Metas cuestionario pregunta5":2,"Metas cuestionario pregunta6":2,"Metas cuestionario pregunta7":3,"Metas cuestionario pregunta8":0,"Metas cuestionario pregunta9":1,"Metas cuestionario pregunta10":0,"Metas cuestionario pregunta11":0,"Metas cuestionario pregunta12":0,"Metas cuestionario pregunta13":1,"Metas cuestionario pregunta14":0,"Metas cuestionario pregunta15":3,"Metas cuestionario pregunta16":3,"Metas cuestionario pregunta17":4,"Metas cuestionario pregunta18":4,"Metas cuestionario pregunta19":4,"Metas cuestionario pregunta20":4},"question_order":[0,1,2,3,4,5,6,7,8,9,10,11,12,13,14,15,16,17,18,19],"trial_type":"survey-likert","trial_index":55,"time_elapsed":1655640,"internal_node_id":"0.0-8.0"},{"rt":2663.9000000059605,"stimulus":"<p style=\"font-size: 120%\">Gracias por responder el cuestionario. Ahora te invitamos a seguir con el juego, que es muy breve.<br><br></p>","response":0,"trial_type":"html-button-response","trial_index":56,"time_elapsed":1658308,"internal_node_id":"0.0-9.0"},{"rt":10998,"stimulus":"<h1>Juego</h1><p style=\"font-size: 120%;\">A continuación se te presentarán 16 pequeñas historias.<br>Por favor lee el texto presentado en cada una de ellas y luego haz click en el objeto de tu elección.<br>Si estás listo(a),<span style=\"color:red;\"> haz click en \"comenzar\"</span>.</p>","response":0,"trial_type":"html-button-response","trial_index":57,"time_elapsed":1669307,"internal_node_id":"0.0-10.0"},{"rt":31340.5,"grid":[[1,1,1],[1,1,1],[1,1,1],[1,1,1],[1,1,1],[1,1,1],[1,1,1],[1,1,1],[1,1,1]],"target":[0,0],"response":[7,2],"correct":false,"juego":10,"trial_type":"serial-reaction-time-mouse","trial_index":58,"time_elapsed":1700650,"internal_node_id":"0.0-11.0-0.0"},{"rt":35655.5,"grid":[[1,1,1,1]],"target":[0,0],"response":[0,2],"correct":false,"juego":7,"trial_type":"serial-reaction-time-mouse","trial_index":59,"time_elapsed":1736306,"internal_node_id":"0.0-11.0-1.0"},{"rt":49219.30000001192,"grid":[[1,1,1,1]],"target":[0,0],"response":[0,1],"correct":false,"juego":11,"trial_type":"serial-reaction-time-mouse","trial_index":60,"time_elapsed":1785527,"internal_node_id":"0.0-11.0-2.0"},{"rt":34085.89999999106,"grid":[[1,1,1,1]],"target":[0,0],"response":[0,1],"correct":false,"juego":3,"trial_type":"serial-reaction-time-mouse","trial_index":61,"time_elapsed":1819614,"internal_node_id":"0.0-11.0-3.0"},{"rt":14168.09999999404,"grid":[[1,1,1,1]],"target":[0,0],"response":[0,2],"correct":false,"juego":2,"trial_type":"serial-reaction-time-mouse","trial_index":62,"time_elapsed":1833782,"internal_node_id":"0.0-11.0-4.0"},{"rt":21186.5,"grid":[[1,1,1],[1,1,1],[1,1,1],[1,1,1],[1,1,1],[1,1,1],[1,1,1],[1,1,1],[1,1,1]],"target":[0,0],"response":[7,1],"correct":false,"juego":6,"trial_type":"serial-reaction-time-mouse","trial_index":63,"time_elapsed":1854971,"internal_node_id":"0.0-11.0-5.0"},{"rt":25863.39999999106,"grid":[[1,1,1],[1,1,1],[1,1,1],[1,1,1],[1,1,1],[1,1,1],[1,1,1],[1,1,1],[1,1,1]],"target":[0,0],"response":[3,1],"correct":false,"juego":13,"trial_type":"serial-reaction-time-mouse","trial_index":64,"time_elapsed":1880836,"internal_node_id":"0.0-11.0-6.0"},{"rt":15986.79999999702,"grid":[[1,1,1,1],[1,1,1,1],[1,1,1,1],[1,1,1,1],[1,1,1,1],[1,1,1,1],[1,1,1,1],[1,1,1,1],[1,1,1,1]],"target":[0,0],"response":[1,2],"correct":false,"juego":14,"trial_type":"serial-reaction-time-mouse","trial_index":65,"time_elapsed":1896825,"internal_node_id":"0.0-11.0-7.0"},{"rt":30243.10000000894,"grid":[[1,1,1,1],[1,1,1,1],[1,1,1,1],[1,1,1,1],[1,1,1,1],[1,1,1,1],[1,1,1,1],[1,1,1,1],[1,1,1,1]],"target":[0,0],"response":[7,2],"correct":false,"juego":15,"trial_type":"serial-reaction-time-mouse","trial_index":66,"time_elapsed":1927070,"internal_node_id":"0.0-11.0-8.0"},{"rt":10843.10000000894,"grid":[[1,1,1],[1,1,1],[1,1,1],[1,1,1],[1,1,1],[1,1,1],[1,1,1],[1,1,1],[1,1,1]],"target":[0,0],"response":[1,1],"correct":false,"juego":5,"trial_type":"serial-reaction-time-mouse","trial_index":67,"time_elapsed":1937914,"internal_node_id":"0.0-11.0-9.0"},{"rt":5090.699999988079,"grid":[[1,1,1,1]],"target":[0,0],"response":[0,1],"correct":false,"juego":1,"trial_type":"serial-reaction-time-mouse","trial_index":68,"time_elapsed":1943006,"internal_node_id":"0.0-11.0-10.0"},{"rt":14792.10000000894,"grid":[[1,1,1,1]],"target":[0,0],"response":[0,1],"correct":false,"juego":12,"trial_type":"serial-reaction-time-mouse","trial_index":69,"time_elapsed":1957799,"internal_node_id":"0.0-11.0-11.0"},{"rt":2623.7000000029802,"grid":[[1],[1],[1],[1]],"target":[0,0],"response":[0,0],"correct":true,"juego":4,"trial_type":"serial-reaction-time-mouse","trial_index":70,"time_elapsed":1960424,"internal_node_id":"0.0-11.0-12.0"},{"rt":10864.10000000894,"grid":[[1,1,1,1]],"target":[0,0],"response":[0,1],"correct":false,"juego":9,"trial_type":"serial-reaction-time-mouse","trial_index":71,"time_elapsed":1971289,"internal_node_id":"0.0-11.0-13.0"},{"rt":8272.5,"grid":[[1,1,1,1]],"target":[0,0],"response":[0,3],"correct":false,"juego":8,"trial_type":"serial-reaction-time-mouse","trial_index":72,"time_elapsed":1979563,"internal_node_id":"0.0-11.0-14.0"},{"rt":8222.79999999702,"stimulus":"<h1>Último juego</h1><p style=\"font-size: 130%;\">Tienes <span style=\"color:red\">25</span> segundos para recordar los pares de palabras que aparecerán a continuación. <br></p>","response":0,"trial_type":"html-button-response","trial_index":73,"time_elapsed":1987789,"internal_node_id":"0.0-12.0"},{"animation_sequence":[{"stimulus":"imagen_juego_interferencia.jpg","time":513.1999999880791},{"stimulus":"imagen_juego_interferencia.jpg","time":1002.1999999880791},{"stimulus":"imagen_juego_interferencia.jpg","time":1509.3999999910593},{"stimulus":"imagen_juego_interferencia.jpg","time":2001.199999988079},{"stimulus":"imagen_juego_interferencia.jpg","time":2508.7999999970198},{"stimulus":"imagen_juego_interferencia.jpg","time":3001.199999988079},{"stimulus":"imagen_juego_interferencia.jpg","time":3501.199999988079},{"stimulus":"imagen_juego_interferencia.jpg","time":4001.199999988079},{"stimulus":"imagen_juego_interferencia.jpg","time":4501.699999988079},{"stimulus":"imagen_juego_interferencia.jpg","time":5001.29999999702},{"stimulus":"imagen_juego_interferencia.jpg","time":5501.29999999702},{"stimulus":"imagen_juego_interferencia.jpg","time":6001.5},{"stimulus":"imagen_juego_interferencia.jpg","time":6501.29999999702},{"stimulus":"imagen_juego_interferencia.jpg","time":7001.399999991059},{"stimulus":"imagen_juego_interferencia.jpg","time":7501.29999999702},{"stimulus":"imagen_juego_interferencia.jpg","time":8001.0999999940395},{"stimulus":"imagen_juego_interferencia.jpg","time":8501},{"stimulus":"imagen_juego_interferencia.jpg","time":9001.59999999404},{"stimulus":"imagen_juego_interferencia.jpg","time":9501.09999999404},{"stimulus":"imagen_juego_interferencia.jpg","time":10002.29999999702},{"stimulus":"imagen_juego_interferencia.jpg","time":10511.39999999106},{"stimulus":"imagen_juego_interferencia.jpg","time":11001.39999999106},{"stimulus":"imagen_juego_interferencia.jpg","time":11501.699999988079},{"stimulus":"imagen_juego_interferencia.jpg","time":12009.09999999404},{"stimulus":"imagen_juego_interferencia.jpg","time":12501.59999999404},{"stimulus":"imagen_juego_interferencia.jpg","time":13011},{"stimulus":"imagen_juego_interferencia.jpg","time":13515.79999999702},{"stimulus":"imagen_juego_interferencia.jpg","time":14001.29999999702},{"stimulus":"imagen_juego_interferencia.jpg","time":14512.09999999404},{"stimulus":"imagen_juego_interferencia.jpg","time":15014.89999999106},{"stimulus":"imagen_juego_interferencia.jpg","time":15500.89999999106},{"stimulus":"imagen_juego_interferencia.jpg","time":16005},{"stimulus":"imagen_juego_interferencia.jpg","time":16501.19999998808},{"stimulus":"imagen_juego_interferencia.jpg","time":17001.59999999404},{"stimulus":"imagen_juego_interferencia.jpg","time":17511.19999998808},{"stimulus":"imagen_juego_interferencia.jpg","time":18002.89999999106},{"stimulus":"imagen_juego_interferencia.jpg","time":18502.19999998808},{"stimulus":"imagen_juego_interferencia.jpg","time":19001.5},{"stimulus":"imagen_juego_interferencia.jpg","time":19501.29999999702},{"stimulus":"imagen_juego_interferencia.jpg","time":20003.19999998808},{"stimulus":"imagen_juego_interferencia.jpg","time":20501.59999999404},{"stimulus":"imagen_juego_interferencia.jpg","time":21001.19999998808},{"stimulus":"imagen_juego_interferencia.jpg","time":21501},{"stimulus":"imagen_juego_interferencia.jpg","time":22001.09999999404},{"stimulus":"imagen_juego_interferencia.jpg","time":22501.09999999404},{"stimulus":"imagen_juego_interferencia.jpg","time":23011.29999999702},{"stimulus":"imagen_juego_interferencia.jpg","time":23501.19999998808},{"stimulus":"imagen_juego_interferencia.jpg","time":24000.79999999702},{"stimulus":"imagen_juego_interferencia.jpg","time":24501.19999998808},{"stimulus":"imagen_juego_interferencia.jpg","time":25001.09999999404}],"response":[],"trial_type":"animation","trial_index":74,"time_elapsed":2013291,"internal_node_id":"0.0-13.0"},{"rt":7900.79999999702,"responses":"{\"pregunta interferencia4\":\"contador\"}","question_order":"[0]","trial_type":"survey-multi-choice-cuest","trial_index":75,"time_elapsed":2021194,"internal_node_id":"0.0-14.0-0.0"},{"rt":4086.2000000029802,"responses":"{\"pregunta interferencia2\":\"saltamontes\"}","question_order":"[0]","trial_type":"survey-multi-choice-cuest","trial_index":76,"time_elapsed":2025281,"internal_node_id":"0.0-14.0-1.0"},{"rt":4974.9000000059605,"responses":"{\"pregunta interferencia3\":\"aluminio\"}","question_order":"[0]","trial_type":"survey-multi-choice-cuest","trial_index":77,"time_elapsed":2030257,"internal_node_id":"0.0-14.0-2.0"},{"rt":3551.5,"responses":"{\"pregunta interferencia1\":\"naranja\"}","question_order":"[0]","trial_type":"survey-multi-choice-cuest","trial_index":78,"time_elapsed":2033810,"internal_node_id":"0.0-14.0-3.0"},{"success":true,"trial_type":"fullscreen","trial_index":79,"time_elapsed":2034816,"internal_node_id":"0.0-15.0"},{"rt":32391.10000000894,"responses":"{\"Telefono\":\"+56930630110\"}","trial_type":"survey-text","trial_index":80,"time_elapsed":2067214,"internal_node_id":"0.0-16.0"}]