[{"rt":269632.7000000477,"stimulus":"<h1 style=\"color:red; margin-top: 3%;\">¡Bienvenido(a)!</h1><p style=\"text-align:left; justify-content:space-between; margin-right: 5%; margin-left: 5%; margin-top: 5%\"> Antes de empezar el estudio, necesitamos que nos confirmes que estás de acuerdo con participar. Recuerda que tu participación es 100% voluntaria y que lo único que te pedimos es responder lo mejor que puedas. Recuerda también que el estudio incluye:</p><ol style=\"text-align:left; justify-content:space-between; margin-right: 5%; margin-left: 5%;\"><li> un ejercicio de resolución de preguntas de selección múltiple (30’),</li><li>un cuestionario breve (5’),</li><li>un juego muy breve (3’),</li></ol><p style=\"text-align:left; justify-content:space-between; margin-right: 5%; margin-left: 5%;\">Si quieres participar, haz clic en “Acepto” luego de leer lo siguiente:<br></p><p style=\"text-align:left; justify-content:space-between; margin-right: 5%; margin-left: 5%;\">Acepto participar en el estudio “Estrategias de lectura y resolución de preguntas de selección múltiple”, en los términos aquí señalados:<br></p><p style=\"text-align:left; justify-content:space-between; margin-right: 5%; margin-left: 5%;\"><a href=\"http://ciae.uchile.cl/download.php?file=noticias/Asentimiento.pdf\" target=\"_blank\">Link a la hoja de información del Consentimiento.</a></p><p style=\"text-align:left; justify-content:space-between; margin-right: 5%; margin-left: 5%;\">Declaro que he leído (o se me ha leído) y (he) comprendido, las condiciones de mi participación en este estudio. He tenido la oportunidad de hacer preguntas y éstas han sido respondidas. No tengo dudas al respecto.</p>","response":0,"condicion_MCQ":3,"condicion_JUEGO":3,"condicion_INTER":3,"numero_participante":51,"numero_version":2,"dimx":1600,"dimy":900,"color_profundidad":24,"pixel_profundidad":24,"Browser":"Google Chrome","dia":6,"mes":5,"hora":0,"minuto":50,"segundo":14,"trial_type":"html-button-response","trial_index":0,"time_elapsed":269637,"internal_node_id":"0.0-0.0"},{"success":true,"trial_type":"fullscreen","trial_index":1,"time_elapsed":271875,"internal_node_id":"0.0-1.0"},{"rt":61637,"responses":"{\"Nombres\":\"Joaquin Andree\",\"Apellidos\":\"Quijada Otaiza \",\"Edad\":\"18\",\"Sexo\":\"hombre \",\"Curso\":\"218 \",\"Colegio\":\"universidad Andrés Bello \",\"Contacto\":\"joacolitoquijada@gmail.com\"}","trial_type":"survey-text","trial_index":2,"time_elapsed":333523,"internal_node_id":"0.0-2.0"},{"success":true,"timeout":false,"failed_images":[],"failed_audio":[],"failed_video":[],"trial_type":"preload","trial_index":3,"time_elapsed":334047,"internal_node_id":"0.0-3.0"},{"rt":15618.200000047684,"stimulus":"<h1 style:\"margin-top: 5%;\">Ejercicios de Comprensión de Lectura de la Universidad de Chile</h1><p style=\"font-size: 120%;\">En esta actividad, debes responder 24 preguntas de selección múltiple. Cada pregunta presenta 4 respuestas alternativas, pero sólo una de ellas es correcta. Por lo tanto, debes escoger una sola alternativa para cada pregunta. Además, debes reportar qué tan seguro(a) estás de la respuesta que das, con un:</p><ol style=\"font-size: 120%;text-align:left;margin-left: 40%;\"><li>No estoy seguro(a) para nada</li><li>No estoy muy seguro(a)</li><li>Estoy bastante seguro(a)</li><li>Estoy totalmente seguro(a)</li></ol><p style=\"font-size: 120%;\">Por favor lee bien los enunciados antes de responder. ¡Éxito!</p>","response":0,"trial_type":"html-button-response","trial_index":4,"time_elapsed":349666,"internal_node_id":"0.0-4.0"},{"rt":133453.60000002384,"responses":"{\"pregunta17\":\"d) Al orden de la productora para no turistear por el país.\"}","question_order":"[0]","trial_type":"survey-multi-choice","trial_index":5,"time_elapsed":483122,"internal_node_id":"0.0-5.0-0.0"},{"rt":6251.399999976158,"response":{"pregunta17 likert":1},"question_order":[0],"trial_type":"survey-likert","trial_index":6,"time_elapsed":489379,"internal_node_id":"0.0-5.0-1.0"},{"rt":84330.29999995232,"responses":"{\"pregunta15\":\"b) el uranio es el elemento natural con el mayor número de protones en el núcleo.\"}","question_order":"[0]","trial_type":"survey-multi-choice","trial_index":7,"time_elapsed":573713,"internal_node_id":"0.0-5.0-2.0"},{"rt":3420,"response":{"pregunta15 likert":2},"question_order":[0],"trial_type":"survey-likert","trial_index":8,"time_elapsed":577138,"internal_node_id":"0.0-5.0-3.0"},{"rt":83498.60000002384,"responses":"{\"pregunta4\":\"d) En la literatura como en la vida, todo es metáfora.\"}","question_order":"[0]","trial_type":"survey-multi-choice","trial_index":9,"time_elapsed":660641,"internal_node_id":"0.0-5.0-4.0"},{"rt":1355.1000000238419,"response":{"pregunta4 likert":2},"question_order":[0],"trial_type":"survey-likert","trial_index":10,"time_elapsed":662000,"internal_node_id":"0.0-5.0-5.0"},{"rt":86771.69999992847,"responses":"{\"pregunta8\":\"d) El ser humano se comporta de acuerdo con las circunstancias.\"}","question_order":"[0]","trial_type":"survey-multi-choice","trial_index":11,"time_elapsed":748776,"internal_node_id":"0.0-5.0-6.0"},{"rt":3434.2000000476837,"response":{"pregunta8 likert":0},"question_order":[0],"trial_type":"survey-likert","trial_index":12,"time_elapsed":752216,"internal_node_id":"0.0-5.0-7.0"},{"rt":63794.800000071526,"responses":"{\"pregunta24\":\"a) para el mexicano, la muerte es cotidiana.\"}","question_order":"[0]","trial_type":"survey-multi-choice","trial_index":13,"time_elapsed":816016,"internal_node_id":"0.0-5.0-8.0"},{"rt":1899.8999999761581,"response":{"pregunta24 likert":1},"question_order":[0],"trial_type":"survey-likert","trial_index":14,"time_elapsed":817920,"internal_node_id":"0.0-5.0-9.0"},{"rt":45211.39999997616,"responses":"{\"pregunta13\":\"d) A la inutilidad de tanto esfuerzo si el objetivo es el reposo.\"}","question_order":"[0]","trial_type":"survey-multi-choice","trial_index":15,"time_elapsed":863135,"internal_node_id":"0.0-5.0-10.0"},{"rt":1075.6000000238419,"response":{"pregunta13 likert":1},"question_order":[0],"trial_type":"survey-likert","trial_index":16,"time_elapsed":864215,"internal_node_id":"0.0-5.0-11.0"},{"rt":75171.30000007153,"responses":"{\"pregunta7\":\"c) se da como existente, y sólo se discute su relación con el cuerpo.\"}","question_order":"[0]","trial_type":"survey-multi-choice","trial_index":17,"time_elapsed":939390,"internal_node_id":"0.0-5.0-12.0"},{"rt":3347.899999976158,"response":{"pregunta7 likert":1},"question_order":[0],"trial_type":"survey-likert","trial_index":18,"time_elapsed":942742,"internal_node_id":"0.0-5.0-13.0"},{"rt":116427.39999997616,"responses":"{\"pregunta9\":\"d) preparar los recuerdos del mañana.\"}","question_order":"[0]","trial_type":"survey-multi-choice","trial_index":19,"time_elapsed":1059174,"internal_node_id":"0.0-5.0-14.0"},{"rt":1131.3000000715256,"response":{"pregunta9 likert":2},"question_order":[0],"trial_type":"survey-likert","trial_index":20,"time_elapsed":1060310,"internal_node_id":"0.0-5.0-15.0"},{"rt":89386.60000002384,"responses":"{\"pregunta6\":\"c) Promover la asistencia a un evento específico de decoración a través de una atractiva descripción.\"}","question_order":"[0]","trial_type":"survey-multi-choice","trial_index":21,"time_elapsed":1149701,"internal_node_id":"0.0-5.0-16.0"},{"rt":1707.8000000715256,"response":{"pregunta6 likert":2},"question_order":[0],"trial_type":"survey-likert","trial_index":22,"time_elapsed":1151413,"internal_node_id":"0.0-5.0-17.0"},{"rt":68619,"responses":"{\"pregunta10\":\"d) ritualistas y obsesivos.\"}","question_order":"[0]","trial_type":"survey-multi-choice","trial_index":23,"time_elapsed":1220036,"internal_node_id":"0.0-5.0-18.0"},{"rt":1468.5,"response":{"pregunta10 likert":2},"question_order":[0],"trial_type":"survey-likert","trial_index":24,"time_elapsed":1221509,"internal_node_id":"0.0-5.0-19.0"},{"rt":27755.299999952316,"responses":"{\"pregunta16\":\"d) Por el riesgo que corren diariamente, los bomberos deberían tener mejores condiciones de seguridad.\"}","question_order":"[0]","trial_type":"survey-multi-choice","trial_index":25,"time_elapsed":1249268,"internal_node_id":"0.0-5.0-20.0"},{"rt":1083.8999999761581,"response":{"pregunta16 likert":2},"question_order":[0],"trial_type":"survey-likert","trial_index":26,"time_elapsed":1250357,"internal_node_id":"0.0-5.0-21.0"},{"rt":102874.60000002384,"responses":"{\"pregunta20\":\"d) para Aristóteles la virtud estaba en el justo equilibrio.\"}","question_order":"[0]","trial_type":"survey-multi-choice","trial_index":27,"time_elapsed":1353236,"internal_node_id":"0.0-5.0-22.0"},{"rt":1508,"response":{"pregunta20 likert":2},"question_order":[0],"trial_type":"survey-likert","trial_index":28,"time_elapsed":1354748,"internal_node_id":"0.0-5.0-23.0"},{"rt":64987,"responses":"{\"pregunta12\":\"c) Atraer a los turistas.\"}","question_order":"[0]","trial_type":"survey-multi-choice","trial_index":29,"time_elapsed":1419739,"internal_node_id":"0.0-5.0-24.0"},{"rt":954.1000000238419,"response":{"pregunta12 likert":2},"question_order":[0],"trial_type":"survey-likert","trial_index":30,"time_elapsed":1420699,"internal_node_id":"0.0-5.0-25.0"},{"rt":63131.59999990463,"responses":"{\"pregunta3\":\"c) El inicio de la dinastía Chang.\"}","question_order":"[0]","trial_type":"survey-multi-choice","trial_index":31,"time_elapsed":1483835,"internal_node_id":"0.0-5.0-26.0"},{"rt":1387.3999999761581,"response":{"pregunta3 likert":1},"question_order":[0],"trial_type":"survey-likert","trial_index":32,"time_elapsed":1485227,"internal_node_id":"0.0-5.0-27.0"},{"rt":111650.19999992847,"responses":"{\"pregunta2\":\"a) A la relación entre sociedad y constitución social.\"}","question_order":"[0]","trial_type":"survey-multi-choice","trial_index":33,"time_elapsed":1596882,"internal_node_id":"0.0-5.0-28.0"},{"rt":1266.8999999761581,"response":{"pregunta2 likert":1},"question_order":[0],"trial_type":"survey-likert","trial_index":34,"time_elapsed":1598154,"internal_node_id":"0.0-5.0-29.0"},{"rt":39571.39999997616,"responses":"{\"pregunta21\":\"b) El TLC causará una completa transformación de la economía chilena.\"}","question_order":"[0]","trial_type":"survey-multi-choice","trial_index":35,"time_elapsed":1637730,"internal_node_id":"0.0-5.0-30.0"},{"rt":1179.2000000476837,"response":{"pregunta21 likert":2},"question_order":[0],"trial_type":"survey-likert","trial_index":36,"time_elapsed":1638913,"internal_node_id":"0.0-5.0-31.0"},{"rt":80011.89999997616,"responses":"{\"pregunta14\":\"d) sólo las leyes bastan para gobernarse.\"}","question_order":"[0]","trial_type":"survey-multi-choice","trial_index":37,"time_elapsed":1718930,"internal_node_id":"0.0-5.0-32.0"},{"rt":1202.7999999523163,"response":{"pregunta14 likert":1},"question_order":[0],"trial_type":"survey-likert","trial_index":38,"time_elapsed":1720137,"internal_node_id":"0.0-5.0-33.0"},{"rt":39010.39999997616,"responses":"{\"pregunta22\":\"d) Se necesita un marco legal para delimitar lo público y lo privado en materia informativa.\"}","question_order":"[0]","trial_type":"survey-multi-choice","trial_index":39,"time_elapsed":1759153,"internal_node_id":"0.0-5.0-34.0"},{"rt":2603.600000023842,"response":{"pregunta22 likert":1},"question_order":[0],"trial_type":"survey-likert","trial_index":40,"time_elapsed":1761762,"internal_node_id":"0.0-5.0-35.0"},{"rt":101842.19999992847,"responses":"{\"pregunta19\":\"c) sufren dolores de espalda.\"}","question_order":"[0]","trial_type":"survey-multi-choice","trial_index":41,"time_elapsed":1863607,"internal_node_id":"0.0-5.0-36.0"},{"rt":1107.6999999284744,"response":{"pregunta19 likert":0},"question_order":[0],"trial_type":"survey-likert","trial_index":42,"time_elapsed":1864719,"internal_node_id":"0.0-5.0-37.0"},{"rt":72915.30000007153,"responses":"{\"pregunta11\":\"a) Provocar el deseo de la adquisición vertiginosa.\"}","question_order":"[0]","trial_type":"survey-multi-choice","trial_index":43,"time_elapsed":1937639,"internal_node_id":"0.0-5.0-38.0"},{"rt":1483.3999999761581,"response":{"pregunta11 likert":1},"question_order":[0],"trial_type":"survey-likert","trial_index":44,"time_elapsed":1939127,"internal_node_id":"0.0-5.0-39.0"},{"rt":50115.300000071526,"responses":"{\"pregunta1\":\"a) Aportan informaciones con las que se reconstruye el personaje dentro de un relato.\"}","question_order":"[0]","trial_type":"survey-multi-choice","trial_index":45,"time_elapsed":1989247,"internal_node_id":"0.0-5.0-40.0"},{"rt":3275,"response":{"pregunta1 likert":1},"question_order":[0],"trial_type":"survey-likert","trial_index":46,"time_elapsed":1992528,"internal_node_id":"0.0-5.0-41.0"},{"rt":122017.80000007153,"responses":"{\"pregunta18\":\"c) El receptor es habitualmente pasivo frente a la publicidad.\"}","question_order":"[0]","trial_type":"survey-multi-choice","trial_index":47,"time_elapsed":2114551,"internal_node_id":"0.0-5.0-42.0"},{"rt":1859.3000000715256,"response":{"pregunta18 likert":1},"question_order":[0],"trial_type":"survey-likert","trial_index":48,"time_elapsed":2116415,"internal_node_id":"0.0-5.0-43.0"},{"rt":93922,"responses":"{\"pregunta23\":\"a) el jardinero estará muerto al día siguiente.\"}","question_order":"[0]","trial_type":"survey-multi-choice","trial_index":49,"time_elapsed":2210342,"internal_node_id":"0.0-5.0-44.0"},{"rt":2970.6999999284744,"response":{"pregunta23 likert":1},"question_order":[0],"trial_type":"survey-likert","trial_index":50,"time_elapsed":2213317,"internal_node_id":"0.0-5.0-45.0"},{"rt":85954.89999997616,"responses":"{\"pregunta5\":\"c) Los momentos triviales de los viajes, en la escritura se vuelven significativos.\"}","question_order":"[0]","trial_type":"survey-multi-choice","trial_index":51,"time_elapsed":2299277,"internal_node_id":"0.0-5.0-46.0"},{"rt":1699.7999999523163,"response":{"pregunta5 likert":1},"question_order":[0],"trial_type":"survey-likert","trial_index":52,"time_elapsed":2300981,"internal_node_id":"0.0-5.0-47.0"}]