[{"rt":25468.925000001036,"stimulus":"<h1 style=\"color:red; margin-top: 3%;\">¡Bienvenido(a)!</h1><p style=\"text-align:left; justify-content:space-between; margin-right: 5%; margin-left: 5%; margin-top: 5%\"> Antes de empezar el estudio, necesitamos que nos confirmes que estás de acuerdo con participar. Recuerda que tu participación es 100% voluntaria y que lo único que te pedimos es responder lo mejor que puedas. Recuerda también que el estudio incluye:</p><ol style=\"text-align:left; justify-content:space-between; margin-right: 5%; margin-left: 5%;\"><li> un ejercicio de resolución de preguntas de selección múltiple (30’),</li><li>un cuestionario breve (5’),</li><li>un juego muy breve (3’),</li></ol><p style=\"text-align:left; justify-content:space-between; margin-right: 5%; margin-left: 5%;\">Si quieres participar, haz clic en “Acepto” luego de leer lo siguiente:<br></p><p style=\"text-align:left; justify-content:space-between; margin-right: 5%; margin-left: 5%;\">Acepto participar en el estudio “Estrategias de lectura y resolución de preguntas de selección múltiple”, en los términos aquí señalados:<br></p><p style=\"text-align:left; justify-content:space-between; margin-right: 5%; margin-left: 5%;\"><a href=\"http://ciae.uchile.cl/download.php?file=noticias/Asentimiento.pdf\" target=\"_blank\">Link a la hoja de información del Consentimiento.</a></p><p style=\"text-align:left; justify-content:space-between; margin-right: 5%; margin-left: 5%;\">Declaro que he leído (o se me ha leído) y (he) comprendido, las condiciones de mi participación en este estudio. He tenido la oportunidad de hacer preguntas y éstas han sido respondidas. No tengo dudas al respecto.</p>","response":0,"condicion_MCQ":2,"condicion_JUEGO":2,"condicion_INTER":2,"numero_participante":2,"numero_version":2,"dimx":1366,"dimy":768,"color_profundidad":24,"pixel_profundidad":24,"Browser":"Google Chrome","dia":2,"mes":5,"hora":18,"minuto":6,"segundo":40,"trial_type":"html-button-response","trial_index":0,"time_elapsed":25589,"internal_node_id":"0.0-0.0"},{"success":true,"trial_type":"fullscreen","trial_index":1,"time_elapsed":39485,"internal_node_id":"0.0-1.0"},{"rt":112579.33499999854,"responses":"{\"Nombres\":\"Emilia Jose\",\"Apellidos\":\"Concha Goles\",\"Edad\":\"19\",\"Sexo\":\"mujer\",\"Curso\":\"seccion 205\",\"Colegio\":\"UNAB\",\"Contacto\":\"e.conchagoles@uandresbello.edu\"}","trial_type":"survey-text","trial_index":2,"time_elapsed":152112,"internal_node_id":"0.0-2.0"},{"success":true,"timeout":false,"failed_images":[],"failed_audio":[],"failed_video":[],"trial_type":"preload","trial_index":3,"time_elapsed":154508,"internal_node_id":"0.0-3.0"},{"rt":16961.45500000057,"stimulus":"<h1 style:\"margin-top: 5%;\">Ejercicios de Comprensión de Lectura de la Universidad de Chile</h1><p style=\"font-size: 120%;\">En esta actividad, debes responder 24 preguntas de selección múltiple. Cada pregunta presenta 4 respuestas alternativas, pero sólo una de ellas es correcta. Por lo tanto, debes escoger una sola alternativa para cada pregunta. Además, debes reportar qué tan seguro(a) estás de la respuesta que das, con un:</p><ol style=\"font-size: 120%;text-align:left;margin-left: 40%;\"><li>No estoy seguro(a) para nada</li><li>No estoy muy seguro(a)</li><li>Estoy bastante seguro(a)</li><li>Estoy totalmente seguro(a)</li></ol><p style=\"font-size: 120%;\">Por favor lee bien los enunciados antes de responder. ¡Éxito!</p>","response":0,"trial_type":"html-button-response","trial_index":4,"time_elapsed":171471,"internal_node_id":"0.0-4.0"},{"rt":32160.084999999526,"responses":"{\"pregunta24\":\"b) la muerte es distinta en las grandes ciudades.\"}","question_order":"[0]","trial_type":"survey-multi-choice","trial_index":5,"time_elapsed":203634,"internal_node_id":"0.0-5.0-0.0"},{"rt":3157.13500000129,"response":{"pregunta24 likert":2},"question_order":[0],"trial_type":"survey-likert","trial_index":6,"time_elapsed":206794,"internal_node_id":"0.0-5.0-1.0"},{"rt":42520.80500000011,"responses":"{\"pregunta3\":\"c) El origen de las grandes civilizaciones.\"}","question_order":"[0]","trial_type":"survey-multi-choice","trial_index":7,"time_elapsed":249317,"internal_node_id":"0.0-5.0-2.0"},{"rt":3598.8149999975576,"response":{"pregunta3 likert":1},"question_order":[0],"trial_type":"survey-likert","trial_index":8,"time_elapsed":252919,"internal_node_id":"0.0-5.0-3.0"},{"rt":42467.89500000156,"responses":"{\"pregunta13\":\"a) Al premio merecido después de tantos esfuerzos.\"}","question_order":"[0]","trial_type":"survey-multi-choice","trial_index":9,"time_elapsed":295389,"internal_node_id":"0.0-5.0-4.0"},{"rt":6237.425000003015,"response":{"pregunta13 likert":1},"question_order":[0],"trial_type":"survey-likert","trial_index":10,"time_elapsed":301629,"internal_node_id":"0.0-5.0-5.0"},{"rt":49007.109999998705,"responses":"{\"pregunta10\":\"d) ritualistas y obsesivos.\"}","question_order":"[0]","trial_type":"survey-multi-choice","trial_index":11,"time_elapsed":350638,"internal_node_id":"0.0-5.0-6.0"},{"rt":3069.9300000015064,"response":{"pregunta10 likert":1},"question_order":[0],"trial_type":"survey-likert","trial_index":12,"time_elapsed":353711,"internal_node_id":"0.0-5.0-7.0"},{"rt":69663.73000000021,"responses":"{\"pregunta20\":\"d) el sujeto sufre con su modo de vida.\"}","question_order":"[0]","trial_type":"survey-multi-choice","trial_index":13,"time_elapsed":423377,"internal_node_id":"0.0-5.0-8.0"},{"rt":3702.0249999986845,"response":{"pregunta20 likert":1},"question_order":[0],"trial_type":"survey-likert","trial_index":14,"time_elapsed":427081,"internal_node_id":"0.0-5.0-9.0"},{"rt":40419.2550000007,"responses":"{\"pregunta22\":\"c) La prensa tiene derecho a meter sus narices en todos lados.\"}","question_order":"[0]","trial_type":"survey-multi-choice","trial_index":15,"time_elapsed":467502,"internal_node_id":"0.0-5.0-10.0"},{"rt":4301.060000001569,"response":{"pregunta22 likert":1},"question_order":[0],"trial_type":"survey-likert","trial_index":16,"time_elapsed":471805,"internal_node_id":"0.0-5.0-11.0"},{"rt":42208.71999999875,"responses":"{\"pregunta1\":\"a) Aportan informaciones con las que se reconstruye el personaje dentro de un relato.\"}","question_order":"[0]","trial_type":"survey-multi-choice","trial_index":17,"time_elapsed":514016,"internal_node_id":"0.0-5.0-12.0"},{"rt":3069.4949999997625,"response":{"pregunta1 likert":2},"question_order":[0],"trial_type":"survey-likert","trial_index":18,"time_elapsed":517088,"internal_node_id":"0.0-5.0-13.0"},{"rt":27880.700000001583,"responses":"{\"pregunta21\":\"d) Nuestra economía vivirá un proceso de ajuste a la nueva realidad.\"}","question_order":"[0]","trial_type":"survey-multi-choice","trial_index":19,"time_elapsed":544971,"internal_node_id":"0.0-5.0-14.0"},{"rt":2336.1299999996554,"response":{"pregunta21 likert":2},"question_order":[0],"trial_type":"survey-likert","trial_index":20,"time_elapsed":547309,"internal_node_id":"0.0-5.0-15.0"},{"rt":45394.580000000075,"responses":"{\"pregunta4\":\"b) En la literatura como en la vida, lo importante son las preguntas.\"}","question_order":"[0]","trial_type":"survey-multi-choice","trial_index":21,"time_elapsed":592705,"internal_node_id":"0.0-5.0-16.0"},{"rt":2523.794999997248,"response":{"pregunta4 likert":1},"question_order":[0],"trial_type":"survey-likert","trial_index":22,"time_elapsed":595231,"internal_node_id":"0.0-5.0-17.0"},{"rt":44821.820000001,"responses":"{\"pregunta9\":\"d) preparar los recuerdos del mañana.\"}","question_order":"[0]","trial_type":"survey-multi-choice","trial_index":23,"time_elapsed":640055,"internal_node_id":"0.0-5.0-18.0"},{"rt":4421.834999997402,"response":{"pregunta9 likert":2},"question_order":[0],"trial_type":"survey-likert","trial_index":24,"time_elapsed":644479,"internal_node_id":"0.0-5.0-19.0"},{"rt":26351.660000000265,"responses":"{\"pregunta2\":\"d) A la relación entre sociedad y constitución social.\"}","question_order":"[0]","trial_type":"survey-multi-choice","trial_index":25,"time_elapsed":670833,"internal_node_id":"0.0-5.0-20.0"},{"rt":3167.765000001993,"response":{"pregunta2 likert":1},"question_order":[0],"trial_type":"survey-likert","trial_index":26,"time_elapsed":674002,"internal_node_id":"0.0-5.0-21.0"},{"rt":37809.00499999907,"responses":"{\"pregunta17\":\"b) A la influencia de grupos que rechazaban su música.\"}","question_order":"[0]","trial_type":"survey-multi-choice","trial_index":27,"time_elapsed":711814,"internal_node_id":"0.0-5.0-22.0"},{"rt":3613.914999998058,"response":{"pregunta17 likert":2},"question_order":[0],"trial_type":"survey-likert","trial_index":28,"time_elapsed":715430,"internal_node_id":"0.0-5.0-23.0"},{"rt":9365.60499999905,"responses":"{\"pregunta15\":\"c) a partir de la manipulación del núcleo se han creado elementos químicos naturales.\"}","question_order":"[0]","trial_type":"survey-multi-choice","trial_index":29,"time_elapsed":724797,"internal_node_id":"0.0-5.0-24.0"},{"rt":4947.024999997695,"response":{"pregunta15 likert":1},"question_order":[0],"trial_type":"survey-likert","trial_index":30,"time_elapsed":729746,"internal_node_id":"0.0-5.0-25.0"},{"rt":34155.94499999855,"responses":"{\"pregunta6\":\"a) Presentar positivamente las diversas tendencias del diseño de interiores a través de un comentario.\"}","question_order":"[0]","trial_type":"survey-multi-choice","trial_index":31,"time_elapsed":763904,"internal_node_id":"0.0-5.0-26.0"},{"rt":3645.3900000015274,"response":{"pregunta6 likert":2},"question_order":[0],"trial_type":"survey-likert","trial_index":32,"time_elapsed":767553,"internal_node_id":"0.0-5.0-27.0"},{"rt":28068.875000000815,"responses":"{\"pregunta12\":\"b) Atraer a los turistas.\"}","question_order":"[0]","trial_type":"survey-multi-choice","trial_index":33,"time_elapsed":795625,"internal_node_id":"0.0-5.0-28.0"},{"rt":3243.9900000026682,"response":{"pregunta12 likert":2},"question_order":[0],"trial_type":"survey-likert","trial_index":34,"time_elapsed":798871,"internal_node_id":"0.0-5.0-29.0"},{"rt":39757.310000000754,"responses":"{\"pregunta7\":\"c) se da como existente, y sólo se discute su relación con el cuerpo.\"}","question_order":"[0]","trial_type":"survey-multi-choice","trial_index":35,"time_elapsed":838631,"internal_node_id":"0.0-5.0-30.0"},{"rt":5976.360000000568,"response":{"pregunta7 likert":2},"question_order":[0],"trial_type":"survey-likert","trial_index":36,"time_elapsed":844609,"internal_node_id":"0.0-5.0-31.0"},{"rt":69244.42999999889,"responses":"{\"pregunta11\":\"c) Deleitar a sus receptores por medio de la belleza y el confort\"}","question_order":"[0]","trial_type":"survey-multi-choice","trial_index":37,"time_elapsed":913857,"internal_node_id":"0.0-5.0-32.0"},{"rt":5844.004999998957,"response":{"pregunta11 likert":2},"question_order":[0],"trial_type":"survey-likert","trial_index":38,"time_elapsed":919703,"internal_node_id":"0.0-5.0-33.0"},{"rt":18346.815000000875,"responses":"{\"pregunta8\":\"b) Lo que es normal en un asilo es anormal en un campo de concentración.\"}","question_order":"[0]","trial_type":"survey-multi-choice","trial_index":39,"time_elapsed":938052,"internal_node_id":"0.0-5.0-34.0"},{"rt":2306.465000001481,"response":{"pregunta8 likert":1},"question_order":[0],"trial_type":"survey-likert","trial_index":40,"time_elapsed":940361,"internal_node_id":"0.0-5.0-35.0"},{"rt":2833.3199999978533,"responses":"{\"pregunta18\":\"c) El receptor es habitualmente pasivo frente a la publicidad.\"}","question_order":"[0]","trial_type":"survey-multi-choice","trial_index":41,"time_elapsed":943196,"internal_node_id":"0.0-5.0-36.0"},{"rt":3838.210000001709,"response":{"pregunta18 likert":1},"question_order":[0],"trial_type":"survey-likert","trial_index":42,"time_elapsed":947037,"internal_node_id":"0.0-5.0-37.0"},{"rt":30372.019999998854,"responses":"{\"pregunta5\":\"d) La escritura plasma los mejores momentos de los viajes.\"}","question_order":"[0]","trial_type":"survey-multi-choice","trial_index":43,"time_elapsed":977411,"internal_node_id":"0.0-5.0-38.0"},{"rt":3995.2200000006706,"response":{"pregunta5 likert":1},"question_order":[0],"trial_type":"survey-likert","trial_index":44,"time_elapsed":981408,"internal_node_id":"0.0-5.0-39.0"},{"rt":56552.81500000274,"responses":"{\"pregunta23\":\"d) el jardinero estará muerto al día siguiente.\"}","question_order":"[0]","trial_type":"survey-multi-choice","trial_index":45,"time_elapsed":1037963,"internal_node_id":"0.0-5.0-40.0"},{"rt":2894.230000001611,"response":{"pregunta23 likert":2},"question_order":[0],"trial_type":"survey-likert","trial_index":46,"time_elapsed":1040860,"internal_node_id":"0.0-5.0-41.0"},{"rt":40145.26000000106,"responses":"{\"pregunta19\":\"c) sufren dolores de espalda.\"}","question_order":"[0]","trial_type":"survey-multi-choice","trial_index":47,"time_elapsed":1081007,"internal_node_id":"0.0-5.0-42.0"},{"rt":3394.624999997206,"response":{"pregunta19 likert":1},"question_order":[0],"trial_type":"survey-likert","trial_index":48,"time_elapsed":1084404,"internal_node_id":"0.0-5.0-43.0"},{"rt":17077.1800000004,"responses":"{\"pregunta16\":\"b) Bomberos debería tener acceso a un seguro médico, al que pueda recurrir en caso de accidente.\"}","question_order":"[0]","trial_type":"survey-multi-choice","trial_index":49,"time_elapsed":1101483,"internal_node_id":"0.0-5.0-44.0"},{"rt":2468.66500000027,"response":{"pregunta16 likert":1},"question_order":[0],"trial_type":"survey-likert","trial_index":50,"time_elapsed":1103954,"internal_node_id":"0.0-5.0-45.0"},{"rt":50385.13000000245,"responses":"{\"pregunta14\":\"a) el mejor emperador es el que está muerto.\"}","question_order":"[0]","trial_type":"survey-multi-choice","trial_index":51,"time_elapsed":1154342,"internal_node_id":"0.0-5.0-46.0"},{"rt":2710.5400000000373,"response":{"pregunta14 likert":2},"question_order":[0],"trial_type":"survey-likert","trial_index":52,"time_elapsed":1157054,"internal_node_id":"0.0-5.0-47.0"},{"rt":1847.4399999978486,"stimulus":"<p style=\"font-size: 120%\">Gracias por completar esta etapa del estudio. Ahora te invitamos a responder el cuestionario.<br><br></p>","response":0,"trial_type":"html-button-response","trial_index":53,"time_elapsed":1158907,"internal_node_id":"0.0-6.0"},{"rt":23373.480000001844,"stimulus":"<h1 style=\"margin-top: 5%\">Cuestionario para la Evaluación de Metas Académicas</h1><p style=\"font-size: 120%; margin-left: 3%; margin-top: 5%\">Este es un cuestionario que permite conocer cuáles son los principales motivos por los que los estudiantes se esfuerzan en su trabajo académico. A continuación, se te presentarán una serie de afirmaciones acerca de los motivos que puedes tener para estudiar.<br>Te pedimos que contestes a dichas afirmaciones reflexionando sobre el contenido de cada una de ellas, que, aunque te parezcan semejantes, en realidad, no lo son.<br>NO HAY RESPUESTAS CORRECTAS o INCORRECTAS, sólo queremos que respondas con la mayor precisión y sinceridad posible a las preguntas que se plantean.","response":0,"trial_type":"html-button-response","trial_index":54,"time_elapsed":1182283,"internal_node_id":"0.0-7.0"},{"rt":191112.5849999988,"response":{"Metas cuestionario pregunta1":2,"Metas cuestionario pregunta2":1,"Metas cuestionario pregunta3":4,"Metas cuestionario pregunta4":3,"Metas cuestionario pregunta5":2,"Metas cuestionario pregunta6":2,"Metas cuestionario pregunta7":3,"Metas cuestionario pregunta8":2,"Metas cuestionario pregunta9":0,"Metas cuestionario pregunta10":0,"Metas cuestionario pregunta11":0,"Metas cuestionario pregunta12":0,"Metas cuestionario pregunta13":0,"Metas cuestionario pregunta14":0,"Metas cuestionario pregunta15":4,"Metas cuestionario pregunta16":2,"Metas cuestionario pregunta17":4,"Metas cuestionario pregunta18":4,"Metas cuestionario pregunta19":4,"Metas cuestionario pregunta20":2},"question_order":[0,1,2,3,4,5,6,7,8,9,10,11,12,13,14,15,16,17,18,19],"trial_type":"survey-likert","trial_index":55,"time_elapsed":1373406,"internal_node_id":"0.0-8.0"},{"rt":2579.68999999878,"stimulus":"<p style=\"font-size: 120%\">Gracias por responder el cuestionario. Ahora te invitamos a seguir con el juego, que es muy breve.<br><br></p>","response":0,"trial_type":"html-button-response","trial_index":56,"time_elapsed":1375991,"internal_node_id":"0.0-9.0"},{"rt":10746.31500000041,"stimulus":"<h1>Juego</h1><p style=\"font-size: 120%;\">A continuación se te presentarán 16 pequeñas historias.<br>Por favor lee el texto presentado en cada una de ellas y luego haz click en el objeto de tu elección.<br>Si estás listo(a),<span style=\"color:red;\"> haz click en \"comenzar\"</span>.</p>","response":0,"trial_type":"html-button-response","trial_index":57,"time_elapsed":1386739,"internal_node_id":"0.0-10.0"},{"rt":12645.010000000242,"grid":[[1,1,1,1]],"target":[0,0],"response":[0,2],"correct":false,"juego":11,"trial_type":"serial-reaction-time-mouse","trial_index":58,"time_elapsed":1399386,"internal_node_id":"0.0-11.0-0.0"},{"rt":12382.81000000285,"grid":[[1,1,1,1]],"target":[0,0],"response":[0,0],"correct":true,"juego":9,"trial_type":"serial-reaction-time-mouse","trial_index":59,"time_elapsed":1411771,"internal_node_id":"0.0-11.0-1.0"},{"rt":5853.230000000447,"grid":[[1,1,1],[1,1,1],[1,1,1],[1,1,1],[1,1,1],[1,1,1],[1,1,1],[1,1,1],[1,1,1]],"target":[0,0],"response":[1,1],"correct":false,"juego":6,"trial_type":"serial-reaction-time-mouse","trial_index":60,"time_elapsed":1417631,"internal_node_id":"0.0-11.0-2.0"},{"rt":25879.66500000027,"grid":[[1,1,1,1]],"target":[0,0],"response":[0,1],"correct":false,"juego":3,"trial_type":"serial-reaction-time-mouse","trial_index":61,"time_elapsed":1443514,"internal_node_id":"0.0-11.0-3.0"},{"rt":9177.919999998296,"grid":[[1,1,1,1]],"target":[0,0],"response":[0,3],"correct":false,"juego":12,"trial_type":"serial-reaction-time-mouse","trial_index":62,"time_elapsed":1452695,"internal_node_id":"0.0-11.0-4.0"},{"rt":9553.765000000596,"grid":[[1,1,1],[1,1,1],[1,1,1],[1,1,1],[1,1,1],[1,1,1],[1,1,1],[1,1,1],[1,1,1]],"target":[0,0],"response":[3,1],"correct":false,"juego":5,"trial_type":"serial-reaction-time-mouse","trial_index":63,"time_elapsed":1462255,"internal_node_id":"0.0-11.0-5.0"},{"rt":4187.33000000054,"grid":[[1],[1],[1],[1]],"target":[0,0],"response":[2,0],"correct":false,"juego":4,"trial_type":"serial-reaction-time-mouse","trial_index":64,"time_elapsed":1466443,"internal_node_id":"0.0-11.0-6.0"},{"rt":7702.88000000082,"grid":[[1,1,1,1]],"target":[0,0],"response":[0,2],"correct":false,"juego":8,"trial_type":"serial-reaction-time-mouse","trial_index":65,"time_elapsed":1474148,"internal_node_id":"0.0-11.0-7.0"},{"rt":12546.80000000028,"grid":[[1,1,1],[1,1,1],[1,1,1],[1,1,1],[1,1,1],[1,1,1],[1,1,1],[1,1,1],[1,1,1]],"target":[0,0],"response":[3,0],"correct":false,"juego":10,"trial_type":"serial-reaction-time-mouse","trial_index":66,"time_elapsed":1486701,"internal_node_id":"0.0-11.0-8.0"},{"rt":11775.144999999553,"grid":[[1,1,1,1],[1,1,1,1],[1,1,1,1],[1,1,1,1],[1,1,1,1],[1,1,1,1],[1,1,1,1],[1,1,1,1],[1,1,1,1]],"target":[0,0],"response":[7,2],"correct":false,"juego":15,"trial_type":"serial-reaction-time-mouse","trial_index":67,"time_elapsed":1498483,"internal_node_id":"0.0-11.0-9.0"},{"rt":9748.869999999413,"grid":[[1,1,1,1],[1,1,1,1],[1,1,1,1],[1,1,1,1],[1,1,1,1],[1,1,1,1],[1,1,1,1],[1,1,1,1],[1,1,1,1]],"target":[0,0],"response":[5,2],"correct":false,"juego":14,"trial_type":"serial-reaction-time-mouse","trial_index":68,"time_elapsed":1508239,"internal_node_id":"0.0-11.0-10.0"},{"rt":10961.914999999804,"grid":[[1,1,1],[1,1,1],[1,1,1],[1,1,1],[1,1,1],[1,1,1],[1,1,1],[1,1,1],[1,1,1]],"target":[0,0],"response":[3,1],"correct":false,"juego":13,"trial_type":"serial-reaction-time-mouse","trial_index":69,"time_elapsed":1519206,"internal_node_id":"0.0-11.0-11.0"},{"rt":3108.7550000010524,"grid":[[1,1,1,1]],"target":[0,0],"response":[0,1],"correct":false,"juego":7,"trial_type":"serial-reaction-time-mouse","trial_index":70,"time_elapsed":1522316,"internal_node_id":"0.0-11.0-12.0"},{"rt":2492.7949999982957,"grid":[[1,1,1,1]],"target":[0,0],"response":[0,3],"correct":false,"juego":1,"trial_type":"serial-reaction-time-mouse","trial_index":71,"time_elapsed":1524812,"internal_node_id":"0.0-11.0-13.0"},{"rt":2439.869999998249,"grid":[[1,1,1,1]],"target":[0,0],"response":[0,2],"correct":false,"juego":2,"trial_type":"serial-reaction-time-mouse","trial_index":72,"time_elapsed":1527255,"internal_node_id":"0.0-11.0-14.0"},{"rt":4987.565000002971,"stimulus":"<h1>Último juego</h1><p style=\"font-size: 130%;\">Tienes <span style=\"color:red\">25</span> segundos para recordar los pares de palabras que aparecerán a continuación. <br></p>","response":0,"trial_type":"html-button-response","trial_index":73,"time_elapsed":1532249,"internal_node_id":"0.0-12.0"},{"animation_sequence":[{"stimulus":"imagen_juego_interferencia.jpg","time":533.3800000008196},{"stimulus":"imagen_juego_interferencia.jpg","time":1003.1300000010524},{"stimulus":"imagen_juego_interferencia.jpg","time":1502.6450000004843},{"stimulus":"imagen_juego_interferencia.jpg","time":2002.329999999376},{"stimulus":"imagen_juego_interferencia.jpg","time":2508.12000000244},{"stimulus":"imagen_juego_interferencia.jpg","time":3002.710000000894},{"stimulus":"imagen_juego_interferencia.jpg","time":3502.2000000027474},{"stimulus":"imagen_juego_interferencia.jpg","time":4002.0250000017695},{"stimulus":"imagen_juego_interferencia.jpg","time":4516.719999999739},{"stimulus":"imagen_juego_interferencia.jpg","time":5002.345000000903},{"stimulus":"imagen_juego_interferencia.jpg","time":5504.090000002179},{"stimulus":"imagen_juego_interferencia.jpg","time":6014.76500000013},{"stimulus":"imagen_juego_interferencia.jpg","time":6507.620000000345},{"stimulus":"imagen_juego_interferencia.jpg","time":7002.13000000082},{"stimulus":"imagen_juego_interferencia.jpg","time":7511.865000000456},{"stimulus":"imagen_juego_interferencia.jpg","time":8006.465000002412},{"stimulus":"imagen_juego_interferencia.jpg","time":8516.195000000298},{"stimulus":"imagen_juego_interferencia.jpg","time":9010.894999999553},{"stimulus":"imagen_juego_interferencia.jpg","time":9503.52500000014},{"stimulus":"imagen_juego_interferencia.jpg","time":10002.225000000326},{"stimulus":"imagen_juego_interferencia.jpg","time":10507.920000000158},{"stimulus":"imagen_juego_interferencia.jpg","time":11002.575000002282},{"stimulus":"imagen_juego_interferencia.jpg","time":11513.315000000177},{"stimulus":"imagen_juego_interferencia.jpg","time":12008.014999999665},{"stimulus":"imagen_juego_interferencia.jpg","time":12502.619999999413},{"stimulus":"imagen_juego_interferencia.jpg","time":13002.340000002878},{"stimulus":"imagen_juego_interferencia.jpg","time":13509.014999999665},{"stimulus":"imagen_juego_interferencia.jpg","time":14001.680000001332},{"stimulus":"imagen_juego_interferencia.jpg","time":14502.780000002589},{"stimulus":"imagen_juego_interferencia.jpg","time":15005.065000001341},{"stimulus":"imagen_juego_interferencia.jpg","time":15513.01000000257},{"stimulus":"imagen_juego_interferencia.jpg","time":16002.420000000857},{"stimulus":"imagen_juego_interferencia.jpg","time":16516.135000001872},{"stimulus":"imagen_juego_interferencia.jpg","time":17009.945000001695},{"stimulus":"imagen_juego_interferencia.jpg","time":17516.470000002533},{"stimulus":"imagen_juego_interferencia.jpg","time":18011.19000000111},{"stimulus":"imagen_juego_interferencia.jpg","time":18501.81499999971},{"stimulus":"imagen_juego_interferencia.jpg","time":19014.525000002468},{"stimulus":"imagen_juego_interferencia.jpg","time":19508.294999999693},{"stimulus":"imagen_juego_interferencia.jpg","time":20002.889999999898},{"stimulus":"imagen_juego_interferencia.jpg","time":20513.60000000219},{"stimulus":"imagen_juego_interferencia.jpg","time":21002.280000000726},{"stimulus":"imagen_juego_interferencia.jpg","time":21515.085000002757},{"stimulus":"imagen_juego_interferencia.jpg","time":22007.67000000272},{"stimulus":"imagen_juego_interferencia.jpg","time":22515.310000002617},{"stimulus":"imagen_juego_interferencia.jpg","time":23009.255000001052},{"stimulus":"imagen_juego_interferencia.jpg","time":23504.6500000027},{"stimulus":"imagen_juego_interferencia.jpg","time":24015.4150000019},{"stimulus":"imagen_juego_interferencia.jpg","time":24510.030000001425},{"stimulus":"imagen_juego_interferencia.jpg","time":25001.85000000056}],"response":[],"trial_type":"animation","trial_index":74,"time_elapsed":1557754,"internal_node_id":"0.0-13.0"},{"rt":14910.964999999152,"responses":"{\"pregunta interferencia3\":\"aluminio\"}","question_order":"[0]","trial_type":"survey-multi-choice-cuest","trial_index":75,"time_elapsed":1572668,"internal_node_id":"0.0-14.0-0.0"},{"rt":15277.659999999683,"responses":"{\"pregunta interferencia1\":\"naranja\"}","question_order":"[0]","trial_type":"survey-multi-choice-cuest","trial_index":76,"time_elapsed":1587948,"internal_node_id":"0.0-14.0-1.0"},{"rt":7291.399999998277,"responses":"{\"pregunta interferencia4\":\"contador\"}","question_order":"[0]","trial_type":"survey-multi-choice-cuest","trial_index":77,"time_elapsed":1595242,"internal_node_id":"0.0-14.0-2.0"},{"rt":7630.05999999959,"responses":"{\"pregunta interferencia2\":\"saltamontes\"}","question_order":"[0]","trial_type":"survey-multi-choice-cuest","trial_index":78,"time_elapsed":1602874,"internal_node_id":"0.0-14.0-3.0"},{"success":true,"trial_type":"fullscreen","trial_index":79,"time_elapsed":1603889,"internal_node_id":"0.0-15.0"},{"rt":14612.76000000001,"responses":"{\"Telefono\":\"569 83935806\"}","trial_type":"survey-text","trial_index":80,"time_elapsed":1618516,"internal_node_id":"0.0-16.0"}]