[{"rt":21879.700000047684,"stimulus":"<h1 style=\"color:red; margin-top: 3%;\">¡Bienvenido(a)!</h1><p style=\"text-align:left; justify-content:space-between; margin-right: 5%; margin-left: 5%; margin-top: 5%\"> Antes de empezar el estudio, necesitamos que nos confirmes que estás de acuerdo con participar. Recuerda que tu participación es 100% voluntaria y que lo único que te pedimos es responder lo mejor que puedas. Recuerda también que el estudio incluye:</p><ol style=\"text-align:left; justify-content:space-between; margin-right: 5%; margin-left: 5%;\"><li> un ejercicio de resolución de preguntas de selección múltiple (30’),</li><li>un cuestionario breve (5’),</li><li>un juego muy breve (3’),</li></ol><p style=\"text-align:left; justify-content:space-between; margin-right: 5%; margin-left: 5%;\">Si quieres participar, haz clic en “Acepto” luego de leer lo siguiente:<br></p><p style=\"text-align:left; justify-content:space-between; margin-right: 5%; margin-left: 5%;\">Acepto participar en el estudio “Estrategias de lectura y resolución de preguntas de selección múltiple”, en los términos aquí señalados:<br></p><p style=\"text-align:left; justify-content:space-between; margin-right: 5%; margin-left: 5%;\"><a href=\"http://ciae.uchile.cl/download.php?file=noticias/Asentimiento.pdf\" target=\"_blank\">Link a la hoja de información del Consentimiento.</a></p><p style=\"text-align:left; justify-content:space-between; margin-right: 5%; margin-left: 5%;\">Declaro que he leído (o se me ha leído) y (he) comprendido, las condiciones de mi participación en este estudio. He tenido la oportunidad de hacer preguntas y éstas han sido respondidas. No tengo dudas al respecto.</p>","response":0,"condicion_MCQ":1,"condicion_JUEGO":13,"condicion_INTER":13,"numero_participante":61,"numero_version":1,"dimx":1366,"dimy":768,"color_profundidad":24,"pixel_profundidad":24,"Browser":"Google Chrome","dia":7,"mes":5,"hora":16,"minuto":39,"segundo":47,"trial_type":"html-button-response","trial_index":0,"time_elapsed":21887,"internal_node_id":"0.0-0.0"},{"success":true,"trial_type":"fullscreen","trial_index":1,"time_elapsed":30610,"internal_node_id":"0.0-1.0"},{"rt":71069.30000001192,"responses":"{\"Nombres\":\"Pedro Pablo Agustin\",\"Apellidos\":\"Bravo Montero\",\"Edad\":\"19\",\"Sexo\":\"macho\",\"Curso\":\"seccion 204\",\"Colegio\":\"universidad andres bello\",\"Contacto\":\"pafmer2020@gmail.com\"}","trial_type":"survey-text","trial_index":2,"time_elapsed":101693,"internal_node_id":"0.0-2.0"},{"success":true,"timeout":false,"failed_images":[],"failed_audio":[],"failed_video":[],"trial_type":"preload","trial_index":3,"time_elapsed":104165,"internal_node_id":"0.0-3.0"},{"rt":17495.69999998808,"stimulus":"<h1 style:\"margin-top: 5%;\">Ejercicios de Comprensión de Lectura de la Universidad de Chile</h1><p style=\"font-size: 120%;\">En esta actividad, debes responder 24 preguntas de selección múltiple. Cada pregunta presenta 4 respuestas alternativas, pero sólo una de ellas es correcta. Por lo tanto, debes escoger una sola alternativa para cada pregunta. Además, debes reportar qué tan seguro(a) estás de la respuesta que das, con un:</p><ol style=\"font-size: 120%;text-align:left;margin-left: 40%;\"><li>No estoy seguro(a) para nada</li><li>No estoy muy seguro(a)</li><li>Estoy bastante seguro(a)</li><li>Estoy totalmente seguro(a)</li></ol><p style=\"font-size: 120%;\">Por favor lee bien los enunciados antes de responder. ¡Éxito!</p>","response":0,"trial_type":"html-button-response","trial_index":4,"time_elapsed":121663,"internal_node_id":"0.0-4.0"},{"rt":47502.89999997616,"responses":"{\"pregunta14\":\"c) la muerte de Wu Ti fue una bendición.\"}","question_order":"[0]","trial_type":"survey-multi-choice","trial_index":5,"time_elapsed":169169,"internal_node_id":"0.0-5.0-0.0"},{"rt":4916.5,"response":{"pregunta14 likert":2},"question_order":[0],"trial_type":"survey-likert","trial_index":6,"time_elapsed":174091,"internal_node_id":"0.0-5.0-1.0"},{"rt":62945.69999998808,"responses":"{\"pregunta20\":\"b) el sujeto sufre con su modo de vida.\"}","question_order":"[0]","trial_type":"survey-multi-choice","trial_index":7,"time_elapsed":237044,"internal_node_id":"0.0-5.0-2.0"},{"rt":2925.599999964237,"response":{"pregunta20 likert":1},"question_order":[0],"trial_type":"survey-likert","trial_index":8,"time_elapsed":239976,"internal_node_id":"0.0-5.0-3.0"},{"rt":44902.10000002384,"responses":"{\"pregunta21\":\"c) Nuestra economía vivirá un proceso de ajuste a la nueva realidad.\"}","question_order":"[0]","trial_type":"survey-multi-choice","trial_index":9,"time_elapsed":284884,"internal_node_id":"0.0-5.0-4.0"},{"rt":2953.800000011921,"response":{"pregunta21 likert":2},"question_order":[0],"trial_type":"survey-likert","trial_index":10,"time_elapsed":287845,"internal_node_id":"0.0-5.0-5.0"},{"rt":58153.80000001192,"responses":"{\"pregunta1\":\"a) Aportan informaciones con las que se reconstruye el personaje dentro de un relato.\"}","question_order":"[0]","trial_type":"survey-multi-choice","trial_index":11,"time_elapsed":346004,"internal_node_id":"0.0-5.0-6.0"},{"rt":2258.399999976158,"response":{"pregunta1 likert":2},"question_order":[0],"trial_type":"survey-likert","trial_index":12,"time_elapsed":348269,"internal_node_id":"0.0-5.0-7.0"},{"rt":58940.799999952316,"responses":"{\"pregunta16\":\"b) Bomberos debería tener acceso a un seguro médico, al que pueda recurrir en caso de accidente.\"}","question_order":"[0]","trial_type":"survey-multi-choice","trial_index":13,"time_elapsed":407216,"internal_node_id":"0.0-5.0-8.0"},{"rt":5375.900000035763,"response":{"pregunta16 likert":3},"question_order":[0],"trial_type":"survey-likert","trial_index":14,"time_elapsed":412599,"internal_node_id":"0.0-5.0-9.0"},{"rt":52589.10000002384,"responses":"{\"pregunta12\":\"d) Homenajear a quienes murieron.\"}","question_order":"[0]","trial_type":"survey-multi-choice","trial_index":15,"time_elapsed":465194,"internal_node_id":"0.0-5.0-10.0"},{"rt":5100.400000035763,"response":{"pregunta12 likert":3},"question_order":[0],"trial_type":"survey-likert","trial_index":16,"time_elapsed":470300,"internal_node_id":"0.0-5.0-11.0"},{"rt":149015.70000004768,"responses":"{\"pregunta6\":\"b) Promover la asistencia a un evento específico de decoración a través de una atractiva descripción.\"}","question_order":"[0]","trial_type":"survey-multi-choice","trial_index":17,"time_elapsed":619321,"internal_node_id":"0.0-5.0-12.0"},{"rt":2786.600000023842,"response":{"pregunta6 likert":1},"question_order":[0],"trial_type":"survey-likert","trial_index":18,"time_elapsed":622114,"internal_node_id":"0.0-5.0-13.0"},{"rt":119621.90000003576,"responses":"{\"pregunta2\":\"b) A la relación entre civilización y sociedad.\"}","question_order":"[0]","trial_type":"survey-multi-choice","trial_index":19,"time_elapsed":741741,"internal_node_id":"0.0-5.0-14.0"},{"rt":2502.399999976158,"response":{"pregunta2 likert":0},"question_order":[0],"trial_type":"survey-likert","trial_index":20,"time_elapsed":744250,"internal_node_id":"0.0-5.0-15.0"},{"rt":59306.90000003576,"responses":"{\"pregunta22\":\"d) Se necesita un marco legal para delimitar lo público y lo privado en materia informativa.\"}","question_order":"[0]","trial_type":"survey-multi-choice","trial_index":21,"time_elapsed":803563,"internal_node_id":"0.0-5.0-16.0"},{"rt":4089.400000035763,"response":{"pregunta22 likert":2},"question_order":[0],"trial_type":"survey-likert","trial_index":22,"time_elapsed":807659,"internal_node_id":"0.0-5.0-17.0"},{"rt":67627.30000001192,"responses":"{\"pregunta7\":\"c) se da como existente, y sólo se discute su relación con el cuerpo.\"}","question_order":"[0]","trial_type":"survey-multi-choice","trial_index":23,"time_elapsed":875292,"internal_node_id":"0.0-5.0-18.0"},{"rt":4168.399999976158,"response":{"pregunta7 likert":2},"question_order":[0],"trial_type":"survey-likert","trial_index":24,"time_elapsed":879467,"internal_node_id":"0.0-5.0-19.0"},{"rt":61718.5,"responses":"{\"pregunta13\":\"a) Al premio merecido después de tantos esfuerzos.\"}","question_order":"[0]","trial_type":"survey-multi-choice","trial_index":25,"time_elapsed":941192,"internal_node_id":"0.0-5.0-20.0"},{"rt":3434.699999988079,"response":{"pregunta13 likert":3},"question_order":[0],"trial_type":"survey-likert","trial_index":26,"time_elapsed":944632,"internal_node_id":"0.0-5.0-21.0"},{"rt":25140.900000035763,"responses":"{\"pregunta24\":\"d) para el mexicano, la muerte es cotidiana.\"}","question_order":"[0]","trial_type":"survey-multi-choice","trial_index":27,"time_elapsed":969778,"internal_node_id":"0.0-5.0-22.0"},{"rt":5040.599999964237,"response":{"pregunta24 likert":2},"question_order":[0],"trial_type":"survey-likert","trial_index":28,"time_elapsed":974824,"internal_node_id":"0.0-5.0-23.0"},{"rt":93364.80000001192,"responses":"{\"pregunta15\":\"a) el uranio es el elemento natural con el mayor número de protones en el núcleo.\"}","question_order":"[0]","trial_type":"survey-multi-choice","trial_index":29,"time_elapsed":1068195,"internal_node_id":"0.0-5.0-24.0"},{"rt":3511.800000011921,"response":{"pregunta15 likert":2},"question_order":[0],"trial_type":"survey-likert","trial_index":30,"time_elapsed":1071712,"internal_node_id":"0.0-5.0-25.0"},{"rt":51140.5,"responses":"{\"pregunta4\":\"b) En la literatura como en la vida, lo importante son las preguntas.\"}","question_order":"[0]","trial_type":"survey-multi-choice","trial_index":31,"time_elapsed":1122859,"internal_node_id":"0.0-5.0-26.0"},{"rt":3442.800000011921,"response":{"pregunta4 likert":3},"question_order":[0],"trial_type":"survey-likert","trial_index":32,"time_elapsed":1126308,"internal_node_id":"0.0-5.0-27.0"},{"rt":36262,"responses":"{\"pregunta5\":\"b) Los momentos triviales de los viajes, en la escritura se vuelven significativos.\"}","question_order":"[0]","trial_type":"survey-multi-choice","trial_index":33,"time_elapsed":1162575,"internal_node_id":"0.0-5.0-28.0"},{"rt":3932.699999988079,"response":{"pregunta5 likert":1},"question_order":[0],"trial_type":"survey-likert","trial_index":34,"time_elapsed":1166514,"internal_node_id":"0.0-5.0-29.0"},{"rt":35056.69999998808,"responses":"{\"pregunta3\":\"a) El inicio de la civilización china.\"}","question_order":"[0]","trial_type":"survey-multi-choice","trial_index":35,"time_elapsed":1201576,"internal_node_id":"0.0-5.0-30.0"},{"rt":3824.600000023842,"response":{"pregunta3 likert":3},"question_order":[0],"trial_type":"survey-likert","trial_index":36,"time_elapsed":1205406,"internal_node_id":"0.0-5.0-31.0"},{"rt":53444.60000002384,"responses":"{\"pregunta11\":\"d) Provocar el deseo de la adquisición vertiginosa.\"}","question_order":"[0]","trial_type":"survey-multi-choice","trial_index":37,"time_elapsed":1258857,"internal_node_id":"0.0-5.0-32.0"},{"rt":3570.100000023842,"response":{"pregunta11 likert":2},"question_order":[0],"trial_type":"survey-likert","trial_index":38,"time_elapsed":1262432,"internal_node_id":"0.0-5.0-33.0"},{"rt":162714.39999997616,"responses":"{\"pregunta19\":\"c) sufren dolores de espalda.\"}","question_order":"[0]","trial_type":"survey-multi-choice","trial_index":39,"time_elapsed":1425152,"internal_node_id":"0.0-5.0-34.0"},{"rt":3286.099999964237,"response":{"pregunta19 likert":3},"question_order":[0],"trial_type":"survey-likert","trial_index":40,"time_elapsed":1428444,"internal_node_id":"0.0-5.0-35.0"},{"rt":72152.90000003576,"responses":"{\"pregunta8\":\"c) El ser humano se comporta de acuerdo con las circunstancias.\"}","question_order":"[0]","trial_type":"survey-multi-choice","trial_index":41,"time_elapsed":1500602,"internal_node_id":"0.0-5.0-36.0"},{"rt":4521.199999988079,"response":{"pregunta8 likert":3},"question_order":[0],"trial_type":"survey-likert","trial_index":42,"time_elapsed":1505128,"internal_node_id":"0.0-5.0-37.0"},{"rt":62193.30000001192,"responses":"{\"pregunta18\":\"b) El receptor es habitualmente pasivo frente a la publicidad.\"}","question_order":"[0]","trial_type":"survey-multi-choice","trial_index":43,"time_elapsed":1567327,"internal_node_id":"0.0-5.0-38.0"},{"rt":3581,"response":{"pregunta18 likert":2},"question_order":[0],"trial_type":"survey-likert","trial_index":44,"time_elapsed":1570914,"internal_node_id":"0.0-5.0-39.0"},{"rt":44195.90000003576,"responses":"{\"pregunta10\":\"d) ritualistas y obsesivos.\"}","question_order":"[0]","trial_type":"survey-multi-choice","trial_index":45,"time_elapsed":1615115,"internal_node_id":"0.0-5.0-40.0"},{"rt":2669.599999964237,"response":{"pregunta10 likert":2},"question_order":[0],"trial_type":"survey-likert","trial_index":46,"time_elapsed":1617790,"internal_node_id":"0.0-5.0-41.0"},{"rt":43866.5,"responses":"{\"pregunta23\":\"d) el jardinero estará muerto al día siguiente.\"}","question_order":"[0]","trial_type":"survey-multi-choice","trial_index":47,"time_elapsed":1661663,"internal_node_id":"0.0-5.0-42.0"},{"rt":4140.400000035763,"response":{"pregunta23 likert":3},"question_order":[0],"trial_type":"survey-likert","trial_index":48,"time_elapsed":1665809,"internal_node_id":"0.0-5.0-43.0"},{"rt":53185.69999998808,"responses":"{\"pregunta9\":\"b) la persistencia de la melancolía y la desesperanza.\"}","question_order":"[0]","trial_type":"survey-multi-choice","trial_index":49,"time_elapsed":1719001,"internal_node_id":"0.0-5.0-44.0"},{"rt":4335.899999976158,"response":{"pregunta9 likert":1},"question_order":[0],"trial_type":"survey-likert","trial_index":50,"time_elapsed":1723342,"internal_node_id":"0.0-5.0-45.0"},{"rt":43433.09999996424,"responses":"{\"pregunta17\":\"b) A la influencia de grupos que rechazaban su música.\"}","question_order":"[0]","trial_type":"survey-multi-choice","trial_index":51,"time_elapsed":1766780,"internal_node_id":"0.0-5.0-46.0"},{"rt":3031.800000011921,"response":{"pregunta17 likert":2},"question_order":[0],"trial_type":"survey-likert","trial_index":52,"time_elapsed":1769818,"internal_node_id":"0.0-5.0-47.0"}]