[{"rt":9809.199999928474,"stimulus":"<h1 style=\"color:red; margin-top: 3%;\">¡Bienvenido(a)!</h1><p style=\"text-align:left; justify-content:space-between; margin-right: 5%; margin-left: 5%; margin-top: 5%\"> Antes de empezar el estudio, necesitamos que nos confirmes que estás de acuerdo con participar. Recuerda que tu participación es 100% voluntaria y que lo único que te pedimos es responder lo mejor que puedas. Recuerda también que el estudio incluye:</p><ol style=\"text-align:left; justify-content:space-between; margin-right: 5%; margin-left: 5%;\"><li> un ejercicio de resolución de preguntas de selección múltiple (30’),</li><li>un cuestionario breve (5’),</li><li>un juego muy breve (3’),</li></ol><p style=\"text-align:left; justify-content:space-between; margin-right: 5%; margin-left: 5%;\">Si quieres participar, haz clic en “Acepto” luego de leer lo siguiente:<br></p><p style=\"text-align:left; justify-content:space-between; margin-right: 5%; margin-left: 5%;\">Acepto participar en el estudio “Estrategias de lectura y resolución de preguntas de selección múltiple”, en los términos aquí señalados:<br></p><p style=\"text-align:left; justify-content:space-between; margin-right: 5%; margin-left: 5%;\"><a href=\"http://ciae.uchile.cl/download.php?file=noticias/Asentimiento.pdf\" target=\"_blank\">Link a la hoja de información del Consentimiento.</a></p><p style=\"text-align:left; justify-content:space-between; margin-right: 5%; margin-left: 5%;\">Declaro que he leído (o se me ha leído) y (he) comprendido, las condiciones de mi participación en este estudio. He tenido la oportunidad de hacer preguntas y éstas han sido respondidas. No tengo dudas al respecto.</p>","response":0,"condicion_MCQ":12,"condicion_JUEGO":24,"condicion_INTER":24,"numero_participante":96,"numero_version":1,"dimx":1366,"dimy":768,"color_profundidad":24,"pixel_profundidad":24,"Browser":"Google Chrome","dia":18,"mes":5,"hora":14,"minuto":6,"segundo":13,"trial_type":"html-button-response","trial_index":0,"time_elapsed":9815,"internal_node_id":"0.0-0.0"},{"success":true,"trial_type":"fullscreen","trial_index":1,"time_elapsed":15915,"internal_node_id":"0.0-1.0"},{"rt":103097.5,"responses":"{\"Nombres\":\"Samantha Ignacia\",\"Apellidos\":\"Bolados Farias\",\"Edad\":\"19\",\"Sexo\":\"mujer\",\"Curso\":\"sección 204\",\"Colegio\":\"universidad andres bello\",\"Contacto\":\"sammyhuajsjak@gmail.com\"}","trial_type":"survey-text","trial_index":2,"time_elapsed":119028,"internal_node_id":"0.0-2.0"},{"success":true,"timeout":false,"failed_images":[],"failed_audio":[],"failed_video":[],"trial_type":"preload","trial_index":3,"time_elapsed":124243,"internal_node_id":"0.0-3.0"},{"rt":11211.700000047684,"stimulus":"<h1 style:\"margin-top: 5%;\">Ejercicios de Comprensión de Lectura de la Universidad de Chile</h1><p style=\"font-size: 120%;\">En esta actividad, debes responder 24 preguntas de selección múltiple. Cada pregunta presenta 4 respuestas alternativas, pero sólo una de ellas es correcta. Por lo tanto, debes escoger una sola alternativa para cada pregunta. Además, debes reportar qué tan seguro(a) estás de la respuesta que das, con un:</p><ol style=\"font-size: 120%;text-align:left;margin-left: 40%;\"><li>No estoy seguro(a) para nada</li><li>No estoy muy seguro(a)</li><li>Estoy bastante seguro(a)</li><li>Estoy totalmente seguro(a)</li></ol><p style=\"font-size: 120%;\">Por favor lee bien los enunciados antes de responder. ¡Éxito!</p>","response":0,"trial_type":"html-button-response","trial_index":4,"time_elapsed":135457,"internal_node_id":"0.0-4.0"},{"rt":105546.80000007153,"responses":"{\"pregunta20\":\"a) el sujeto sufre con su modo de vida.\"}","question_order":"[0]","trial_type":"survey-multi-choice","trial_index":5,"time_elapsed":241007,"internal_node_id":"0.0-5.0-0.0"},{"rt":3513.399999976158,"response":{"pregunta20 likert":1},"question_order":[0],"trial_type":"survey-likert","trial_index":6,"time_elapsed":244525,"internal_node_id":"0.0-5.0-1.0"},{"rt":38774.89999997616,"responses":"{\"pregunta13\":\"d) Al premio merecido después de tantos esfuerzos.\"}","question_order":"[0]","trial_type":"survey-multi-choice","trial_index":7,"time_elapsed":283303,"internal_node_id":"0.0-5.0-2.0"},{"rt":2557.2000000476837,"response":{"pregunta13 likert":2},"question_order":[0],"trial_type":"survey-likert","trial_index":8,"time_elapsed":285864,"internal_node_id":"0.0-5.0-3.0"},{"rt":51306.39999997616,"responses":"{\"pregunta18\":\"a) La publicidad ejerce una influencia positiva sobre la sociedad.\"}","question_order":"[0]","trial_type":"survey-multi-choice","trial_index":9,"time_elapsed":337173,"internal_node_id":"0.0-5.0-4.0"},{"rt":1819,"response":{"pregunta18 likert":1},"question_order":[0],"trial_type":"survey-likert","trial_index":10,"time_elapsed":338996,"internal_node_id":"0.0-5.0-5.0"},{"rt":48470.89999997616,"responses":"{\"pregunta1\":\"d) Aportan informaciones con las que se reconstruye el personaje dentro de un relato.\"}","question_order":"[0]","trial_type":"survey-multi-choice","trial_index":11,"time_elapsed":387472,"internal_node_id":"0.0-5.0-6.0"},{"rt":3141.399999976158,"response":{"pregunta1 likert":1},"question_order":[0],"trial_type":"survey-likert","trial_index":12,"time_elapsed":390617,"internal_node_id":"0.0-5.0-7.0"},{"rt":100109.30000007153,"responses":"{\"pregunta19\":\"b) sufren dolores de espalda.\"}","question_order":"[0]","trial_type":"survey-multi-choice","trial_index":13,"time_elapsed":490731,"internal_node_id":"0.0-5.0-8.0"},{"rt":2643.2000000476837,"response":{"pregunta19 likert":0},"question_order":[0],"trial_type":"survey-likert","trial_index":14,"time_elapsed":493378,"internal_node_id":"0.0-5.0-9.0"},{"rt":86902.10000002384,"responses":"{\"pregunta8\":\"c) El ser humano se comporta de acuerdo con las circunstancias.\"}","question_order":"[0]","trial_type":"survey-multi-choice","trial_index":15,"time_elapsed":580284,"internal_node_id":"0.0-5.0-10.0"},{"rt":2765.5,"response":{"pregunta8 likert":1},"question_order":[0],"trial_type":"survey-likert","trial_index":16,"time_elapsed":583052,"internal_node_id":"0.0-5.0-11.0"},{"rt":115891.60000002384,"responses":"{\"pregunta7\":\"b) se da como existente, y sólo se discute su relación con el cuerpo.\"}","question_order":"[0]","trial_type":"survey-multi-choice","trial_index":17,"time_elapsed":698947,"internal_node_id":"0.0-5.0-12.0"},{"rt":1899.6000000238419,"response":{"pregunta7 likert":0},"question_order":[0],"trial_type":"survey-likert","trial_index":18,"time_elapsed":700851,"internal_node_id":"0.0-5.0-13.0"},{"rt":133040.10000002384,"responses":"{\"pregunta14\":\"a) el mejor emperador es el que está muerto.\"}","question_order":"[0]","trial_type":"survey-multi-choice","trial_index":19,"time_elapsed":833894,"internal_node_id":"0.0-5.0-14.0"},{"rt":6584.5,"response":{"pregunta14 likert":1},"question_order":[0],"trial_type":"survey-likert","trial_index":20,"time_elapsed":840482,"internal_node_id":"0.0-5.0-15.0"},{"rt":96581.79999995232,"responses":"{\"pregunta2\":\"a) A la relación entre pensamiento y estructura social.\"}","question_order":"[0]","trial_type":"survey-multi-choice","trial_index":21,"time_elapsed":937069,"internal_node_id":"0.0-5.0-16.0"},{"rt":2674.8000000715256,"response":{"pregunta2 likert":0},"question_order":[0],"trial_type":"survey-likert","trial_index":22,"time_elapsed":939747,"internal_node_id":"0.0-5.0-17.0"},{"rt":122399.10000002384,"responses":"{\"pregunta5\":\"a) La escritura plasma los mejores momentos de los viajes.\"}","question_order":"[0]","trial_type":"survey-multi-choice","trial_index":23,"time_elapsed":1062150,"internal_node_id":"0.0-5.0-18.0"},{"rt":2138,"response":{"pregunta5 likert":1},"question_order":[0],"trial_type":"survey-likert","trial_index":24,"time_elapsed":1064293,"internal_node_id":"0.0-5.0-19.0"},{"rt":69954.59999990463,"responses":"{\"pregunta9\":\"c) preparar los recuerdos del mañana.\"}","question_order":"[0]","trial_type":"survey-multi-choice","trial_index":25,"time_elapsed":1134250,"internal_node_id":"0.0-5.0-20.0"},{"rt":3264.5,"response":{"pregunta9 likert":1},"question_order":[0],"trial_type":"survey-likert","trial_index":26,"time_elapsed":1137517,"internal_node_id":"0.0-5.0-21.0"},{"rt":78067,"responses":"{\"pregunta21\":\"c) Nuestra economía vivirá un proceso de ajuste a la nueva realidad.\"}","question_order":"[0]","trial_type":"survey-multi-choice","trial_index":27,"time_elapsed":1215587,"internal_node_id":"0.0-5.0-22.0"},{"rt":2716.399999976158,"response":{"pregunta21 likert":1},"question_order":[0],"trial_type":"survey-likert","trial_index":28,"time_elapsed":1218306,"internal_node_id":"0.0-5.0-23.0"},{"rt":38899.299999952316,"responses":"{\"pregunta3\":\"c) El inicio de la dinastía Chang.\"}","question_order":"[0]","trial_type":"survey-multi-choice","trial_index":29,"time_elapsed":1257208,"internal_node_id":"0.0-5.0-24.0"},{"rt":2846.600000023842,"response":{"pregunta3 likert":1},"question_order":[0],"trial_type":"survey-likert","trial_index":30,"time_elapsed":1260057,"internal_node_id":"0.0-5.0-25.0"},{"rt":31474.5,"responses":"{\"pregunta16\":\"b) Se debe crear un seguro médico especial para esta institución, pues es de alto riesgo.\"}","question_order":"[0]","trial_type":"survey-multi-choice","trial_index":31,"time_elapsed":1291534,"internal_node_id":"0.0-5.0-26.0"},{"rt":2647.6999999284744,"response":{"pregunta16 likert":1},"question_order":[0],"trial_type":"survey-likert","trial_index":32,"time_elapsed":1294184,"internal_node_id":"0.0-5.0-27.0"},{"rt":68130.10000002384,"responses":"{\"pregunta11\":\"a) Deleitar a sus receptores por medio de la belleza y el confort\"}","question_order":"[0]","trial_type":"survey-multi-choice","trial_index":33,"time_elapsed":1362317,"internal_node_id":"0.0-5.0-28.0"},{"rt":4442.900000095367,"response":{"pregunta11 likert":1},"question_order":[0],"trial_type":"survey-likert","trial_index":34,"time_elapsed":1366763,"internal_node_id":"0.0-5.0-29.0"},{"rt":105403.20000004768,"responses":"{\"pregunta12\":\"d) Homenajear a quienes murieron.\"}","question_order":"[0]","trial_type":"survey-multi-choice","trial_index":35,"time_elapsed":1472169,"internal_node_id":"0.0-5.0-30.0"},{"rt":2589,"response":{"pregunta12 likert":1},"question_order":[0],"trial_type":"survey-likert","trial_index":36,"time_elapsed":1474762,"internal_node_id":"0.0-5.0-31.0"},{"rt":101728,"responses":"{\"pregunta6\":\"c) Presentar positivamente las diversas tendencias del diseño de interiores a través de un comentario.\"}","question_order":"[0]","trial_type":"survey-multi-choice","trial_index":37,"time_elapsed":1576493,"internal_node_id":"0.0-5.0-32.0"},{"rt":1811.6000000238419,"response":{"pregunta6 likert":1},"question_order":[0],"trial_type":"survey-likert","trial_index":38,"time_elapsed":1578308,"internal_node_id":"0.0-5.0-33.0"},{"rt":58378.09999990463,"responses":"{\"pregunta15\":\"b) a partir de la manipulación del núcleo se han creado elementos químicos naturales.\"}","question_order":"[0]","trial_type":"survey-multi-choice","trial_index":39,"time_elapsed":1636689,"internal_node_id":"0.0-5.0-34.0"},{"rt":2898.8000000715256,"response":{"pregunta15 likert":0},"question_order":[0],"trial_type":"survey-likert","trial_index":40,"time_elapsed":1639591,"internal_node_id":"0.0-5.0-35.0"},{"rt":22466.799999952316,"responses":"{\"pregunta22\":\"c) Se necesita un marco legal para delimitar lo público y lo privado en materia informativa.\"}","question_order":"[0]","trial_type":"survey-multi-choice","trial_index":41,"time_elapsed":1662060,"internal_node_id":"0.0-5.0-36.0"},{"rt":2232.2999999523163,"response":{"pregunta22 likert":1},"question_order":[0],"trial_type":"survey-likert","trial_index":42,"time_elapsed":1664294,"internal_node_id":"0.0-5.0-37.0"},{"rt":49661.10000002384,"responses":"{\"pregunta23\":\"d) el jardinero estará muerto al día siguiente.\"}","question_order":"[0]","trial_type":"survey-multi-choice","trial_index":43,"time_elapsed":1713957,"internal_node_id":"0.0-5.0-38.0"},{"rt":2333.399999976158,"response":{"pregunta23 likert":1},"question_order":[0],"trial_type":"survey-likert","trial_index":44,"time_elapsed":1716293,"internal_node_id":"0.0-5.0-39.0"},{"rt":15988.399999976158,"responses":"{\"pregunta24\":\"d) para el mexicano, la muerte es cotidiana.\"}","question_order":"[0]","trial_type":"survey-multi-choice","trial_index":45,"time_elapsed":1732284,"internal_node_id":"0.0-5.0-40.0"},{"rt":2381.2000000476837,"response":{"pregunta24 likert":3},"question_order":[0],"trial_type":"survey-likert","trial_index":46,"time_elapsed":1734668,"internal_node_id":"0.0-5.0-41.0"},{"rt":40515.60000002384,"responses":"{\"pregunta10\":\"b) hedonistas y soñadores.\"}","question_order":"[0]","trial_type":"survey-multi-choice","trial_index":47,"time_elapsed":1775186,"internal_node_id":"0.0-5.0-42.0"},{"rt":2780.7000000476837,"response":{"pregunta10 likert":1},"question_order":[0],"trial_type":"survey-likert","trial_index":48,"time_elapsed":1777969,"internal_node_id":"0.0-5.0-43.0"},{"rt":11378,"responses":"{\"pregunta4\":\"b) En la literatura, el narrador expresa su voluntad de libertad.\"}","question_order":"[0]","trial_type":"survey-multi-choice","trial_index":49,"time_elapsed":1789350,"internal_node_id":"0.0-5.0-44.0"},{"rt":2570.7999999523163,"response":{"pregunta4 likert":1},"question_order":[0],"trial_type":"survey-likert","trial_index":50,"time_elapsed":1791924,"internal_node_id":"0.0-5.0-45.0"},{"rt":34282.39999997616,"responses":"{\"pregunta17\":\"a) A la inexistencia de un recinto adecuado para el recital.\"}","question_order":"[0]","trial_type":"survey-multi-choice","trial_index":51,"time_elapsed":1826208,"internal_node_id":"0.0-5.0-46.0"},{"rt":2390.4000000953674,"response":{"pregunta17 likert":1},"question_order":[0],"trial_type":"survey-likert","trial_index":52,"time_elapsed":1828601,"internal_node_id":"0.0-5.0-47.0"}]