[{"rt":4177.499999990687,"stimulus":"<h1 style=\"color:red; margin-top: 3%;\">¡Bienvenido(a)!</h1><p style=\"text-align:left; justify-content:space-between; margin-right: 5%; margin-left: 5%; margin-top: 5%\"> Antes de empezar el estudio, necesitamos que nos confirmes que estás de acuerdo con participar. Recuerda que tu participación es 100% voluntaria y que lo único que te pedimos es responder lo mejor que puedas. Recuerda también que el estudio incluye:</p><ol style=\"text-align:left; justify-content:space-between; margin-right: 5%; margin-left: 5%;\"><li> un ejercicio de resolución de preguntas de selección múltiple (30’),</li><li>un cuestionario breve (5’),</li><li>un juego muy breve (3’),</li></ol><p style=\"text-align:left; justify-content:space-between; margin-right: 5%; margin-left: 5%;\">Si quieres participar, haz clic en “Acepto” luego de leer lo siguiente:<br></p><p style=\"text-align:left; justify-content:space-between; margin-right: 5%; margin-left: 5%;\">Acepto participar en el estudio “Estrategias de lectura y resolución de preguntas de selección múltiple”, en los términos aquí señalados:<br></p><p style=\"text-align:left; justify-content:space-between; margin-right: 5%; margin-left: 5%;\"><a href=\"http://ciae.uchile.cl/download.php?file=noticias/Asentimiento.pdf\" target=\"_blank\">Link a la hoja de información del Consentimiento.</a></p><p style=\"text-align:left; justify-content:space-between; margin-right: 5%; margin-left: 5%;\">Declaro que he leído (o se me ha leído) y (he) comprendido, las condiciones de mi participación en este estudio. He tenido la oportunidad de hacer preguntas y éstas han sido respondidas. No tengo dudas al respecto.</p>","response":0,"condicion_MCQ":3,"condicion_JUEGO":3,"condicion_INTER":3,"numero_participante":27,"numero_version":1,"dimx":393,"dimy":851,"color_profundidad":24,"pixel_profundidad":24,"Browser":"Google Chrome","dia":3,"mes":5,"hora":11,"minuto":44,"segundo":46,"trial_type":"html-button-response","trial_index":0,"time_elapsed":4192,"internal_node_id":"0.0-0.0"},{"success":true,"trial_type":"fullscreen","trial_index":1,"time_elapsed":7891,"internal_node_id":"0.0-1.0"},{"rt":49891.00000000326,"responses":"{\"Nombres\":\"Jeremías Antonio\",\"Apellidos\":\"Soto Sáez\",\"Edad\":\"19\",\"Sexo\":\"Hombre\",\"Curso\":\"Sección 218 primer año\",\"Colegio\":\"Universidad Andrés Bello\",\"Contacto\":\"Jeresoto2012@gmail.com\"}","trial_type":"survey-text","trial_index":2,"time_elapsed":57842,"internal_node_id":"0.0-2.0"},{"success":true,"timeout":false,"failed_images":[],"failed_audio":[],"failed_video":[],"trial_type":"preload","trial_index":3,"time_elapsed":58989,"internal_node_id":"0.0-3.0"},{"rt":3080.3999999770895,"stimulus":"<h1 style:\"margin-top: 5%;\">Ejercicios de Comprensión de Lectura de la Universidad de Chile</h1><p style=\"font-size: 120%;\">En esta actividad, debes responder 24 preguntas de selección múltiple. Cada pregunta presenta 4 respuestas alternativas, pero sólo una de ellas es correcta. Por lo tanto, debes escoger una sola alternativa para cada pregunta. Además, debes reportar qué tan seguro(a) estás de la respuesta que das, con un:</p><ol style=\"font-size: 120%;text-align:left;margin-left: 40%;\"><li>No estoy seguro(a) para nada</li><li>No estoy muy seguro(a)</li><li>Estoy bastante seguro(a)</li><li>Estoy totalmente seguro(a)</li></ol><p style=\"font-size: 120%;\">Por favor lee bien los enunciados antes de responder. ¡Éxito!</p>","response":0,"trial_type":"html-button-response","trial_index":4,"time_elapsed":62073,"internal_node_id":"0.0-4.0"},{"rt":26320.999999996275,"responses":"{\"pregunta21\":\"d) Nuestra economía vivirá un proceso de ajuste a la nueva realidad.\"}","question_order":"[0]","trial_type":"survey-multi-choice","trial_index":5,"time_elapsed":88402,"internal_node_id":"0.0-5.0-0.0"},{"rt":2897.3000000114553,"response":{"pregunta21 likert":2},"question_order":[0],"trial_type":"survey-likert","trial_index":6,"time_elapsed":91306,"internal_node_id":"0.0-5.0-1.0"},{"rt":33296.19999998249,"responses":"{\"pregunta16\":\"a) Se debe crear un seguro médico especial para esta institución, pues es de alto riesgo.\"}","question_order":"[0]","trial_type":"survey-multi-choice","trial_index":7,"time_elapsed":124607,"internal_node_id":"0.0-5.0-2.0"},{"rt":1160.7000000076368,"response":{"pregunta16 likert":2},"question_order":[0],"trial_type":"survey-likert","trial_index":8,"time_elapsed":125771,"internal_node_id":"0.0-5.0-3.0"},{"rt":103342.09999995073,"responses":"{\"pregunta19\":\"c) sufren dolores de espalda.\"}","question_order":"[0]","trial_type":"survey-multi-choice","trial_index":9,"time_elapsed":229118,"internal_node_id":"0.0-5.0-4.0"},{"rt":1115.4000000096858,"response":{"pregunta19 likert":2},"question_order":[0],"trial_type":"survey-likert","trial_index":10,"time_elapsed":230239,"internal_node_id":"0.0-5.0-5.0"},{"rt":101581.99999999488,"responses":"{\"pregunta14\":\"b) el mejor emperador es el que está muerto.\"}","question_order":"[0]","trial_type":"survey-multi-choice","trial_index":11,"time_elapsed":331826,"internal_node_id":"0.0-5.0-6.0"},{"rt":2260.7999999891035,"response":{"pregunta14 likert":2},"question_order":[0],"trial_type":"survey-likert","trial_index":12,"time_elapsed":334095,"internal_node_id":"0.0-5.0-7.0"},{"rt":94741.99999996927,"responses":"{\"pregunta20\":\"d) para Aristóteles la virtud estaba en el justo equilibrio.\"}","question_order":"[0]","trial_type":"survey-multi-choice","trial_index":13,"time_elapsed":428847,"internal_node_id":"0.0-5.0-8.0"},{"rt":1817.3999999999069,"response":{"pregunta20 likert":1},"question_order":[0],"trial_type":"survey-likert","trial_index":14,"time_elapsed":430674,"internal_node_id":"0.0-5.0-9.0"},{"rt":58614.39999996219,"responses":"{\"pregunta9\":\"d) preparar los recuerdos del mañana.\"}","question_order":"[0]","trial_type":"survey-multi-choice","trial_index":15,"time_elapsed":489293,"internal_node_id":"0.0-5.0-10.0"},{"rt":2369.1000000108033,"response":{"pregunta9 likert":2},"question_order":[0],"trial_type":"survey-likert","trial_index":16,"time_elapsed":491666,"internal_node_id":"0.0-5.0-11.0"},{"rt":60193.599999998696,"responses":"{\"pregunta1\":\"a) Aportan informaciones con las que se reconstruye el personaje dentro de un relato.\"}","question_order":"[0]","trial_type":"survey-multi-choice","trial_index":17,"time_elapsed":551864,"internal_node_id":"0.0-5.0-12.0"},{"rt":1516.5000000270084,"response":{"pregunta1 likert":2},"question_order":[0],"trial_type":"survey-likert","trial_index":18,"time_elapsed":553388,"internal_node_id":"0.0-5.0-13.0"},{"rt":64902.79999998165,"responses":"{\"pregunta22\":\"d) Se necesita un marco legal para delimitar lo público y lo privado en materia informativa.\"}","question_order":"[0]","trial_type":"survey-multi-choice","trial_index":19,"time_elapsed":618300,"internal_node_id":"0.0-5.0-14.0"},{"rt":1383.800000010524,"response":{"pregunta22 likert":2},"question_order":[0],"trial_type":"survey-likert","trial_index":20,"time_elapsed":619689,"internal_node_id":"0.0-5.0-15.0"},{"rt":51411.59999999218,"responses":"{\"pregunta17\":\"c) A la influencia de grupos que rechazaban su música.\"}","question_order":"[0]","trial_type":"survey-multi-choice","trial_index":21,"time_elapsed":671106,"internal_node_id":"0.0-5.0-16.0"},{"rt":1473.699999973178,"response":{"pregunta17 likert":2},"question_order":[0],"trial_type":"survey-likert","trial_index":22,"time_elapsed":672585,"internal_node_id":"0.0-5.0-17.0"},{"rt":128311.09999999171,"responses":"{\"pregunta10\":\"d) ritualistas y obsesivos.\"}","question_order":"[0]","trial_type":"survey-multi-choice","trial_index":23,"time_elapsed":800899,"internal_node_id":"0.0-5.0-18.0"},{"rt":1827.2999999462627,"response":{"pregunta10 likert":3},"question_order":[0],"trial_type":"survey-likert","trial_index":24,"time_elapsed":802732,"internal_node_id":"0.0-5.0-19.0"},{"rt":142549.20000000857,"responses":"{\"pregunta18\":\"b) La publicidad es dañina para sus receptores.\"}","question_order":"[0]","trial_type":"survey-multi-choice","trial_index":25,"time_elapsed":945288,"internal_node_id":"0.0-5.0-20.0"},{"rt":1205.0000000162981,"response":{"pregunta18 likert":2},"question_order":[0],"trial_type":"survey-likert","trial_index":26,"time_elapsed":946499,"internal_node_id":"0.0-5.0-21.0"},{"rt":100778.19999994244,"responses":"{\"pregunta6\":\"c) Promover la asistencia a un evento específico de decoración a través de una atractiva descripción.\"}","question_order":"[0]","trial_type":"survey-multi-choice","trial_index":27,"time_elapsed":1047285,"internal_node_id":"0.0-5.0-22.0"},{"rt":1033.6000000243075,"response":{"pregunta6 likert":2},"question_order":[0],"trial_type":"survey-likert","trial_index":28,"time_elapsed":1048324,"internal_node_id":"0.0-5.0-23.0"},{"rt":70690.59999997262,"responses":"{\"pregunta13\":\"d) A la inutilidad de tanto esfuerzo si el objetivo es el reposo.\"}","question_order":"[0]","trial_type":"survey-multi-choice","trial_index":29,"time_elapsed":1119024,"internal_node_id":"0.0-5.0-24.0"},{"rt":1652.4000000208616,"response":{"pregunta13 likert":2},"question_order":[0],"trial_type":"survey-likert","trial_index":30,"time_elapsed":1120683,"internal_node_id":"0.0-5.0-25.0"},{"rt":39013.90000001993,"responses":"{\"pregunta5\":\"c) Los momentos triviales de los viajes, en la escritura se vuelven significativos.\"}","question_order":"[0]","trial_type":"survey-multi-choice","trial_index":31,"time_elapsed":1159705,"internal_node_id":"0.0-5.0-26.0"},{"rt":1268.900000024587,"response":{"pregunta5 likert":2},"question_order":[0],"trial_type":"survey-likert","trial_index":32,"time_elapsed":1160995,"internal_node_id":"0.0-5.0-27.0"},{"rt":38227.70000004675,"responses":"{\"pregunta23\":\"b) la Muerte vaticina el futuro mediante gestos.\"}","question_order":"[0]","trial_type":"survey-multi-choice","trial_index":33,"time_elapsed":1199233,"internal_node_id":"0.0-5.0-28.0"},{"rt":2030.1999999792315,"response":{"pregunta23 likert":3},"question_order":[0],"trial_type":"survey-likert","trial_index":34,"time_elapsed":1201268,"internal_node_id":"0.0-5.0-29.0"},{"rt":40329.99999995809,"responses":"{\"pregunta2\":\"a) A la relación entre sociedad y constitución social.\"}","question_order":"[0]","trial_type":"survey-multi-choice","trial_index":35,"time_elapsed":1241601,"internal_node_id":"0.0-5.0-30.0"},{"rt":1694.3999999784864,"response":{"pregunta2 likert":2},"question_order":[0],"trial_type":"survey-likert","trial_index":36,"time_elapsed":1243299,"internal_node_id":"0.0-5.0-31.0"},{"rt":40027.79999998165,"responses":"{\"pregunta11\":\"b) Deleitar a sus receptores por medio de la belleza y el confort\"}","question_order":"[0]","trial_type":"survey-multi-choice","trial_index":37,"time_elapsed":1283331,"internal_node_id":"0.0-5.0-32.0"},{"rt":1165.2000000467524,"response":{"pregunta11 likert":2},"question_order":[0],"trial_type":"survey-likert","trial_index":38,"time_elapsed":1284503,"internal_node_id":"0.0-5.0-33.0"},{"rt":36299.59999996936,"responses":"{\"pregunta3\":\"a) El origen de las grandes civilizaciones.\"}","question_order":"[0]","trial_type":"survey-multi-choice","trial_index":39,"time_elapsed":1320811,"internal_node_id":"0.0-5.0-34.0"},{"rt":1209.1000000364147,"response":{"pregunta3 likert":2},"question_order":[0],"trial_type":"survey-likert","trial_index":40,"time_elapsed":1322025,"internal_node_id":"0.0-5.0-35.0"},{"rt":51567.900000023656,"responses":"{\"pregunta8\":\"d) El ser humano se comporta de acuerdo con las circunstancias.\"}","question_order":"[0]","trial_type":"survey-multi-choice","trial_index":41,"time_elapsed":1373599,"internal_node_id":"0.0-5.0-36.0"},{"rt":1301.2000000453554,"response":{"pregunta8 likert":2},"question_order":[0],"trial_type":"survey-likert","trial_index":42,"time_elapsed":1374906,"internal_node_id":"0.0-5.0-37.0"},{"rt":84831.69999998063,"responses":"{\"pregunta12\":\"a) Homenajear a quienes murieron.\"}","question_order":"[0]","trial_type":"survey-multi-choice","trial_index":43,"time_elapsed":1459742,"internal_node_id":"0.0-5.0-38.0"},{"rt":1363.2000000216067,"response":{"pregunta12 likert":2},"question_order":[0],"trial_type":"survey-likert","trial_index":44,"time_elapsed":1461109,"internal_node_id":"0.0-5.0-39.0"},{"rt":30489.000000001397,"responses":"{\"pregunta15\":\"b) el uranio es el elemento natural con el mayor número de protones en el núcleo.\"}","question_order":"[0]","trial_type":"survey-multi-choice","trial_index":45,"time_elapsed":1491605,"internal_node_id":"0.0-5.0-40.0"},{"rt":1497.899999958463,"response":{"pregunta15 likert":3},"question_order":[0],"trial_type":"survey-likert","trial_index":46,"time_elapsed":1493109,"internal_node_id":"0.0-5.0-41.0"},{"rt":22629.799999995157,"responses":"{\"pregunta24\":\"a) para el mexicano, la muerte es cotidiana.\"}","question_order":"[0]","trial_type":"survey-multi-choice","trial_index":47,"time_elapsed":1515743,"internal_node_id":"0.0-5.0-42.0"},{"rt":1408.9999999850988,"response":{"pregunta24 likert":2},"question_order":[0],"trial_type":"survey-likert","trial_index":48,"time_elapsed":1517156,"internal_node_id":"0.0-5.0-43.0"},{"rt":79789.39999995055,"responses":"{\"pregunta7\":\"c) se da como existente, y sólo se discute su relación con el cuerpo.\"}","question_order":"[0]","trial_type":"survey-multi-choice","trial_index":49,"time_elapsed":1596951,"internal_node_id":"0.0-5.0-44.0"},{"rt":1141.9999999925494,"response":{"pregunta7 likert":2},"question_order":[0],"trial_type":"survey-likert","trial_index":50,"time_elapsed":1598103,"internal_node_id":"0.0-5.0-45.0"},{"rt":135424.10000000382,"responses":"{\"pregunta4\":\"b) En la literatura como en la vida, lo importante son las preguntas.\"}","question_order":"[0]","trial_type":"survey-multi-choice","trial_index":51,"time_elapsed":1733536,"internal_node_id":"0.0-5.0-46.0"},{"rt":1120.5999999656342,"response":{"pregunta4 likert":2},"question_order":[0],"trial_type":"survey-likert","trial_index":52,"time_elapsed":1734661,"internal_node_id":"0.0-5.0-47.0"},{"rt":1620.900000038091,"stimulus":"<p style=\"font-size: 120%\">Gracias por completar esta etapa del estudio. Ahora te invitamos a responder el cuestionario.<br><br></p>","response":0,"trial_type":"html-button-response","trial_index":53,"time_elapsed":1736340,"internal_node_id":"0.0-6.0"},{"rt":1997.399999992922,"stimulus":"<h1 style=\"margin-top: 5%\">Cuestionario para la Evaluación de Metas Académicas</h1><p style=\"font-size: 120%; margin-left: 3%; margin-top: 5%\">Este es un cuestionario que permite conocer cuáles son los principales motivos por los que los estudiantes se esfuerzan en su trabajo académico. A continuación, se te presentarán una serie de afirmaciones acerca de los motivos que puedes tener para estudiar.<br>Te pedimos que contestes a dichas afirmaciones reflexionando sobre el contenido de cada una de ellas, que, aunque te parezcan semejantes, en realidad, no lo son.<br>NO HAY RESPUESTAS CORRECTAS o INCORRECTAS, sólo queremos que respondas con la mayor precisión y sinceridad posible a las preguntas que se plantean.","response":0,"trial_type":"html-button-response","trial_index":54,"time_elapsed":1738342,"internal_node_id":"0.0-7.0"},{"rt":99605.60000000987,"response":{"Metas cuestionario pregunta1":4,"Metas cuestionario pregunta2":4,"Metas cuestionario pregunta3":4,"Metas cuestionario pregunta4":4,"Metas cuestionario pregunta5":3,"Metas cuestionario pregunta6":4,"Metas cuestionario pregunta7":3,"Metas cuestionario pregunta8":2,"Metas cuestionario pregunta9":1,"Metas cuestionario pregunta10":1,"Metas cuestionario pregunta11":1,"Metas cuestionario pregunta12":0,"Metas cuestionario pregunta13":0,"Metas cuestionario pregunta14":0,"Metas cuestionario pregunta15":3,"Metas cuestionario pregunta16":3,"Metas cuestionario pregunta17":3,"Metas cuestionario pregunta18":4,"Metas cuestionario pregunta19":4,"Metas cuestionario pregunta20":3},"question_order":[0,1,2,3,4,5,6,7,8,9,10,11,12,13,14,15,16,17,18,19],"trial_type":"survey-likert","trial_index":55,"time_elapsed":1837998,"internal_node_id":"0.0-8.0"},{"rt":1661.1000000266358,"stimulus":"<p style=\"font-size: 120%\">Gracias por responder el cuestionario. Ahora te invitamos a seguir con el juego, que es muy breve.<br><br></p>","response":0,"trial_type":"html-button-response","trial_index":56,"time_elapsed":1839673,"internal_node_id":"0.0-9.0"},{"rt":5020.699999993667,"stimulus":"<h1>Juego</h1><p style=\"font-size: 120%;\">A continuación se te presentarán 16 pequeñas historias.<br>Por favor lee el texto presentado en cada una de ellas y luego haz click en el objeto de tu elección.<br>Si estás listo(a),<span style=\"color:red;\"> haz click en \"comenzar\"</span>.</p>","response":0,"trial_type":"html-button-response","trial_index":57,"time_elapsed":1844697,"internal_node_id":"0.0-10.0"},{"rt":17985.69999996107,"grid":[[1,1,1],[1,1,1],[1,1,1],[1,1,1],[1,1,1],[1,1,1],[1,1,1],[1,1,1],[1,1,1]],"target":[0,0],"response":[7,1],"correct":false,"juego":13,"trial_type":"serial-reaction-time-mouse","trial_index":58,"time_elapsed":1862696,"internal_node_id":"0.0-11.0-0.0"},{"rt":7464.800000016112,"grid":[[1,1,1],[1,1,1],[1,1,1],[1,1,1],[1,1,1],[1,1,1],[1,1,1],[1,1,1],[1,1,1]],"target":[0,0],"response":[3,1],"correct":false,"juego":6,"trial_type":"serial-reaction-time-mouse","trial_index":59,"time_elapsed":1870165,"internal_node_id":"0.0-11.0-1.0"},{"rt":6015.499999979511,"grid":[[1,1,1,1]],"target":[0,0],"response":[0,2],"correct":false,"juego":2,"trial_type":"serial-reaction-time-mouse","trial_index":60,"time_elapsed":1876185,"internal_node_id":"0.0-11.0-2.0"},{"rt":26785.100000037346,"grid":[[1,1,1,1],[1,1,1,1],[1,1,1,1],[1,1,1,1],[1,1,1,1],[1,1,1,1],[1,1,1,1],[1,1,1,1],[1,1,1,1]],"target":[0,0],"response":[7,2],"correct":false,"juego":15,"trial_type":"serial-reaction-time-mouse","trial_index":61,"time_elapsed":1902981,"internal_node_id":"0.0-11.0-3.0"},{"rt":3926.000000035856,"grid":[[1,1,1,1]],"target":[0,0],"response":[0,3],"correct":false,"juego":1,"trial_type":"serial-reaction-time-mouse","trial_index":62,"time_elapsed":1906915,"internal_node_id":"0.0-11.0-4.0"},{"rt":13435.40000001667,"grid":[[1,1,1],[1,1,1],[1,1,1],[1,1,1],[1,1,1],[1,1,1],[1,1,1],[1,1,1],[1,1,1]],"target":[0,0],"response":[3,1],"correct":false,"juego":5,"trial_type":"serial-reaction-time-mouse","trial_index":63,"time_elapsed":1920368,"internal_node_id":"0.0-11.0-5.0"},{"rt":11289.500000013504,"grid":[[1,1,1,1],[1,1,1,1],[1,1,1,1],[1,1,1,1],[1,1,1,1],[1,1,1,1],[1,1,1,1],[1,1,1,1],[1,1,1,1]],"target":[0,0],"response":[7,2],"correct":false,"juego":14,"trial_type":"serial-reaction-time-mouse","trial_index":64,"time_elapsed":1931665,"internal_node_id":"0.0-11.0-6.0"},{"rt":13901.799999992363,"grid":[[1,1,1],[1,1,1],[1,1,1],[1,1,1],[1,1,1],[1,1,1],[1,1,1],[1,1,1],[1,1,1]],"target":[0,0],"response":[5,2],"correct":false,"juego":10,"trial_type":"serial-reaction-time-mouse","trial_index":65,"time_elapsed":1945581,"internal_node_id":"0.0-11.0-7.0"},{"rt":10658.999999985099,"grid":[[1,1,1,1]],"target":[0,0],"response":[0,2],"correct":false,"juego":11,"trial_type":"serial-reaction-time-mouse","trial_index":66,"time_elapsed":1956242,"internal_node_id":"0.0-11.0-8.0"},{"rt":14751.800000027288,"grid":[[1,1,1,1]],"target":[0,0],"response":[0,2],"correct":false,"juego":3,"trial_type":"serial-reaction-time-mouse","trial_index":67,"time_elapsed":1970995,"internal_node_id":"0.0-11.0-9.0"},{"rt":10183.400000038091,"grid":[[1,1,1,1]],"target":[0,0],"response":[0,1],"correct":false,"juego":7,"trial_type":"serial-reaction-time-mouse","trial_index":68,"time_elapsed":1981180,"internal_node_id":"0.0-11.0-10.0"},{"rt":11793.000000005122,"grid":[[1,1,1,1]],"target":[0,0],"response":[0,1],"correct":false,"juego":12,"trial_type":"serial-reaction-time-mouse","trial_index":69,"time_elapsed":1992975,"internal_node_id":"0.0-11.0-11.0"},{"rt":4992.599999997765,"grid":[[1],[1],[1],[1]],"target":[0,0],"response":[3,0],"correct":false,"juego":4,"trial_type":"serial-reaction-time-mouse","trial_index":70,"time_elapsed":1997972,"internal_node_id":"0.0-11.0-12.0"},{"rt":7246.800000022631,"grid":[[1,1,1,1]],"target":[0,0],"response":[0,0],"correct":true,"juego":8,"trial_type":"serial-reaction-time-mouse","trial_index":71,"time_elapsed":2005223,"internal_node_id":"0.0-11.0-13.0"},{"rt":9077.19999999972,"grid":[[1,1,1,1]],"target":[0,0],"response":[0,3],"correct":false,"juego":9,"trial_type":"serial-reaction-time-mouse","trial_index":72,"time_elapsed":2014303,"internal_node_id":"0.0-11.0-14.0"},{"rt":2613.400000031106,"stimulus":"<h1>Último juego</h1><p style=\"font-size: 130%;\">Tienes <span style=\"color:red\">25</span> segundos para recordar los pares de palabras que aparecerán a continuación. <br></p>","response":0,"trial_type":"html-button-response","trial_index":73,"time_elapsed":2016924,"internal_node_id":"0.0-12.0"},{"animation_sequence":[{"stimulus":"imagen_juego_interferencia.jpg","time":602.599999983795},{"stimulus":"imagen_juego_interferencia.jpg","time":1011.1000000033528},{"stimulus":"imagen_juego_interferencia.jpg","time":1511.5000000223517},{"stimulus":"imagen_juego_interferencia.jpg","time":2011.5999999688938},{"stimulus":"imagen_juego_interferencia.jpg","time":2511.6999999736436},{"stimulus":"imagen_juego_interferencia.jpg","time":3012.1999999973923},{"stimulus":"imagen_juego_interferencia.jpg","time":3511.3000000128523},{"stimulus":"imagen_juego_interferencia.jpg","time":4011.1000000033528},{"stimulus":"imagen_juego_interferencia.jpg","time":4512.199999997392},{"stimulus":"imagen_juego_interferencia.jpg","time":5011.2000000081025},{"stimulus":"imagen_juego_interferencia.jpg","time":5511.100000003353},{"stimulus":"imagen_juego_interferencia.jpg","time":6011.899999983143},{"stimulus":"imagen_juego_interferencia.jpg","time":6511.100000003353},{"stimulus":"imagen_juego_interferencia.jpg","time":7011.100000003353},{"stimulus":"imagen_juego_interferencia.jpg","time":7511.2000000081025},{"stimulus":"imagen_juego_interferencia.jpg","time":8011.899999983143},{"stimulus":"imagen_juego_interferencia.jpg","time":8511.200000008103},{"stimulus":"imagen_juego_interferencia.jpg","time":9012.300000002142},{"stimulus":"imagen_juego_interferencia.jpg","time":9510.999999998603},{"stimulus":"imagen_juego_interferencia.jpg","time":10011.699999973644},{"stimulus":"imagen_juego_interferencia.jpg","time":10511.400000017602},{"stimulus":"imagen_juego_interferencia.jpg","time":11011.200000008103},{"stimulus":"imagen_juego_interferencia.jpg","time":11510.300000023562},{"stimulus":"imagen_juego_interferencia.jpg","time":12012.199999997392},{"stimulus":"imagen_juego_interferencia.jpg","time":12511.300000012852},{"stimulus":"imagen_juego_interferencia.jpg","time":13012.099999992643},{"stimulus":"imagen_juego_interferencia.jpg","time":13511.300000012852},{"stimulus":"imagen_juego_interferencia.jpg","time":14011.200000008103},{"stimulus":"imagen_juego_interferencia.jpg","time":14511.100000003353},{"stimulus":"imagen_juego_interferencia.jpg","time":15011.100000003353},{"stimulus":"imagen_juego_interferencia.jpg","time":15510.999999998603},{"stimulus":"imagen_juego_interferencia.jpg","time":16011.999999987893},{"stimulus":"imagen_juego_interferencia.jpg","time":16511.400000017602},{"stimulus":"imagen_juego_interferencia.jpg","time":17011.100000003353},{"stimulus":"imagen_juego_interferencia.jpg","time":17511.100000003353},{"stimulus":"imagen_juego_interferencia.jpg","time":18011.50000002235},{"stimulus":"imagen_juego_interferencia.jpg","time":18511.300000012852},{"stimulus":"imagen_juego_interferencia.jpg","time":19011.200000008103},{"stimulus":"imagen_juego_interferencia.jpg","time":19510.899999993853},{"stimulus":"imagen_juego_interferencia.jpg","time":20011.200000008103},{"stimulus":"imagen_juego_interferencia.jpg","time":20512.099999992643},{"stimulus":"imagen_juego_interferencia.jpg","time":21010.999999998603},{"stimulus":"imagen_juego_interferencia.jpg","time":21509.699999995064},{"stimulus":"imagen_juego_interferencia.jpg","time":22009.900000004563},{"stimulus":"imagen_juego_interferencia.jpg","time":22509.799999999814},{"stimulus":"imagen_juego_interferencia.jpg","time":23009.699999995064},{"stimulus":"imagen_juego_interferencia.jpg","time":23509.599999990314},{"stimulus":"imagen_juego_interferencia.jpg","time":24011.400000017602},{"stimulus":"imagen_juego_interferencia.jpg","time":24511.200000008103},{"stimulus":"imagen_juego_interferencia.jpg","time":25011.100000003353}],"response":[],"trial_type":"animation","trial_index":74,"time_elapsed":2042437,"internal_node_id":"0.0-13.0"},{"rt":11482.599999988452,"responses":"{\"pregunta interferencia4\":\"conserje\"}","question_order":"[0]","trial_type":"survey-multi-choice-cuest","trial_index":75,"time_elapsed":2053925,"internal_node_id":"0.0-14.0-0.0"},{"rt":4658.300000010058,"responses":"{\"pregunta interferencia2\":\"saltamontes\"}","question_order":"[0]","trial_type":"survey-multi-choice-cuest","trial_index":76,"time_elapsed":2058589,"internal_node_id":"0.0-14.0-1.0"},{"rt":2780.7000000029802,"responses":"{\"pregunta interferencia1\":\"naranja\"}","question_order":"[0]","trial_type":"survey-multi-choice-cuest","trial_index":77,"time_elapsed":2061377,"internal_node_id":"0.0-14.0-2.0"},{"rt":4401.499999978114,"responses":"{\"pregunta interferencia3\":\"aluminio\"}","question_order":"[0]","trial_type":"survey-multi-choice-cuest","trial_index":78,"time_elapsed":2065785,"internal_node_id":"0.0-14.0-3.0"},{"success":true,"trial_type":"fullscreen","trial_index":79,"time_elapsed":2066809,"internal_node_id":"0.0-15.0"}]