[{"rt":187342.80000019073,"stimulus":"<h1 style=\"color:red; margin-top: 3%;\">¡Bienvenido(a)!</h1><p style=\"text-align:left; justify-content:space-between; margin-right: 5%; margin-left: 5%; margin-top: 5%\"> Antes de empezar el estudio, necesitamos que nos confirmes que estás de acuerdo con participar. Recuerda que tu participación es 100% voluntaria y que lo único que te pedimos es responder lo mejor que puedas. Recuerda también que el estudio incluye:</p><ol style=\"text-align:left; justify-content:space-between; margin-right: 5%; margin-left: 5%;\"><li> un ejercicio de resolución de preguntas de selección múltiple (30’),</li><li>un cuestionario breve (5’),</li><li>un juego muy breve (3’),</li></ol><p style=\"text-align:left; justify-content:space-between; margin-right: 5%; margin-left: 5%;\">Si quieres participar, haz clic en “Acepto” luego de leer lo siguiente:<br></p><p style=\"text-align:left; justify-content:space-between; margin-right: 5%; margin-left: 5%;\">Acepto participar en el estudio “Estrategias de lectura y resolución de preguntas de selección múltiple”, en los términos aquí señalados:<br></p><p style=\"text-align:left; justify-content:space-between; margin-right: 5%; margin-left: 5%;\"><a href=\"http://ciae.uchile.cl/download.php?file=noticias/Asentimiento.pdf\" target=\"_blank\">Link a la hoja de información del Consentimiento.</a></p><p style=\"text-align:left; justify-content:space-between; margin-right: 5%; margin-left: 5%;\">Declaro que he leído (o se me ha leído) y (he) comprendido, las condiciones de mi participación en este estudio. He tenido la oportunidad de hacer preguntas y éstas han sido respondidas. No tengo dudas al respecto.</p>","response":0,"condicion_MCQ":3,"condicion_JUEGO":15,"condicion_INTER":15,"numero_participante":63,"numero_version":1,"dimx":1366,"dimy":768,"color_profundidad":24,"pixel_profundidad":24,"Browser":"Google Chrome","dia":7,"mes":5,"hora":17,"minuto":25,"segundo":7,"trial_type":"html-button-response","trial_index":0,"time_elapsed":187362,"internal_node_id":"0.0-0.0"},{"success":true,"trial_type":"fullscreen","trial_index":1,"time_elapsed":198262,"internal_node_id":"0.0-1.0"},{"rt":148429.39999985695,"responses":"{\"Nombres\":\"tamara antonia\",\"Apellidos\":\"jara abarca\",\"Edad\":\"18\",\"Sexo\":\"mujer\",\"Curso\":\"sección 204\",\"Colegio\":\"universidad Andrés Bello \",\"Contacto\":\"tamarajaraabarca01@gmail.com\"}","trial_type":"survey-text","trial_index":2,"time_elapsed":346730,"internal_node_id":"0.0-2.0"},{"success":true,"timeout":false,"failed_images":[],"failed_audio":[],"failed_video":[],"trial_type":"preload","trial_index":3,"time_elapsed":350129,"internal_node_id":"0.0-3.0"},{"rt":30462,"stimulus":"<h1 style:\"margin-top: 5%;\">Ejercicios de Comprensión de Lectura de la Universidad de Chile</h1><p style=\"font-size: 120%;\">En esta actividad, debes responder 24 preguntas de selección múltiple. Cada pregunta presenta 4 respuestas alternativas, pero sólo una de ellas es correcta. Por lo tanto, debes escoger una sola alternativa para cada pregunta. Además, debes reportar qué tan seguro(a) estás de la respuesta que das, con un:</p><ol style=\"font-size: 120%;text-align:left;margin-left: 40%;\"><li>No estoy seguro(a) para nada</li><li>No estoy muy seguro(a)</li><li>Estoy bastante seguro(a)</li><li>Estoy totalmente seguro(a)</li></ol><p style=\"font-size: 120%;\">Por favor lee bien los enunciados antes de responder. ¡Éxito!</p>","response":0,"trial_type":"html-button-response","trial_index":4,"time_elapsed":380599,"internal_node_id":"0.0-4.0"},{"rt":273082.2000000477,"responses":"{\"pregunta5\":\"c) Los momentos triviales de los viajes, en la escritura se vuelven significativos.\"}","question_order":"[0]","trial_type":"survey-multi-choice","trial_index":5,"time_elapsed":653691,"internal_node_id":"0.0-5.0-0.0"},{"rt":5648.5,"response":{"pregunta5 likert":3},"question_order":[0],"trial_type":"survey-likert","trial_index":6,"time_elapsed":659350,"internal_node_id":"0.0-5.0-1.0"},{"rt":128078.5,"responses":"{\"pregunta8\":\"d) El ser humano se comporta de acuerdo con las circunstancias.\"}","question_order":"[0]","trial_type":"survey-multi-choice","trial_index":7,"time_elapsed":787438,"internal_node_id":"0.0-5.0-2.0"},{"rt":3150.100000143051,"response":{"pregunta8 likert":3},"question_order":[0],"trial_type":"survey-likert","trial_index":8,"time_elapsed":790597,"internal_node_id":"0.0-5.0-3.0"},{"rt":75429.09999990463,"responses":"{\"pregunta3\":\"d) Las grandes civilizaciones autóctonas.\"}","question_order":"[0]","trial_type":"survey-multi-choice","trial_index":9,"time_elapsed":866032,"internal_node_id":"0.0-5.0-4.0"},{"rt":2543.2000000476837,"response":{"pregunta3 likert":2},"question_order":[0],"trial_type":"survey-likert","trial_index":10,"time_elapsed":868585,"internal_node_id":"0.0-5.0-5.0"},{"rt":95418.59999990463,"responses":"{\"pregunta19\":\"d) llevan un control grupal de su embarazo.\"}","question_order":"[0]","trial_type":"survey-multi-choice","trial_index":11,"time_elapsed":964012,"internal_node_id":"0.0-5.0-6.0"},{"rt":3137,"response":{"pregunta19 likert":2},"question_order":[0],"trial_type":"survey-likert","trial_index":12,"time_elapsed":967159,"internal_node_id":"0.0-5.0-7.0"},{"rt":83442.09999990463,"responses":"{\"pregunta13\":\"a) Al premio merecido después de tantos esfuerzos.\"}","question_order":"[0]","trial_type":"survey-multi-choice","trial_index":13,"time_elapsed":1050609,"internal_node_id":"0.0-5.0-8.0"},{"rt":2813.899999856949,"response":{"pregunta13 likert":3},"question_order":[0],"trial_type":"survey-likert","trial_index":14,"time_elapsed":1053434,"internal_node_id":"0.0-5.0-9.0"},{"rt":80392.30000019073,"responses":"{\"pregunta23\":\"a) el jardinero estará muerto al día siguiente.\"}","question_order":"[0]","trial_type":"survey-multi-choice","trial_index":15,"time_elapsed":1133838,"internal_node_id":"0.0-5.0-10.0"},{"rt":2902.5,"response":{"pregunta23 likert":3},"question_order":[0],"trial_type":"survey-likert","trial_index":16,"time_elapsed":1136749,"internal_node_id":"0.0-5.0-11.0"},{"rt":85094.90000009537,"responses":"{\"pregunta7\":\"c) se da como existente, y sólo se discute su relación con el cuerpo.\"}","question_order":"[0]","trial_type":"survey-multi-choice","trial_index":17,"time_elapsed":1221851,"internal_node_id":"0.0-5.0-12.0"},{"rt":2731.9000000953674,"response":{"pregunta7 likert":2},"question_order":[0],"trial_type":"survey-likert","trial_index":18,"time_elapsed":1224589,"internal_node_id":"0.0-5.0-13.0"},{"rt":141568.90000009537,"responses":"{\"pregunta12\":\"c) Atraer a los turistas.\"}","question_order":"[0]","trial_type":"survey-multi-choice","trial_index":19,"time_elapsed":1366165,"internal_node_id":"0.0-5.0-14.0"},{"rt":4318.700000047684,"response":{"pregunta12 likert":1},"question_order":[0],"trial_type":"survey-likert","trial_index":20,"time_elapsed":1370491,"internal_node_id":"0.0-5.0-15.0"},{"rt":65243.90000009537,"responses":"{\"pregunta9\":\"d) preparar los recuerdos del mañana.\"}","question_order":"[0]","trial_type":"survey-multi-choice","trial_index":21,"time_elapsed":1435741,"internal_node_id":"0.0-5.0-16.0"},{"rt":3314.2000000476837,"response":{"pregunta9 likert":3},"question_order":[0],"trial_type":"survey-likert","trial_index":22,"time_elapsed":1439063,"internal_node_id":"0.0-5.0-17.0"},{"rt":49165.90000009537,"responses":"{\"pregunta15\":\"c) la creación de elementos químicos artificiales ha resultado de la manipulación del uranio.\"}","question_order":"[0]","trial_type":"survey-multi-choice","trial_index":23,"time_elapsed":1488236,"internal_node_id":"0.0-5.0-18.0"},{"rt":4417.400000095367,"response":{"pregunta15 likert":3},"question_order":[0],"trial_type":"survey-likert","trial_index":24,"time_elapsed":1492662,"internal_node_id":"0.0-5.0-19.0"},{"rt":135653.09999990463,"responses":"{\"pregunta14\":\"d) sólo las leyes bastan para gobernarse.\"}","question_order":"[0]","trial_type":"survey-multi-choice","trial_index":25,"time_elapsed":1628322,"internal_node_id":"0.0-5.0-20.0"},{"rt":4317.700000047684,"response":{"pregunta14 likert":3},"question_order":[0],"trial_type":"survey-likert","trial_index":26,"time_elapsed":1632648,"internal_node_id":"0.0-5.0-21.0"},{"rt":91249.40000009537,"responses":"{\"pregunta18\":\"b) La publicidad es dañina para sus receptores.\"}","question_order":"[0]","trial_type":"survey-multi-choice","trial_index":27,"time_elapsed":1723905,"internal_node_id":"0.0-5.0-22.0"},{"rt":2731.5999999046326,"response":{"pregunta18 likert":3},"question_order":[0],"trial_type":"survey-likert","trial_index":28,"time_elapsed":1726644,"internal_node_id":"0.0-5.0-23.0"},{"rt":44573.5,"responses":"{\"pregunta24\":\"a) para el mexicano, la muerte es cotidiana.\"}","question_order":"[0]","trial_type":"survey-multi-choice","trial_index":29,"time_elapsed":1771226,"internal_node_id":"0.0-5.0-24.0"},{"rt":3970.7999999523163,"response":{"pregunta24 likert":3},"question_order":[0],"trial_type":"survey-likert","trial_index":30,"time_elapsed":1775202,"internal_node_id":"0.0-5.0-25.0"},{"rt":92726.19999980927,"responses":"{\"pregunta17\":\"c) A la influencia de grupos que rechazaban su música.\"}","question_order":"[0]","trial_type":"survey-multi-choice","trial_index":31,"time_elapsed":1867941,"internal_node_id":"0.0-5.0-26.0"},{"rt":3090.7000000476837,"response":{"pregunta17 likert":2},"question_order":[0],"trial_type":"survey-likert","trial_index":32,"time_elapsed":1871040,"internal_node_id":"0.0-5.0-27.0"},{"rt":236592.89999985695,"responses":"{\"pregunta10\":\"d) ritualistas y obsesivos.\"}","question_order":"[0]","trial_type":"survey-multi-choice","trial_index":33,"time_elapsed":2107642,"internal_node_id":"0.0-5.0-28.0"},{"rt":2478.7000000476837,"response":{"pregunta10 likert":3},"question_order":[0],"trial_type":"survey-likert","trial_index":34,"time_elapsed":2110130,"internal_node_id":"0.0-5.0-29.0"},{"rt":307531.7000000477,"responses":"{\"pregunta20\":\"d) para Aristóteles la virtud estaba en el justo equilibrio.\"}","question_order":"[0]","trial_type":"survey-multi-choice","trial_index":35,"time_elapsed":2417669,"internal_node_id":"0.0-5.0-30.0"},{"rt":3560.899999856949,"response":{"pregunta20 likert":2},"question_order":[0],"trial_type":"survey-likert","trial_index":36,"time_elapsed":2421237,"internal_node_id":"0.0-5.0-31.0"},{"rt":73310.69999980927,"responses":"{\"pregunta11\":\"b) Deleitar a sus receptores por medio de la belleza y el confort\"}","question_order":"[0]","trial_type":"survey-multi-choice","trial_index":37,"time_elapsed":2494555,"internal_node_id":"0.0-5.0-32.0"},{"rt":3040.0999999046326,"response":{"pregunta11 likert":3},"question_order":[0],"trial_type":"survey-likert","trial_index":38,"time_elapsed":2497601,"internal_node_id":"0.0-5.0-33.0"},{"rt":115732.09999990463,"responses":"{\"pregunta22\":\"d) Se necesita un marco legal para delimitar lo público y lo privado en materia informativa.\"}","question_order":"[0]","trial_type":"survey-multi-choice","trial_index":39,"time_elapsed":2613340,"internal_node_id":"0.0-5.0-34.0"},{"rt":10053.200000047684,"response":{"pregunta22 likert":3},"question_order":[0],"trial_type":"survey-likert","trial_index":40,"time_elapsed":2623400,"internal_node_id":"0.0-5.0-35.0"},{"rt":90406.29999995232,"responses":"{\"pregunta4\":\"b) En la literatura como en la vida, lo importante son las preguntas.\"}","question_order":"[0]","trial_type":"survey-multi-choice","trial_index":41,"time_elapsed":2713813,"internal_node_id":"0.0-5.0-36.0"},{"rt":2198,"response":{"pregunta4 likert":2},"question_order":[0],"trial_type":"survey-likert","trial_index":42,"time_elapsed":2716017,"internal_node_id":"0.0-5.0-37.0"},{"rt":46290.799999952316,"responses":"{\"pregunta16\":\"b) Bomberos debería tener acceso a un seguro médico, al que pueda recurrir en caso de accidente.\"}","question_order":"[0]","trial_type":"survey-multi-choice","trial_index":43,"time_elapsed":2762315,"internal_node_id":"0.0-5.0-38.0"},{"rt":2558.199999809265,"response":{"pregunta16 likert":3},"question_order":[0],"trial_type":"survey-likert","trial_index":44,"time_elapsed":2764880,"internal_node_id":"0.0-5.0-39.0"},{"rt":16865603.399999857,"responses":"{\"pregunta1\":\"b) Entregan una característica detallada del personaje, a través de la voz narrativa.\"}","question_order":"[0]","trial_type":"survey-multi-choice","trial_index":45,"time_elapsed":19625266,"internal_node_id":"0.0-5.0-40.0"},{"rt":5715.899999856949,"response":{"pregunta1 likert":2},"question_order":[0],"trial_type":"survey-likert","trial_index":46,"time_elapsed":19630989,"internal_node_id":"0.0-5.0-41.0"},{"rt":109579.10000014305,"responses":"{\"pregunta6\":\"a) Criticar la mezcla de estilos que se puede observar en la muestra que exhibe Casa Mater.\"}","question_order":"[0]","trial_type":"survey-multi-choice","trial_index":47,"time_elapsed":19740575,"internal_node_id":"0.0-5.0-42.0"},{"rt":2331.7000000476837,"response":{"pregunta6 likert":2},"question_order":[0],"trial_type":"survey-likert","trial_index":48,"time_elapsed":19742914,"internal_node_id":"0.0-5.0-43.0"},{"rt":30164.89999985695,"responses":"{\"pregunta21\":\"b) El TLC causará una completa transformación de la economía chilena.\"}","question_order":"[0]","trial_type":"survey-multi-choice","trial_index":49,"time_elapsed":19773085,"internal_node_id":"0.0-5.0-44.0"},{"rt":2381.2000000476837,"response":{"pregunta21 likert":3},"question_order":[0],"trial_type":"survey-likert","trial_index":50,"time_elapsed":19775473,"internal_node_id":"0.0-5.0-45.0"},{"rt":118659.70000004768,"responses":"{\"pregunta2\":\"a) A la relación entre sociedad y constitución social.\"}","question_order":"[0]","trial_type":"survey-multi-choice","trial_index":51,"time_elapsed":19894142,"internal_node_id":"0.0-5.0-46.0"},{"rt":4469.599999904633,"response":{"pregunta2 likert":2},"question_order":[0],"trial_type":"survey-likert","trial_index":52,"time_elapsed":19898618,"internal_node_id":"0.0-5.0-47.0"},{"rt":3183.300000190735,"stimulus":"<p style=\"font-size: 120%\">Gracias por completar esta etapa del estudio. Ahora te invitamos a responder el cuestionario.<br><br></p>","response":0,"trial_type":"html-button-response","trial_index":53,"time_elapsed":19901831,"internal_node_id":"0.0-6.0"},{"rt":14954.799999952316,"stimulus":"<h1 style=\"margin-top: 5%\">Cuestionario para la Evaluación de Metas Académicas</h1><p style=\"font-size: 120%; margin-left: 3%; margin-top: 5%\">Este es un cuestionario que permite conocer cuáles son los principales motivos por los que los estudiantes se esfuerzan en su trabajo académico. A continuación, se te presentarán una serie de afirmaciones acerca de los motivos que puedes tener para estudiar.<br>Te pedimos que contestes a dichas afirmaciones reflexionando sobre el contenido de cada una de ellas, que, aunque te parezcan semejantes, en realidad, no lo son.<br>NO HAY RESPUESTAS CORRECTAS o INCORRECTAS, sólo queremos que respondas con la mayor precisión y sinceridad posible a las preguntas que se plantean.","response":0,"trial_type":"html-button-response","trial_index":54,"time_elapsed":19916791,"internal_node_id":"0.0-7.0"},{"rt":99321.69999980927,"response":{"Metas cuestionario pregunta1":2,"Metas cuestionario pregunta2":2,"Metas cuestionario pregunta3":3,"Metas cuestionario pregunta4":2,"Metas cuestionario pregunta5":3,"Metas cuestionario pregunta6":2,"Metas cuestionario pregunta7":3,"Metas cuestionario pregunta8":2,"Metas cuestionario pregunta9":3,"Metas cuestionario pregunta10":0,"Metas cuestionario pregunta11":0,"Metas cuestionario pregunta12":1,"Metas cuestionario pregunta13":3,"Metas cuestionario pregunta14":0,"Metas cuestionario pregunta15":3,"Metas cuestionario pregunta16":3,"Metas cuestionario pregunta17":3,"Metas cuestionario pregunta18":3,"Metas cuestionario pregunta19":4,"Metas cuestionario pregunta20":3},"question_order":[0,1,2,3,4,5,6,7,8,9,10,11,12,13,14,15,16,17,18,19],"trial_type":"survey-likert","trial_index":55,"time_elapsed":20016140,"internal_node_id":"0.0-8.0"},{"rt":1634.3999998569489,"stimulus":"<p style=\"font-size: 120%\">Gracias por responder el cuestionario. Ahora te invitamos a seguir con el juego, que es muy breve.<br><br></p>","response":0,"trial_type":"html-button-response","trial_index":56,"time_elapsed":20017792,"internal_node_id":"0.0-9.0"},{"rt":6128.200000047684,"stimulus":"<h1>Juego</h1><p style=\"font-size: 120%;\">A continuación se te presentarán 16 pequeñas historias.<br>Por favor lee el texto presentado en cada una de ellas y luego haz click en el objeto de tu elección.<br>Si estás listo(a),<span style=\"color:red;\"> haz click en \"comenzar\"</span>.</p>","response":0,"trial_type":"html-button-response","trial_index":57,"time_elapsed":20023926,"internal_node_id":"0.0-10.0"},{"rt":14743.200000047684,"grid":[[1,1,1],[1,1,1],[1,1,1],[1,1,1],[1,1,1],[1,1,1],[1,1,1],[1,1,1],[1,1,1]],"target":[0,0],"response":[3,1],"correct":false,"juego":5,"trial_type":"serial-reaction-time-mouse","trial_index":58,"time_elapsed":20038681,"internal_node_id":"0.0-11.0-0.0"},{"rt":7661.799999952316,"grid":[[1,1,1,1]],"target":[0,0],"response":[0,2],"correct":false,"juego":9,"trial_type":"serial-reaction-time-mouse","trial_index":59,"time_elapsed":20046347,"internal_node_id":"0.0-11.0-1.0"},{"rt":5273.099999904633,"grid":[[1,1,1],[1,1,1],[1,1,1],[1,1,1],[1,1,1],[1,1,1],[1,1,1],[1,1,1],[1,1,1]],"target":[0,0],"response":[7,1],"correct":false,"juego":6,"trial_type":"serial-reaction-time-mouse","trial_index":60,"time_elapsed":20051631,"internal_node_id":"0.0-11.0-2.0"},{"rt":12225.299999952316,"grid":[[1,1,1,1]],"target":[0,0],"response":[0,1],"correct":false,"juego":12,"trial_type":"serial-reaction-time-mouse","trial_index":61,"time_elapsed":20063863,"internal_node_id":"0.0-11.0-3.0"},{"rt":4902.599999904633,"grid":[[1,1,1,1]],"target":[0,0],"response":[0,1],"correct":false,"juego":7,"trial_type":"serial-reaction-time-mouse","trial_index":62,"time_elapsed":20068773,"internal_node_id":"0.0-11.0-4.0"},{"rt":6994.5,"grid":[[1,1,1,1]],"target":[0,0],"response":[0,1],"correct":false,"juego":2,"trial_type":"serial-reaction-time-mouse","trial_index":63,"time_elapsed":20075776,"internal_node_id":"0.0-11.0-5.0"},{"rt":7017.5,"grid":[[1,1,1,1]],"target":[0,0],"response":[0,0],"correct":true,"juego":3,"trial_type":"serial-reaction-time-mouse","trial_index":64,"time_elapsed":20082801,"internal_node_id":"0.0-11.0-6.0"},{"rt":7607.5,"grid":[[1,1,1,1],[1,1,1,1],[1,1,1,1],[1,1,1,1],[1,1,1,1],[1,1,1,1],[1,1,1,1],[1,1,1,1],[1,1,1,1]],"target":[0,0],"response":[3,2],"correct":false,"juego":15,"trial_type":"serial-reaction-time-mouse","trial_index":65,"time_elapsed":20090421,"internal_node_id":"0.0-11.0-7.0"},{"rt":3540.4000000953674,"grid":[[1,1,1,1]],"target":[0,0],"response":[0,2],"correct":false,"juego":1,"trial_type":"serial-reaction-time-mouse","trial_index":66,"time_elapsed":20093969,"internal_node_id":"0.0-11.0-8.0"},{"rt":3723.7999999523163,"grid":[[1,1,1],[1,1,1],[1,1,1],[1,1,1],[1,1,1],[1,1,1],[1,1,1],[1,1,1],[1,1,1]],"target":[0,0],"response":[7,1],"correct":false,"juego":13,"trial_type":"serial-reaction-time-mouse","trial_index":67,"time_elapsed":20097705,"internal_node_id":"0.0-11.0-9.0"},{"rt":5849.200000047684,"grid":[[1,1,1,1],[1,1,1,1],[1,1,1,1],[1,1,1,1],[1,1,1,1],[1,1,1,1],[1,1,1,1],[1,1,1,1],[1,1,1,1]],"target":[0,0],"response":[1,2],"correct":false,"juego":14,"trial_type":"serial-reaction-time-mouse","trial_index":68,"time_elapsed":20103568,"internal_node_id":"0.0-11.0-10.0"},{"rt":4320.099999904633,"grid":[[1,1,1,1]],"target":[0,0],"response":[0,2],"correct":false,"juego":8,"trial_type":"serial-reaction-time-mouse","trial_index":69,"time_elapsed":20107895,"internal_node_id":"0.0-11.0-11.0"},{"rt":2789.699999809265,"grid":[[1],[1],[1],[1]],"target":[0,0],"response":[0,0],"correct":true,"juego":4,"trial_type":"serial-reaction-time-mouse","trial_index":70,"time_elapsed":20110690,"internal_node_id":"0.0-11.0-12.0"},{"rt":9019.099999904633,"grid":[[1,1,1],[1,1,1],[1,1,1],[1,1,1],[1,1,1],[1,1,1],[1,1,1],[1,1,1],[1,1,1]],"target":[0,0],"response":[1,2],"correct":false,"juego":10,"trial_type":"serial-reaction-time-mouse","trial_index":71,"time_elapsed":20119721,"internal_node_id":"0.0-11.0-13.0"},{"rt":7884.5,"grid":[[1,1,1,1]],"target":[0,0],"response":[0,2],"correct":false,"juego":11,"trial_type":"serial-reaction-time-mouse","trial_index":72,"time_elapsed":20127611,"internal_node_id":"0.0-11.0-14.0"}]