[{"rt":27067.109999945387,"stimulus":"<h1 style=\"color:red; margin-top: 3%;\">¡Bienvenido(a)!</h1><p style=\"text-align:left; justify-content:space-between; margin-right: 5%; margin-left: 5%; margin-top: 5%\"> Antes de empezar el estudio, necesitamos que nos confirmes que estás de acuerdo con participar. Recuerda que tu participación es 100% voluntaria y que lo único que te pedimos es responder lo mejor que puedas. Recuerda también que el estudio incluye:</p><ol style=\"text-align:left; justify-content:space-between; margin-right: 5%; margin-left: 5%;\"><li> un ejercicio de resolución de preguntas de selección múltiple (30’),</li><li>un cuestionario breve (5’),</li><li>un juego muy breve (3’),</li></ol><p style=\"text-align:left; justify-content:space-between; margin-right: 5%; margin-left: 5%;\">Si quieres participar, haz clic en “Acepto” luego de leer lo siguiente:<br></p><p style=\"text-align:left; justify-content:space-between; margin-right: 5%; margin-left: 5%;\">Acepto participar en el estudio “Estrategias de lectura y resolución de preguntas de selección múltiple”, en los términos aquí señalados:<br></p><p style=\"text-align:left; justify-content:space-between; margin-right: 5%; margin-left: 5%;\"><a href=\"http://ciae.uchile.cl/download.php?file=noticias/Asentimiento.pdf\" target=\"_blank\">Link a la hoja de información del Consentimiento.</a></p><p style=\"text-align:left; justify-content:space-between; margin-right: 5%; margin-left: 5%;\">Declaro que he leído (o se me ha leído) y (he) comprendido, las condiciones de mi participación en este estudio. He tenido la oportunidad de hacer preguntas y éstas han sido respondidas. No tengo dudas al respecto.</p>","response":0,"condicion_MCQ":12,"condicion_JUEGO":12,"condicion_INTER":12,"numero_participante":36,"numero_version":1,"dimx":1280,"dimy":720,"color_profundidad":24,"pixel_profundidad":24,"Browser":"Google Chrome","dia":3,"mes":5,"hora":22,"minuto":30,"segundo":2,"trial_type":"html-button-response","trial_index":0,"time_elapsed":27071,"internal_node_id":"0.0-0.0"},{"success":true,"trial_type":"fullscreen","trial_index":1,"time_elapsed":35429,"internal_node_id":"0.0-1.0"},{"rt":64863.82500012405,"responses":"{\"Nombres\":\"Santiago Teodoro\",\"Apellidos\":\"Begazo Orihuela\",\"Edad\":\"18\",\"Sexo\":\"hombre\",\"Curso\":\"Sección 204\",\"Colegio\":\"Universidad Andrés Bello\",\"Contacto\":\"santiagobegazodm@gmail.com\"}","trial_type":"survey-text","trial_index":2,"time_elapsed":100315,"internal_node_id":"0.0-2.0"},{"success":true,"timeout":false,"failed_images":[],"failed_audio":[],"failed_video":[],"trial_type":"preload","trial_index":3,"time_elapsed":102901,"internal_node_id":"0.0-3.0"},{"rt":19545.720000052825,"stimulus":"<h1 style:\"margin-top: 5%;\">Ejercicios de Comprensión de Lectura de la Universidad de Chile</h1><p style=\"font-size: 120%;\">En esta actividad, debes responder 24 preguntas de selección múltiple. Cada pregunta presenta 4 respuestas alternativas, pero sólo una de ellas es correcta. Por lo tanto, debes escoger una sola alternativa para cada pregunta. Además, debes reportar qué tan seguro(a) estás de la respuesta que das, con un:</p><ol style=\"font-size: 120%;text-align:left;margin-left: 40%;\"><li>No estoy seguro(a) para nada</li><li>No estoy muy seguro(a)</li><li>Estoy bastante seguro(a)</li><li>Estoy totalmente seguro(a)</li></ol><p style=\"font-size: 120%;\">Por favor lee bien los enunciados antes de responder. ¡Éxito!</p>","response":0,"trial_type":"html-button-response","trial_index":4,"time_elapsed":122449,"internal_node_id":"0.0-4.0"},{"rt":101559.40999998711,"responses":"{\"pregunta22\":\"c) Se necesita un marco legal para delimitar lo público y lo privado en materia informativa.\"}","question_order":"[0]","trial_type":"survey-multi-choice","trial_index":5,"time_elapsed":224010,"internal_node_id":"0.0-5.0-0.0"},{"rt":2755.8399999979883,"response":{"pregunta22 likert":1},"question_order":[0],"trial_type":"survey-likert","trial_index":6,"time_elapsed":226772,"internal_node_id":"0.0-5.0-1.0"},{"rt":56998.66999988444,"responses":"{\"pregunta2\":\"c) A la relación entre civilización y sociedad.\"}","question_order":"[0]","trial_type":"survey-multi-choice","trial_index":7,"time_elapsed":283773,"internal_node_id":"0.0-5.0-2.0"},{"rt":2243.254999862984,"response":{"pregunta2 likert":1},"question_order":[0],"trial_type":"survey-likert","trial_index":8,"time_elapsed":286018,"internal_node_id":"0.0-5.0-3.0"},{"rt":89819.70999995247,"responses":"{\"pregunta4\":\"a) En la literatura como en la vida, lo importante son las preguntas.\"}","question_order":"[0]","trial_type":"survey-multi-choice","trial_index":9,"time_elapsed":375840,"internal_node_id":"0.0-5.0-4.0"},{"rt":2562.8750000614673,"response":{"pregunta4 likert":1},"question_order":[0],"trial_type":"survey-likert","trial_index":10,"time_elapsed":378405,"internal_node_id":"0.0-5.0-5.0"},{"rt":84036.20999981649,"responses":"{\"pregunta18\":\"b) El receptor es habitualmente pasivo frente a la publicidad.\"}","question_order":"[0]","trial_type":"survey-multi-choice","trial_index":11,"time_elapsed":462442,"internal_node_id":"0.0-5.0-6.0"},{"rt":3491.0649999510497,"response":{"pregunta18 likert":2},"question_order":[0],"trial_type":"survey-likert","trial_index":12,"time_elapsed":465935,"internal_node_id":"0.0-5.0-7.0"},{"rt":73431.66999984533,"responses":"{\"pregunta10\":\"c) ritualistas y obsesivos.\"}","question_order":"[0]","trial_type":"survey-multi-choice","trial_index":13,"time_elapsed":539369,"internal_node_id":"0.0-5.0-8.0"},{"rt":2047.400000039488,"response":{"pregunta10 likert":2},"question_order":[0],"trial_type":"survey-likert","trial_index":14,"time_elapsed":541418,"internal_node_id":"0.0-5.0-9.0"},{"rt":44369.820000138134,"responses":"{\"pregunta16\":\"a) Bomberos debería tener acceso a un seguro médico, al que pueda recurrir en caso de accidente.\"}","question_order":"[0]","trial_type":"survey-multi-choice","trial_index":15,"time_elapsed":585789,"internal_node_id":"0.0-5.0-10.0"},{"rt":2163.3249998558313,"response":{"pregunta16 likert":2},"question_order":[0],"trial_type":"survey-likert","trial_index":16,"time_elapsed":587954,"internal_node_id":"0.0-5.0-11.0"},{"rt":51345.6199998036,"responses":"{\"pregunta21\":\"b) El TLC causará una completa transformación de la economía chilena.\"}","question_order":"[0]","trial_type":"survey-multi-choice","trial_index":17,"time_elapsed":639302,"internal_node_id":"0.0-5.0-12.0"},{"rt":2707.260000053793,"response":{"pregunta21 likert":2},"question_order":[0],"trial_type":"survey-likert","trial_index":18,"time_elapsed":642010,"internal_node_id":"0.0-5.0-13.0"},{"rt":74019.91500006989,"responses":"{\"pregunta3\":\"a) El inicio de la civilización china.\"}","question_order":"[0]","trial_type":"survey-multi-choice","trial_index":19,"time_elapsed":716032,"internal_node_id":"0.0-5.0-14.0"},{"rt":2067.2750000376254,"response":{"pregunta3 likert":1},"question_order":[0],"trial_type":"survey-likert","trial_index":20,"time_elapsed":718101,"internal_node_id":"0.0-5.0-15.0"},{"rt":104117.32499999925,"responses":"{\"pregunta5\":\"b) Los momentos triviales de los viajes, en la escritura se vuelven significativos.\"}","question_order":"[0]","trial_type":"survey-multi-choice","trial_index":21,"time_elapsed":822219,"internal_node_id":"0.0-5.0-16.0"},{"rt":2063.2299999706447,"response":{"pregunta5 likert":2},"question_order":[0],"trial_type":"survey-likert","trial_index":22,"time_elapsed":824284,"internal_node_id":"0.0-5.0-17.0"},{"rt":45137.605000054464,"responses":"{\"pregunta8\":\"a) El concepto de normalidad es diferente para un psiquiatra que para nosotros.\"}","question_order":"[0]","trial_type":"survey-multi-choice","trial_index":23,"time_elapsed":869465,"internal_node_id":"0.0-5.0-18.0"},{"rt":1991.0249998793006,"response":{"pregunta8 likert":1},"question_order":[0],"trial_type":"survey-likert","trial_index":24,"time_elapsed":871457,"internal_node_id":"0.0-5.0-19.0"},{"rt":54627.764999866486,"responses":"{\"pregunta7\":\"b) se da como existente, y sólo se discute su relación con el cuerpo.\"}","question_order":"[0]","trial_type":"survey-multi-choice","trial_index":25,"time_elapsed":926087,"internal_node_id":"0.0-5.0-20.0"},{"rt":1814.3500001169741,"response":{"pregunta7 likert":2},"question_order":[0],"trial_type":"survey-likert","trial_index":26,"time_elapsed":927903,"internal_node_id":"0.0-5.0-21.0"},{"rt":65908.44999998808,"responses":"{\"pregunta14\":\"d) sólo las leyes bastan para gobernarse.\"}","question_order":"[0]","trial_type":"survey-multi-choice","trial_index":27,"time_elapsed":993813,"internal_node_id":"0.0-5.0-22.0"},{"rt":2283.0950000789016,"response":{"pregunta14 likert":1},"question_order":[0],"trial_type":"survey-likert","trial_index":28,"time_elapsed":996098,"internal_node_id":"0.0-5.0-23.0"},{"rt":113649.7799998615,"responses":"{\"pregunta20\":\"d) el hombre excesivo es inmoral.\"}","question_order":"[0]","trial_type":"survey-multi-choice","trial_index":29,"time_elapsed":1109749,"internal_node_id":"0.0-5.0-24.0"},{"rt":2975.0749999657273,"response":{"pregunta20 likert":2},"question_order":[0],"trial_type":"survey-likert","trial_index":30,"time_elapsed":1112726,"internal_node_id":"0.0-5.0-25.0"},{"rt":83672.64000000432,"responses":"{\"pregunta19\":\"b) sufren dolores de espalda.\"}","question_order":"[0]","trial_type":"survey-multi-choice","trial_index":31,"time_elapsed":1196400,"internal_node_id":"0.0-5.0-26.0"},{"rt":2647.4000001326203,"response":{"pregunta19 likert":2},"question_order":[0],"trial_type":"survey-likert","trial_index":32,"time_elapsed":1199049,"internal_node_id":"0.0-5.0-27.0"},{"rt":70478.0749999918,"responses":"{\"pregunta23\":\"d) el jardinero estará muerto al día siguiente.\"}","question_order":"[0]","trial_type":"survey-multi-choice","trial_index":33,"time_elapsed":1269529,"internal_node_id":"0.0-5.0-28.0"},{"rt":3771.51000010781,"response":{"pregunta23 likert":2},"question_order":[0],"trial_type":"survey-likert","trial_index":34,"time_elapsed":1273303,"internal_node_id":"0.0-5.0-29.0"},{"rt":44318.12499999069,"responses":"{\"pregunta17\":\"a) A la inexistencia de un recinto adecuado para el recital.\"}","question_order":"[0]","trial_type":"survey-multi-choice","trial_index":35,"time_elapsed":1317622,"internal_node_id":"0.0-5.0-30.0"},{"rt":2142.7799998782575,"response":{"pregunta17 likert":2},"question_order":[0],"trial_type":"survey-likert","trial_index":36,"time_elapsed":1319767,"internal_node_id":"0.0-5.0-31.0"},{"rt":57340.24999989197,"responses":"{\"pregunta12\":\"d) Homenajear a quienes murieron.\"}","question_order":"[0]","trial_type":"survey-multi-choice","trial_index":37,"time_elapsed":1377109,"internal_node_id":"0.0-5.0-32.0"},{"rt":3303.665000014007,"response":{"pregunta12 likert":2},"question_order":[0],"trial_type":"survey-likert","trial_index":38,"time_elapsed":1380414,"internal_node_id":"0.0-5.0-33.0"},{"rt":73007.2400001809,"responses":"{\"pregunta1\":\"d) Aportan informaciones con las que se reconstruye el personaje dentro de un relato.\"}","question_order":"[0]","trial_type":"survey-multi-choice","trial_index":39,"time_elapsed":1453423,"internal_node_id":"0.0-5.0-34.0"},{"rt":2143.584999954328,"response":{"pregunta1 likert":2},"question_order":[0],"trial_type":"survey-likert","trial_index":40,"time_elapsed":1455568,"internal_node_id":"0.0-5.0-35.0"},{"rt":28171.72500002198,"responses":"{\"pregunta11\":\"d) Provocar el deseo de la adquisición vertiginosa.\"}","question_order":"[0]","trial_type":"survey-multi-choice","trial_index":41,"time_elapsed":1483742,"internal_node_id":"0.0-5.0-36.0"},{"rt":2206.3849999103695,"response":{"pregunta11 likert":2},"question_order":[0],"trial_type":"survey-likert","trial_index":42,"time_elapsed":1485951,"internal_node_id":"0.0-5.0-37.0"},{"rt":31676.06500000693,"responses":"{\"pregunta9\":\"c) preparar los recuerdos del mañana.\"}","question_order":"[0]","trial_type":"survey-multi-choice","trial_index":43,"time_elapsed":1517628,"internal_node_id":"0.0-5.0-38.0"},{"rt":1886.9399998802692,"response":{"pregunta9 likert":2},"question_order":[0],"trial_type":"survey-likert","trial_index":44,"time_elapsed":1519517,"internal_node_id":"0.0-5.0-39.0"},{"rt":116626.7700002063,"responses":"{\"pregunta6\":\"c) Presentar positivamente las diversas tendencias del diseño de interiores a través de un comentario.\"}","question_order":"[0]","trial_type":"survey-multi-choice","trial_index":45,"time_elapsed":1636145,"internal_node_id":"0.0-5.0-40.0"},{"rt":1995.0449999887496,"response":{"pregunta6 likert":2},"question_order":[0],"trial_type":"survey-likert","trial_index":46,"time_elapsed":1638142,"internal_node_id":"0.0-5.0-41.0"},{"rt":20507.11000012234,"responses":"{\"pregunta24\":\"b) la muerte es distinta en las grandes ciudades.\"}","question_order":"[0]","trial_type":"survey-multi-choice","trial_index":47,"time_elapsed":1658651,"internal_node_id":"0.0-5.0-42.0"},{"rt":1727.6150002144277,"response":{"pregunta24 likert":2},"question_order":[0],"trial_type":"survey-likert","trial_index":48,"time_elapsed":1660381,"internal_node_id":"0.0-5.0-43.0"},{"rt":33173.01499983296,"responses":"{\"pregunta15\":\"a) el uranio es el elemento natural con el mayor número de protones en el núcleo.\"}","question_order":"[0]","trial_type":"survey-multi-choice","trial_index":49,"time_elapsed":1693555,"internal_node_id":"0.0-5.0-44.0"},{"rt":2803.7849999964237,"response":{"pregunta15 likert":2},"question_order":[0],"trial_type":"survey-likert","trial_index":50,"time_elapsed":1696361,"internal_node_id":"0.0-5.0-45.0"},{"rt":35338.274999987334,"responses":"{\"pregunta13\":\"c) A la inutilidad de tanto esfuerzo si el objetivo es el reposo.\"}","question_order":"[0]","trial_type":"survey-multi-choice","trial_index":51,"time_elapsed":1731700,"internal_node_id":"0.0-5.0-46.0"},{"rt":2691.744999960065,"response":{"pregunta13 likert":2},"question_order":[0],"trial_type":"survey-likert","trial_index":52,"time_elapsed":1734394,"internal_node_id":"0.0-5.0-47.0"}]