[{"rt":70335.20000001788,"stimulus":"<h1 style=\"color:red; margin-top: 3%;\">¡Bienvenido(a)!</h1><p style=\"text-align:left; justify-content:space-between; margin-right: 5%; margin-left: 5%; margin-top: 5%\"> Antes de empezar el estudio, necesitamos que nos confirmes que estás de acuerdo con participar. Recuerda que tu participación es 100% voluntaria y que lo único que te pedimos es responder lo mejor que puedas. Recuerda también que el estudio incluye:</p><ol style=\"text-align:left; justify-content:space-between; margin-right: 5%; margin-left: 5%;\"><li> un ejercicio de resolución de preguntas de selección múltiple (30’),</li><li>un cuestionario breve (5’),</li><li>un juego muy breve (3’),</li></ol><p style=\"text-align:left; justify-content:space-between; margin-right: 5%; margin-left: 5%;\">Si quieres participar, haz clic en “Acepto” luego de leer lo siguiente:<br></p><p style=\"text-align:left; justify-content:space-between; margin-right: 5%; margin-left: 5%;\">Acepto participar en el estudio “Estrategias de lectura y resolución de preguntas de selección múltiple”, en los términos aquí señalados:<br></p><p style=\"text-align:left; justify-content:space-between; margin-right: 5%; margin-left: 5%;\"><a href=\"http://ciae.uchile.cl/download.php?file=noticias/Asentimiento.pdf\" target=\"_blank\">Link a la hoja de información del Consentimiento.</a></p><p style=\"text-align:left; justify-content:space-between; margin-right: 5%; margin-left: 5%;\">Declaro que he leído (o se me ha leído) y (he) comprendido, las condiciones de mi participación en este estudio. He tenido la oportunidad de hacer preguntas y éstas han sido respondidas. No tengo dudas al respecto.</p>","response":0,"condicion_MCQ":11,"condicion_JUEGO":11,"condicion_INTER":11,"numero_participante":83,"numero_version":1,"dimx":1366,"dimy":768,"color_profundidad":24,"pixel_profundidad":24,"Browser":"Google Chrome","dia":12,"mes":5,"hora":23,"minuto":24,"segundo":51,"trial_type":"html-button-response","trial_index":0,"time_elapsed":70350,"internal_node_id":"0.0-0.0"},{"success":true,"trial_type":"fullscreen","trial_index":1,"time_elapsed":228246,"internal_node_id":"0.0-1.0"},{"rt":97036.09999999404,"responses":"{\"Nombres\":\"hanais belén \",\"Apellidos\":\"ramireza andrade\",\"Edad\":\"19\",\"Sexo\":\"mujer \",\"Curso\":\"218\",\"Colegio\":\"Universidad Andrés bello \",\"Contacto\":\"hanaisramirezandrade14@gmail.com\"}","trial_type":"survey-text","trial_index":2,"time_elapsed":325369,"internal_node_id":"0.0-2.0"},{"success":true,"timeout":false,"failed_images":[],"failed_audio":[],"failed_video":[],"trial_type":"preload","trial_index":3,"time_elapsed":328500,"internal_node_id":"0.0-3.0"},{"rt":19336.90000000596,"stimulus":"<h1 style:\"margin-top: 5%;\">Ejercicios de Comprensión de Lectura de la Universidad de Chile</h1><p style=\"font-size: 120%;\">En esta actividad, debes responder 24 preguntas de selección múltiple. Cada pregunta presenta 4 respuestas alternativas, pero sólo una de ellas es correcta. Por lo tanto, debes escoger una sola alternativa para cada pregunta. Además, debes reportar qué tan seguro(a) estás de la respuesta que das, con un:</p><ol style=\"font-size: 120%;text-align:left;margin-left: 40%;\"><li>No estoy seguro(a) para nada</li><li>No estoy muy seguro(a)</li><li>Estoy bastante seguro(a)</li><li>Estoy totalmente seguro(a)</li></ol><p style=\"font-size: 120%;\">Por favor lee bien los enunciados antes de responder. ¡Éxito!</p>","response":0,"trial_type":"html-button-response","trial_index":4,"time_elapsed":347843,"internal_node_id":"0.0-4.0"},{"rt":71670.40000000596,"responses":"{\"pregunta6\":\"a) Presentar positivamente las diversas tendencias del diseño de interiores a través de un comentario.\"}","question_order":"[0]","trial_type":"survey-multi-choice","trial_index":5,"time_elapsed":419527,"internal_node_id":"0.0-5.0-0.0"},{"rt":5112.699999988079,"response":{"pregunta6 likert":3},"question_order":[0],"trial_type":"survey-likert","trial_index":6,"time_elapsed":424666,"internal_node_id":"0.0-5.0-1.0"},{"rt":67380.40000000596,"responses":"{\"pregunta23\":\"c) el jardinero estará muerto al día siguiente.\"}","question_order":"[0]","trial_type":"survey-multi-choice","trial_index":7,"time_elapsed":492070,"internal_node_id":"0.0-5.0-2.0"},{"rt":2326.399999976158,"response":{"pregunta23 likert":3},"question_order":[0],"trial_type":"survey-likert","trial_index":8,"time_elapsed":494421,"internal_node_id":"0.0-5.0-3.0"},{"rt":105405,"responses":"{\"pregunta14\":\"c) la muerte de Wu Ti fue una bendición.\"}","question_order":"[0]","trial_type":"survey-multi-choice","trial_index":9,"time_elapsed":599861,"internal_node_id":"0.0-5.0-4.0"},{"rt":2799.7000000178814,"response":{"pregunta14 likert":3},"question_order":[0],"trial_type":"survey-likert","trial_index":10,"time_elapsed":602681,"internal_node_id":"0.0-5.0-5.0"},{"rt":104556.09999999404,"responses":"{\"pregunta13\":\"d) Al premio merecido después de tantos esfuerzos.\"}","question_order":"[0]","trial_type":"survey-multi-choice","trial_index":11,"time_elapsed":707266,"internal_node_id":"0.0-5.0-6.0"},{"rt":4292.799999982119,"response":{"pregunta13 likert":3},"question_order":[0],"trial_type":"survey-likert","trial_index":12,"time_elapsed":711585,"internal_node_id":"0.0-5.0-7.0"},{"rt":104961.09999999404,"responses":"{\"pregunta12\":\"a) Atraer a los turistas.\"}","question_order":"[0]","trial_type":"survey-multi-choice","trial_index":13,"time_elapsed":816569,"internal_node_id":"0.0-5.0-8.0"},{"rt":2802.2000000178814,"response":{"pregunta12 likert":3},"question_order":[0],"trial_type":"survey-likert","trial_index":14,"time_elapsed":819396,"internal_node_id":"0.0-5.0-9.0"},{"rt":60410.19999998808,"responses":"{\"pregunta20\":\"b) para Aristóteles la virtud estaba en el justo equilibrio.\"}","question_order":"[0]","trial_type":"survey-multi-choice","trial_index":15,"time_elapsed":879837,"internal_node_id":"0.0-5.0-10.0"},{"rt":2632.5,"response":{"pregunta20 likert":3},"question_order":[0],"trial_type":"survey-likert","trial_index":16,"time_elapsed":882505,"internal_node_id":"0.0-5.0-11.0"},{"rt":47290.09999999404,"responses":"{\"pregunta5\":\"d) La escritura plasma los mejores momentos de los viajes.\"}","question_order":"[0]","trial_type":"survey-multi-choice","trial_index":17,"time_elapsed":929820,"internal_node_id":"0.0-5.0-12.0"},{"rt":3658.7999999821186,"response":{"pregunta5 likert":3},"question_order":[0],"trial_type":"survey-likert","trial_index":18,"time_elapsed":933510,"internal_node_id":"0.0-5.0-13.0"},{"rt":22104.59999999404,"responses":"{\"pregunta24\":\"a) la muerte es distinta en las grandes ciudades.\"}","question_order":"[0]","trial_type":"survey-multi-choice","trial_index":19,"time_elapsed":955643,"internal_node_id":"0.0-5.0-14.0"},{"rt":3248.9000000059605,"response":{"pregunta24 likert":3},"question_order":[0],"trial_type":"survey-likert","trial_index":20,"time_elapsed":958907,"internal_node_id":"0.0-5.0-15.0"},{"rt":47286.69999998808,"responses":"{\"pregunta18\":\"c) La publicidad ejerce una influencia positiva sobre la sociedad.\"}","question_order":"[0]","trial_type":"survey-multi-choice","trial_index":21,"time_elapsed":1006207,"internal_node_id":"0.0-5.0-16.0"},{"rt":2656.9000000059605,"response":{"pregunta18 likert":3},"question_order":[0],"trial_type":"survey-likert","trial_index":22,"time_elapsed":1008890,"internal_node_id":"0.0-5.0-17.0"},{"rt":92676.20000001788,"responses":"{\"pregunta9\":\"c) preparar los recuerdos del mañana.\"}","question_order":"[0]","trial_type":"survey-multi-choice","trial_index":23,"time_elapsed":1101587,"internal_node_id":"0.0-5.0-18.0"},{"rt":2802.9000000059605,"response":{"pregunta9 likert":3},"question_order":[0],"trial_type":"survey-likert","trial_index":24,"time_elapsed":1104426,"internal_node_id":"0.0-5.0-19.0"},{"rt":26075.59999999404,"responses":"{\"pregunta3\":\"d) Las grandes civilizaciones autóctonas.\"}","question_order":"[0]","trial_type":"survey-multi-choice","trial_index":25,"time_elapsed":1130534,"internal_node_id":"0.0-5.0-20.0"},{"rt":2622.300000011921,"response":{"pregunta3 likert":3},"question_order":[0],"trial_type":"survey-likert","trial_index":26,"time_elapsed":1133184,"internal_node_id":"0.0-5.0-21.0"},{"rt":42884.5,"responses":"{\"pregunta22\":\"c) Se necesita un marco legal para delimitar lo público y lo privado en materia informativa.\"}","question_order":"[0]","trial_type":"survey-multi-choice","trial_index":27,"time_elapsed":1176094,"internal_node_id":"0.0-5.0-22.0"},{"rt":2241.0999999940395,"response":{"pregunta22 likert":3},"question_order":[0],"trial_type":"survey-likert","trial_index":28,"time_elapsed":1178359,"internal_node_id":"0.0-5.0-23.0"},{"rt":50868.40000000596,"responses":"{\"pregunta8\":\"b) El ser humano se comporta de acuerdo con las circunstancias.\"}","question_order":"[0]","trial_type":"survey-multi-choice","trial_index":29,"time_elapsed":1229258,"internal_node_id":"0.0-5.0-24.0"},{"rt":4555.299999982119,"response":{"pregunta8 likert":3},"question_order":[0],"trial_type":"survey-likert","trial_index":30,"time_elapsed":1233846,"internal_node_id":"0.0-5.0-25.0"},{"rt":136796.5,"responses":"{\"pregunta19\":\"b) sufren dolores de espalda.\"}","question_order":"[0]","trial_type":"survey-multi-choice","trial_index":31,"time_elapsed":1370671,"internal_node_id":"0.0-5.0-26.0"},{"rt":2817.9000000059605,"response":{"pregunta19 likert":3},"question_order":[0],"trial_type":"survey-likert","trial_index":32,"time_elapsed":1373514,"internal_node_id":"0.0-5.0-27.0"},{"rt":72131.30000001192,"responses":"{\"pregunta15\":\"c) a partir de la manipulación del núcleo se han creado elementos químicos naturales.\"}","question_order":"[0]","trial_type":"survey-multi-choice","trial_index":33,"time_elapsed":1445669,"internal_node_id":"0.0-5.0-28.0"},{"rt":2811.399999976158,"response":{"pregunta15 likert":3},"question_order":[0],"trial_type":"survey-likert","trial_index":34,"time_elapsed":1448508,"internal_node_id":"0.0-5.0-29.0"},{"rt":41564.19999998808,"responses":"{\"pregunta7\":\"d) es una noción que obedece a una visión pesimista de la vida.\"}","question_order":"[0]","trial_type":"survey-multi-choice","trial_index":35,"time_elapsed":1490086,"internal_node_id":"0.0-5.0-30.0"},{"rt":2622,"response":{"pregunta7 likert":3},"question_order":[0],"trial_type":"survey-likert","trial_index":36,"time_elapsed":1492738,"internal_node_id":"0.0-5.0-31.0"},{"rt":26442.80000001192,"responses":"{\"pregunta21\":\"c) Nuestra economía vivirá un proceso de ajuste a la nueva realidad.\"}","question_order":"[0]","trial_type":"survey-multi-choice","trial_index":37,"time_elapsed":1519212,"internal_node_id":"0.0-5.0-32.0"},{"rt":2776,"response":{"pregunta21 likert":3},"question_order":[0],"trial_type":"survey-likert","trial_index":38,"time_elapsed":1522004,"internal_node_id":"0.0-5.0-33.0"},{"rt":7562.799999982119,"responses":"{\"pregunta4\":\"c) En la literatura como en la vida, todo es metáfora.\"}","question_order":"[0]","trial_type":"survey-multi-choice","trial_index":39,"time_elapsed":1529605,"internal_node_id":"0.0-5.0-34.0"},{"rt":3369.399999976158,"response":{"pregunta4 likert":3},"question_order":[0],"trial_type":"survey-likert","trial_index":40,"time_elapsed":1532995,"internal_node_id":"0.0-5.0-35.0"},{"rt":11467.09999999404,"responses":"{\"pregunta16\":\"a) Bomberos debería tener acceso a un seguro médico, al que pueda recurrir en caso de accidente.\"}","question_order":"[0]","trial_type":"survey-multi-choice","trial_index":41,"time_elapsed":1544480,"internal_node_id":"0.0-5.0-36.0"},{"rt":2414.300000011921,"response":{"pregunta16 likert":3},"question_order":[0],"trial_type":"survey-likert","trial_index":42,"time_elapsed":1546915,"internal_node_id":"0.0-5.0-37.0"},{"rt":39478.69999998808,"responses":"{\"pregunta17\":\"a) A la influencia de grupos que rechazaban su música.\"}","question_order":"[0]","trial_type":"survey-multi-choice","trial_index":43,"time_elapsed":1586405,"internal_node_id":"0.0-5.0-38.0"},{"rt":2534.7000000178814,"response":{"pregunta17 likert":3},"question_order":[0],"trial_type":"survey-likert","trial_index":44,"time_elapsed":1588967,"internal_node_id":"0.0-5.0-39.0"},{"rt":271980.1999999881,"responses":"{\"pregunta1\":\"b) Muestran las opiniones expuestas por los personajes en un relato.\"}","question_order":"[0]","trial_type":"survey-multi-choice","trial_index":45,"time_elapsed":1860976,"internal_node_id":"0.0-5.0-40.0"},{"rt":3260.199999988079,"response":{"pregunta1 likert":1},"question_order":[0],"trial_type":"survey-likert","trial_index":46,"time_elapsed":1864269,"internal_node_id":"0.0-5.0-41.0"},{"rt":22888.40000000596,"responses":"{\"pregunta2\":\"a) A la relación entre civilización y sociedad.\"}","question_order":"[0]","trial_type":"survey-multi-choice","trial_index":47,"time_elapsed":1887167,"internal_node_id":"0.0-5.0-42.0"},{"rt":4335.9000000059605,"response":{"pregunta2 likert":3},"question_order":[0],"trial_type":"survey-likert","trial_index":48,"time_elapsed":1891532,"internal_node_id":"0.0-5.0-43.0"},{"rt":9311.59999999404,"responses":"{\"pregunta11\":\"b) Poner en escena objetos y servicios.\"}","question_order":"[0]","trial_type":"survey-multi-choice","trial_index":49,"time_elapsed":1900880,"internal_node_id":"0.0-5.0-44.0"},{"rt":2703.0999999940395,"response":{"pregunta11 likert":2},"question_order":[0],"trial_type":"survey-likert","trial_index":50,"time_elapsed":1903616,"internal_node_id":"0.0-5.0-45.0"},{"rt":68090.30000001192,"responses":"{\"pregunta10\":\"b) religiosos y precavidos.\"}","question_order":"[0]","trial_type":"survey-multi-choice","trial_index":51,"time_elapsed":1971737,"internal_node_id":"0.0-5.0-46.0"},{"rt":2702,"response":{"pregunta10 likert":3},"question_order":[0],"trial_type":"survey-likert","trial_index":52,"time_elapsed":1974472,"internal_node_id":"0.0-5.0-47.0"}]