[{"rt":21305308.599999905,"stimulus":"<h1 style=\"color:red; margin-top: 3%;\">¡Bienvenido(a)!</h1><p style=\"text-align:left; justify-content:space-between; margin-right: 5%; margin-left: 5%; margin-top: 5%\"> Antes de empezar el estudio, necesitamos que nos confirmes que estás de acuerdo con participar. Recuerda que tu participación es 100% voluntaria y que lo único que te pedimos es responder lo mejor que puedas. Recuerda también que el estudio incluye:</p><ol style=\"text-align:left; justify-content:space-between; margin-right: 5%; margin-left: 5%;\"><li> un ejercicio de resolución de preguntas de selección múltiple (30’),</li><li>un cuestionario breve (5’),</li><li>un juego muy breve (3’),</li></ol><p style=\"text-align:left; justify-content:space-between; margin-right: 5%; margin-left: 5%;\">Si quieres participar, haz clic en “Acepto” luego de leer lo siguiente:<br></p><p style=\"text-align:left; justify-content:space-between; margin-right: 5%; margin-left: 5%;\">Acepto participar en el estudio “Estrategias de lectura y resolución de preguntas de selección múltiple”, en los términos aquí señalados:<br></p><p style=\"text-align:left; justify-content:space-between; margin-right: 5%; margin-left: 5%;\"><a href=\"http://ciae.uchile.cl/download.php?file=noticias/Asentimiento.pdf\" target=\"_blank\">Link a la hoja de información del Consentimiento.</a></p><p style=\"text-align:left; justify-content:space-between; margin-right: 5%; margin-left: 5%;\">Declaro que he leído (o se me ha leído) y (he) comprendido, las condiciones de mi participación en este estudio. He tenido la oportunidad de hacer preguntas y éstas han sido respondidas. No tengo dudas al respecto.</p>","response":0,"condicion_MCQ":5,"condicion_JUEGO":5,"condicion_INTER":5,"numero_participante":29,"numero_version":1,"dimx":1536,"dimy":864,"color_profundidad":24,"pixel_profundidad":24,"Browser":"Google Chrome","dia":3,"mes":5,"hora":12,"minuto":21,"segundo":24,"trial_type":"html-button-response","trial_index":0,"time_elapsed":21305255,"internal_node_id":"0.0-0.0"},{"success":true,"trial_type":"fullscreen","trial_index":1,"time_elapsed":21322418,"internal_node_id":"0.0-1.0"},{"rt":138832.89999985695,"responses":"{\"Nombres\":\"Carolina Andrea\",\"Apellidos\":\"Pereira Retamales \",\"Edad\":\"18\",\"Sexo\":\"Mujer\",\"Curso\":\"seccion 218\",\"Colegio\":\"Andres Bello \",\"Contacto\":\"carolina.pereira.retamales@gmail.com\"}","trial_type":"survey-text","trial_index":2,"time_elapsed":21461295,"internal_node_id":"0.0-2.0"},{"success":true,"timeout":false,"failed_images":[],"failed_audio":[],"failed_video":[],"trial_type":"preload","trial_index":3,"time_elapsed":21462320,"internal_node_id":"0.0-3.0"},{"rt":54787.10000014305,"stimulus":"<h1 style:\"margin-top: 5%;\">Ejercicios de Comprensión de Lectura de la Universidad de Chile</h1><p style=\"font-size: 120%;\">En esta actividad, debes responder 24 preguntas de selección múltiple. Cada pregunta presenta 4 respuestas alternativas, pero sólo una de ellas es correcta. Por lo tanto, debes escoger una sola alternativa para cada pregunta. Además, debes reportar qué tan seguro(a) estás de la respuesta que das, con un:</p><ol style=\"font-size: 120%;text-align:left;margin-left: 40%;\"><li>No estoy seguro(a) para nada</li><li>No estoy muy seguro(a)</li><li>Estoy bastante seguro(a)</li><li>Estoy totalmente seguro(a)</li></ol><p style=\"font-size: 120%;\">Por favor lee bien los enunciados antes de responder. ¡Éxito!</p>","response":0,"trial_type":"html-button-response","trial_index":4,"time_elapsed":21517110,"internal_node_id":"0.0-4.0"},{"rt":51650,"responses":"{\"pregunta24\":\"a) la muerte es distinta en las grandes ciudades.\"}","question_order":"[0]","trial_type":"survey-multi-choice","trial_index":5,"time_elapsed":21568763,"internal_node_id":"0.0-5.0-0.0"},{"rt":15987.200000047684,"response":{"pregunta24 likert":1},"question_order":[0],"trial_type":"survey-likert","trial_index":6,"time_elapsed":21584753,"internal_node_id":"0.0-5.0-1.0"},{"rt":263569.2999999523,"responses":"{\"pregunta8\":\"b) Lo que es normal en un asilo es anormal en un campo de concentración.\"}","question_order":"[0]","trial_type":"survey-multi-choice","trial_index":7,"time_elapsed":21848324,"internal_node_id":"0.0-5.0-2.0"},{"rt":3360,"response":{"pregunta8 likert":0},"question_order":[0],"trial_type":"survey-likert","trial_index":8,"time_elapsed":21851685,"internal_node_id":"0.0-5.0-3.0"},{"rt":84816.20000004768,"responses":"{\"pregunta2\":\"a) A la relación entre civilización y sociedad.\"}","question_order":"[0]","trial_type":"survey-multi-choice","trial_index":9,"time_elapsed":21936501,"internal_node_id":"0.0-5.0-4.0"},{"rt":2146.2999999523163,"response":{"pregunta2 likert":1},"question_order":[0],"trial_type":"survey-likert","trial_index":10,"time_elapsed":21938648,"internal_node_id":"0.0-5.0-5.0"},{"rt":92050.20000004768,"responses":"{\"pregunta14\":\"c) sólo las leyes bastan para gobernarse.\"}","question_order":"[0]","trial_type":"survey-multi-choice","trial_index":11,"time_elapsed":22030699,"internal_node_id":"0.0-5.0-6.0"},{"rt":2966.600000143051,"response":{"pregunta14 likert":1},"question_order":[0],"trial_type":"survey-likert","trial_index":12,"time_elapsed":22033667,"internal_node_id":"0.0-5.0-7.0"},{"rt":43434.299999952316,"responses":"{\"pregunta16\":\"c) Bomberos debería tener acceso a un seguro médico, al que pueda recurrir en caso de accidente.\"}","question_order":"[0]","trial_type":"survey-multi-choice","trial_index":13,"time_elapsed":22077103,"internal_node_id":"0.0-5.0-8.0"},{"rt":4203.5,"response":{"pregunta16 likert":2},"question_order":[0],"trial_type":"survey-likert","trial_index":14,"time_elapsed":22081308,"internal_node_id":"0.0-5.0-9.0"},{"rt":75369.29999995232,"responses":"{\"pregunta23\":\"b) el jardinero era un hombre viejo.\"}","question_order":"[0]","trial_type":"survey-multi-choice","trial_index":15,"time_elapsed":22156682,"internal_node_id":"0.0-5.0-10.0"},{"rt":2632.7999999523163,"response":{"pregunta23 likert":1},"question_order":[0],"trial_type":"survey-likert","trial_index":16,"time_elapsed":22159316,"internal_node_id":"0.0-5.0-11.0"},{"rt":87697.79999995232,"responses":"{\"pregunta13\":\"b) Al premio merecido después de tantos esfuerzos.\"}","question_order":"[0]","trial_type":"survey-multi-choice","trial_index":17,"time_elapsed":22247015,"internal_node_id":"0.0-5.0-12.0"},{"rt":5066.599999904633,"response":{"pregunta13 likert":0},"question_order":[0],"trial_type":"survey-likert","trial_index":18,"time_elapsed":22252083,"internal_node_id":"0.0-5.0-13.0"},{"rt":301123.10000014305,"responses":"{\"pregunta20\":\"c) el sujeto sufre con su modo de vida.\"}","question_order":"[0]","trial_type":"survey-multi-choice","trial_index":19,"time_elapsed":22553208,"internal_node_id":"0.0-5.0-14.0"},{"rt":2637.5999999046326,"response":{"pregunta20 likert":1},"question_order":[0],"trial_type":"survey-likert","trial_index":20,"time_elapsed":22555848,"internal_node_id":"0.0-5.0-15.0"},{"rt":262645.80000019073,"responses":"{\"pregunta22\":\"a) Se necesita un marco legal para delimitar lo público y lo privado en materia informativa.\"}","question_order":"[0]","trial_type":"survey-multi-choice","trial_index":21,"time_elapsed":22818493,"internal_node_id":"0.0-5.0-16.0"},{"rt":2649,"response":{"pregunta22 likert":1},"question_order":[0],"trial_type":"survey-likert","trial_index":22,"time_elapsed":22821144,"internal_node_id":"0.0-5.0-17.0"},{"rt":122510.5,"responses":"{\"pregunta10\":\"a) ritualistas y obsesivos.\"}","question_order":"[0]","trial_type":"survey-multi-choice","trial_index":23,"time_elapsed":22943657,"internal_node_id":"0.0-5.0-18.0"},{"rt":2203,"response":{"pregunta10 likert":1},"question_order":[0],"trial_type":"survey-likert","trial_index":24,"time_elapsed":22945892,"internal_node_id":"0.0-5.0-19.0"},{"rt":151259.59999990463,"responses":"{\"pregunta21\":\"b) El TLC causará una completa transformación de la economía chilena.\"}","question_order":"[0]","trial_type":"survey-multi-choice","trial_index":25,"time_elapsed":23097156,"internal_node_id":"0.0-5.0-20.0"},{"rt":3743.4000000953674,"response":{"pregunta21 likert":1},"question_order":[0],"trial_type":"survey-likert","trial_index":26,"time_elapsed":23100901,"internal_node_id":"0.0-5.0-21.0"},{"rt":101605.90000009537,"responses":"{\"pregunta19\":\"b) llevan un control grupal de su embarazo.\"}","question_order":"[0]","trial_type":"survey-multi-choice","trial_index":27,"time_elapsed":23202508,"internal_node_id":"0.0-5.0-22.0"},{"rt":2778.7999999523163,"response":{"pregunta19 likert":1},"question_order":[0],"trial_type":"survey-likert","trial_index":28,"time_elapsed":23205288,"internal_node_id":"0.0-5.0-23.0"},{"rt":159495.80000019073,"responses":"{\"pregunta11\":\"c) Poner en escena objetos y servicios.\"}","question_order":"[0]","trial_type":"survey-multi-choice","trial_index":29,"time_elapsed":23364785,"internal_node_id":"0.0-5.0-24.0"},{"rt":4187.399999856949,"response":{"pregunta11 likert":0},"question_order":[0],"trial_type":"survey-likert","trial_index":30,"time_elapsed":23368974,"internal_node_id":"0.0-5.0-25.0"},{"rt":64003,"responses":"{\"pregunta3\":\"a) El inicio de la dinastía Chang.\"}","question_order":"[0]","trial_type":"survey-multi-choice","trial_index":31,"time_elapsed":23432978,"internal_node_id":"0.0-5.0-26.0"},{"rt":4702.700000047684,"response":{"pregunta3 likert":1},"question_order":[0],"trial_type":"survey-likert","trial_index":32,"time_elapsed":23437682,"internal_node_id":"0.0-5.0-27.0"},{"rt":174322.89999985695,"responses":"{\"pregunta6\":\"a) Presentar positivamente las diversas tendencias del diseño de interiores a través de un comentario.\"}","question_order":"[0]","trial_type":"survey-multi-choice","trial_index":33,"time_elapsed":23612007,"internal_node_id":"0.0-5.0-28.0"},{"rt":5274.600000143051,"response":{"pregunta6 likert":0},"question_order":[0],"trial_type":"survey-likert","trial_index":34,"time_elapsed":23617284,"internal_node_id":"0.0-5.0-29.0"},{"rt":196258.79999995232,"responses":"{\"pregunta15\":\"c) el uranio es el elemento natural con el mayor número de protones en el núcleo.\"}","question_order":"[0]","trial_type":"survey-multi-choice","trial_index":35,"time_elapsed":23813542,"internal_node_id":"0.0-5.0-30.0"},{"rt":2854.4000000953674,"response":{"pregunta15 likert":0},"question_order":[0],"trial_type":"survey-likert","trial_index":36,"time_elapsed":23816398,"internal_node_id":"0.0-5.0-31.0"},{"rt":225906.29999995232,"responses":"{\"pregunta9\":\"d) la persistencia de la melancolía y la desesperanza.\"}","question_order":"[0]","trial_type":"survey-multi-choice","trial_index":37,"time_elapsed":24042309,"internal_node_id":"0.0-5.0-32.0"},{"rt":3609.7999999523163,"response":{"pregunta9 likert":0},"question_order":[0],"trial_type":"survey-likert","trial_index":38,"time_elapsed":24045920,"internal_node_id":"0.0-5.0-33.0"},{"rt":146252.89999985695,"responses":"{\"pregunta12\":\"b) Homenajear a quienes murieron.\"}","question_order":"[0]","trial_type":"survey-multi-choice","trial_index":39,"time_elapsed":24192174,"internal_node_id":"0.0-5.0-34.0"},{"rt":4282.299999952316,"response":{"pregunta12 likert":1},"question_order":[0],"trial_type":"survey-likert","trial_index":40,"time_elapsed":24196458,"internal_node_id":"0.0-5.0-35.0"},{"rt":281904,"responses":"{\"pregunta18\":\"d) El receptor es habitualmente pasivo frente a la publicidad.\"}","question_order":"[0]","trial_type":"survey-multi-choice","trial_index":41,"time_elapsed":24478364,"internal_node_id":"0.0-5.0-36.0"},{"rt":2582.600000143051,"response":{"pregunta18 likert":1},"question_order":[0],"trial_type":"survey-likert","trial_index":42,"time_elapsed":24480948,"internal_node_id":"0.0-5.0-37.0"},{"rt":137260.40000009537,"responses":"{\"pregunta4\":\"b) En la literatura como en la vida, todo es metáfora.\"}","question_order":"[0]","trial_type":"survey-multi-choice","trial_index":43,"time_elapsed":24618210,"internal_node_id":"0.0-5.0-38.0"},{"rt":3093.600000143051,"response":{"pregunta4 likert":1},"question_order":[0],"trial_type":"survey-likert","trial_index":44,"time_elapsed":24621305,"internal_node_id":"0.0-5.0-39.0"},{"rt":175938.60000014305,"responses":"{\"pregunta1\":\"c) Muestran las opiniones expuestas por los personajes en un relato.\"}","question_order":"[0]","trial_type":"survey-multi-choice","trial_index":45,"time_elapsed":24797244,"internal_node_id":"0.0-5.0-40.0"},{"rt":2204.0999999046326,"response":{"pregunta1 likert":0},"question_order":[0],"trial_type":"survey-likert","trial_index":46,"time_elapsed":24799450,"internal_node_id":"0.0-5.0-41.0"},{"rt":77487.89999985695,"responses":"{\"pregunta17\":\"d) A la inexistencia de un recinto adecuado para el recital.\"}","question_order":"[0]","trial_type":"survey-multi-choice","trial_index":47,"time_elapsed":24876939,"internal_node_id":"0.0-5.0-42.0"},{"rt":5756.800000190735,"response":{"pregunta17 likert":0},"question_order":[0],"trial_type":"survey-likert","trial_index":48,"time_elapsed":24882697,"internal_node_id":"0.0-5.0-43.0"},{"rt":148887.5,"responses":"{\"pregunta7\":\"d) se da como existente, y sólo se discute su relación con el cuerpo.\"}","question_order":"[0]","trial_type":"survey-multi-choice","trial_index":49,"time_elapsed":25031587,"internal_node_id":"0.0-5.0-44.0"},{"rt":2361.4000000953674,"response":{"pregunta7 likert":1},"question_order":[0],"trial_type":"survey-likert","trial_index":50,"time_elapsed":25033950,"internal_node_id":"0.0-5.0-45.0"},{"rt":68719.39999985695,"responses":"{\"pregunta5\":\"c) Los momentos triviales de los viajes, en la escritura se vuelven significativos.\"}","question_order":"[0]","trial_type":"survey-multi-choice","trial_index":51,"time_elapsed":25102669,"internal_node_id":"0.0-5.0-46.0"},{"rt":2141.7999999523163,"response":{"pregunta5 likert":1},"question_order":[0],"trial_type":"survey-likert","trial_index":52,"time_elapsed":25104813,"internal_node_id":"0.0-5.0-47.0"},{"rt":3318.4000000953674,"stimulus":"<p style=\"font-size: 120%\">Gracias por completar esta etapa del estudio. Ahora te invitamos a responder el cuestionario.<br><br></p>","response":0,"trial_type":"html-button-response","trial_index":53,"time_elapsed":25108164,"internal_node_id":"0.0-6.0"},{"rt":27342,"stimulus":"<h1 style=\"margin-top: 5%\">Cuestionario para la Evaluación de Metas Académicas</h1><p style=\"font-size: 120%; margin-left: 3%; margin-top: 5%\">Este es un cuestionario que permite conocer cuáles son los principales motivos por los que los estudiantes se esfuerzan en su trabajo académico. A continuación, se te presentarán una serie de afirmaciones acerca de los motivos que puedes tener para estudiar.<br>Te pedimos que contestes a dichas afirmaciones reflexionando sobre el contenido de cada una de ellas, que, aunque te parezcan semejantes, en realidad, no lo son.<br>NO HAY RESPUESTAS CORRECTAS o INCORRECTAS, sólo queremos que respondas con la mayor precisión y sinceridad posible a las preguntas que se plantean.","response":0,"trial_type":"html-button-response","trial_index":54,"time_elapsed":25135508,"internal_node_id":"0.0-7.0"},{"rt":133643,"response":{"Metas cuestionario pregunta1":2,"Metas cuestionario pregunta2":1,"Metas cuestionario pregunta3":2,"Metas cuestionario pregunta4":1,"Metas cuestionario pregunta5":4,"Metas cuestionario pregunta6":2,"Metas cuestionario pregunta7":2,"Metas cuestionario pregunta8":4,"Metas cuestionario pregunta9":0,"Metas cuestionario pregunta10":0,"Metas cuestionario pregunta11":0,"Metas cuestionario pregunta12":0,"Metas cuestionario pregunta13":0,"Metas cuestionario pregunta14":0,"Metas cuestionario pregunta15":4,"Metas cuestionario pregunta16":2,"Metas cuestionario pregunta17":3,"Metas cuestionario pregunta18":4,"Metas cuestionario pregunta19":4,"Metas cuestionario pregunta20":2},"question_order":[0,1,2,3,4,5,6,7,8,9,10,11,12,13,14,15,16,17,18,19],"trial_type":"survey-likert","trial_index":55,"time_elapsed":25269158,"internal_node_id":"0.0-8.0"},{"rt":3699.7000000476837,"stimulus":"<p style=\"font-size: 120%\">Gracias por responder el cuestionario. Ahora te invitamos a seguir con el juego, que es muy breve.<br><br></p>","response":0,"trial_type":"html-button-response","trial_index":56,"time_elapsed":25272859,"internal_node_id":"0.0-9.0"},{"rt":11569.5,"stimulus":"<h1>Juego</h1><p style=\"font-size: 120%;\">A continuación se te presentarán 16 pequeñas historias.<br>Por favor lee el texto presentado en cada una de ellas y luego haz click en el objeto de tu elección.<br>Si estás listo(a),<span style=\"color:red;\"> haz click en \"comenzar\"</span>.</p>","response":0,"trial_type":"html-button-response","trial_index":57,"time_elapsed":25284430,"internal_node_id":"0.0-10.0"},{"rt":13493.900000095367,"grid":[[1,1,1,1],[1,1,1,1],[1,1,1,1],[1,1,1,1],[1,1,1,1],[1,1,1,1],[1,1,1,1],[1,1,1,1],[1,1,1,1]],"target":[0,0],"response":[1,2],"correct":false,"juego":14,"trial_type":"serial-reaction-time-mouse","trial_index":58,"time_elapsed":25297957,"internal_node_id":"0.0-11.0-0.0"},{"rt":16614.299999952316,"grid":[[1,1,1],[1,1,1],[1,1,1],[1,1,1],[1,1,1],[1,1,1],[1,1,1],[1,1,1],[1,1,1]],"target":[0,0],"response":[3,1],"correct":false,"juego":5,"trial_type":"serial-reaction-time-mouse","trial_index":59,"time_elapsed":25314574,"internal_node_id":"0.0-11.0-1.0"},{"rt":40629.200000047684,"grid":[[1,1,1,1]],"target":[0,0],"response":[0,3],"correct":false,"juego":12,"trial_type":"serial-reaction-time-mouse","trial_index":60,"time_elapsed":25355207,"internal_node_id":"0.0-11.0-2.0"},{"rt":9124.400000095367,"grid":[[1,1,1],[1,1,1],[1,1,1],[1,1,1],[1,1,1],[1,1,1],[1,1,1],[1,1,1],[1,1,1]],"target":[0,0],"response":[3,1],"correct":false,"juego":6,"trial_type":"serial-reaction-time-mouse","trial_index":61,"time_elapsed":25364334,"internal_node_id":"0.0-11.0-3.0"},{"rt":11442.400000095367,"grid":[[1,1,1,1]],"target":[0,0],"response":[0,2],"correct":false,"juego":2,"trial_type":"serial-reaction-time-mouse","trial_index":62,"time_elapsed":25375779,"internal_node_id":"0.0-11.0-4.0"},{"rt":20002,"grid":[[1,1,1],[1,1,1],[1,1,1],[1,1,1],[1,1,1],[1,1,1],[1,1,1],[1,1,1],[1,1,1]],"target":[0,0],"response":[1,2],"correct":false,"juego":10,"trial_type":"serial-reaction-time-mouse","trial_index":63,"time_elapsed":25395784,"internal_node_id":"0.0-11.0-5.0"},{"rt":11096.5,"grid":[[1,1,1,1],[1,1,1,1],[1,1,1,1],[1,1,1,1],[1,1,1,1],[1,1,1,1],[1,1,1,1],[1,1,1,1],[1,1,1,1]],"target":[0,0],"response":[5,2],"correct":false,"juego":15,"trial_type":"serial-reaction-time-mouse","trial_index":64,"time_elapsed":25406884,"internal_node_id":"0.0-11.0-6.0"},{"rt":13115.799999952316,"grid":[[1,1,1,1]],"target":[0,0],"response":[0,0],"correct":true,"juego":9,"trial_type":"serial-reaction-time-mouse","trial_index":65,"time_elapsed":25420002,"internal_node_id":"0.0-11.0-7.0"},{"rt":4253.300000190735,"grid":[[1],[1],[1],[1]],"target":[0,0],"response":[3,0],"correct":false,"juego":4,"trial_type":"serial-reaction-time-mouse","trial_index":66,"time_elapsed":25424258,"internal_node_id":"0.0-11.0-8.0"},{"rt":11047,"grid":[[1,1,1,1]],"target":[0,0],"response":[0,1],"correct":false,"juego":7,"trial_type":"serial-reaction-time-mouse","trial_index":67,"time_elapsed":25435307,"internal_node_id":"0.0-11.0-9.0"},{"rt":12321,"grid":[[1,1,1,1]],"target":[0,0],"response":[0,3],"correct":false,"juego":3,"trial_type":"serial-reaction-time-mouse","trial_index":68,"time_elapsed":25447630,"internal_node_id":"0.0-11.0-10.0"},{"rt":10419.200000047684,"grid":[[1,1,1],[1,1,1],[1,1,1],[1,1,1],[1,1,1],[1,1,1],[1,1,1],[1,1,1],[1,1,1]],"target":[0,0],"response":[1,1],"correct":false,"juego":13,"trial_type":"serial-reaction-time-mouse","trial_index":69,"time_elapsed":25458053,"internal_node_id":"0.0-11.0-11.0"},{"rt":5183.899999856949,"grid":[[1,1,1,1]],"target":[0,0],"response":[0,0],"correct":true,"juego":1,"trial_type":"serial-reaction-time-mouse","trial_index":70,"time_elapsed":25463239,"internal_node_id":"0.0-11.0-12.0"},{"rt":6086.799999952316,"grid":[[1,1,1,1]],"target":[0,0],"response":[0,1],"correct":false,"juego":8,"trial_type":"serial-reaction-time-mouse","trial_index":71,"time_elapsed":25469328,"internal_node_id":"0.0-11.0-13.0"},{"rt":7067.900000095367,"grid":[[1,1,1,1]],"target":[0,0],"response":[0,1],"correct":false,"juego":11,"trial_type":"serial-reaction-time-mouse","trial_index":72,"time_elapsed":25476397,"internal_node_id":"0.0-11.0-14.0"},{"rt":6772.200000047684,"stimulus":"<h1>Último juego</h1><p style=\"font-size: 130%;\">Tienes <span style=\"color:red\">25</span> segundos para recordar los pares de palabras que aparecerán a continuación. <br></p>","response":0,"trial_type":"html-button-response","trial_index":73,"time_elapsed":25483169,"internal_node_id":"0.0-12.0"},{"animation_sequence":[{"stimulus":"imagen_juego_interferencia.jpg","time":549.2000000476837},{"stimulus":"imagen_juego_interferencia.jpg","time":1014.7000000476837},{"stimulus":"imagen_juego_interferencia.jpg","time":1510.5999999046326},{"stimulus":"imagen_juego_interferencia.jpg","time":2002.7999999523163},{"stimulus":"imagen_juego_interferencia.jpg","time":2515.5},{"stimulus":"imagen_juego_interferencia.jpg","time":3003.2999999523163},{"stimulus":"imagen_juego_interferencia.jpg","time":3507.7999999523163},{"stimulus":"imagen_juego_interferencia.jpg","time":4012.0999999046326},{"stimulus":"imagen_juego_interferencia.jpg","time":4503.599999904633},{"stimulus":"imagen_juego_interferencia.jpg","time":5003.700000047684},{"stimulus":"imagen_juego_interferencia.jpg","time":5503},{"stimulus":"imagen_juego_interferencia.jpg","time":6001.599999904633},{"stimulus":"imagen_juego_interferencia.jpg","time":6504.299999952316},{"stimulus":"imagen_juego_interferencia.jpg","time":7016.599999904633},{"stimulus":"imagen_juego_interferencia.jpg","time":7507.299999952316},{"stimulus":"imagen_juego_interferencia.jpg","time":8013.099999904633},{"stimulus":"imagen_juego_interferencia.jpg","time":8501.700000047684},{"stimulus":"imagen_juego_interferencia.jpg","time":9001.299999952316},{"stimulus":"imagen_juego_interferencia.jpg","time":9506.200000047684},{"stimulus":"imagen_juego_interferencia.jpg","time":10005.5},{"stimulus":"imagen_juego_interferencia.jpg","time":10503.200000047684},{"stimulus":"imagen_juego_interferencia.jpg","time":11004},{"stimulus":"imagen_juego_interferencia.jpg","time":11502.599999904633},{"stimulus":"imagen_juego_interferencia.jpg","time":12002.299999952316},{"stimulus":"imagen_juego_interferencia.jpg","time":12502.599999904633},{"stimulus":"imagen_juego_interferencia.jpg","time":13003.200000047684},{"stimulus":"imagen_juego_interferencia.jpg","time":13503},{"stimulus":"imagen_juego_interferencia.jpg","time":14008.799999952316},{"stimulus":"imagen_juego_interferencia.jpg","time":14509.099999904633},{"stimulus":"imagen_juego_interferencia.jpg","time":15004.299999952316},{"stimulus":"imagen_juego_interferencia.jpg","time":15504.200000047684},{"stimulus":"imagen_juego_interferencia.jpg","time":16003.599999904633},{"stimulus":"imagen_juego_interferencia.jpg","time":16503.900000095367},{"stimulus":"imagen_juego_interferencia.jpg","time":17004.299999952316},{"stimulus":"imagen_juego_interferencia.jpg","time":17504.5},{"stimulus":"imagen_juego_interferencia.jpg","time":18004.299999952316},{"stimulus":"imagen_juego_interferencia.jpg","time":18504.400000095367},{"stimulus":"imagen_juego_interferencia.jpg","time":19010.799999952316},{"stimulus":"imagen_juego_interferencia.jpg","time":19501.099999904633},{"stimulus":"imagen_juego_interferencia.jpg","time":20002.599999904633},{"stimulus":"imagen_juego_interferencia.jpg","time":20510.200000047684},{"stimulus":"imagen_juego_interferencia.jpg","time":21001.799999952316},{"stimulus":"imagen_juego_interferencia.jpg","time":21502.400000095367},{"stimulus":"imagen_juego_interferencia.jpg","time":22005.700000047684},{"stimulus":"imagen_juego_interferencia.jpg","time":22506.5},{"stimulus":"imagen_juego_interferencia.jpg","time":23006.5},{"stimulus":"imagen_juego_interferencia.jpg","time":23502.099999904633},{"stimulus":"imagen_juego_interferencia.jpg","time":24013.900000095367},{"stimulus":"imagen_juego_interferencia.jpg","time":24503.099999904633},{"stimulus":"imagen_juego_interferencia.jpg","time":25007.200000047684}],"response":[],"trial_type":"animation","trial_index":74,"time_elapsed":25508678,"internal_node_id":"0.0-13.0"},{"rt":14692.599999904633,"responses":"{\"pregunta interferencia2\":\"langosta\"}","question_order":"[0]","trial_type":"survey-multi-choice-cuest","trial_index":75,"time_elapsed":25523373,"internal_node_id":"0.0-14.0-0.0"},{"rt":3978.2000000476837,"responses":"{\"pregunta interferencia3\":\"aluminio\"}","question_order":"[0]","trial_type":"survey-multi-choice-cuest","trial_index":76,"time_elapsed":25527352,"internal_node_id":"0.0-14.0-1.0"},{"rt":14871.5,"responses":"{\"pregunta interferencia4\":\"contador\"}","question_order":"[0]","trial_type":"survey-multi-choice-cuest","trial_index":77,"time_elapsed":25542228,"internal_node_id":"0.0-14.0-2.0"},{"rt":3866.7000000476837,"responses":"{\"pregunta interferencia1\":\"naranja\"}","question_order":"[0]","trial_type":"survey-multi-choice-cuest","trial_index":78,"time_elapsed":25546096,"internal_node_id":"0.0-14.0-3.0"},{"success":true,"trial_type":"fullscreen","trial_index":79,"time_elapsed":25547105,"internal_node_id":"0.0-15.0"},{"rt":39416.700000047684,"responses":"{\"Telefono\":\"+56996993019\"}","trial_type":"survey-text","trial_index":80,"time_elapsed":25586528,"internal_node_id":"0.0-16.0"}]