[{"rt":10654.504999984056,"stimulus":"<h1 style=\"color:red; margin-top: 3%;\">¡Bienvenido(a)!</h1><p style=\"text-align:left; justify-content:space-between; margin-right: 5%; margin-left: 5%; margin-top: 5%\"> Antes de empezar el estudio, necesitamos que nos confirmes que estás de acuerdo con participar. Recuerda que tu participación es 100% voluntaria y que lo único que te pedimos es responder lo mejor que puedas. Recuerda también que el estudio incluye:</p><ol style=\"text-align:left; justify-content:space-between; margin-right: 5%; margin-left: 5%;\"><li> un ejercicio de resolución de preguntas de selección múltiple (30’),</li><li>un cuestionario breve (5’),</li><li>un juego muy breve (3’),</li></ol><p style=\"text-align:left; justify-content:space-between; margin-right: 5%; margin-left: 5%;\">Si quieres participar, haz clic en “Acepto” luego de leer lo siguiente:<br></p><p style=\"text-align:left; justify-content:space-between; margin-right: 5%; margin-left: 5%;\">Acepto participar en el estudio “Estrategias de lectura y resolución de preguntas de selección múltiple”, en los términos aquí señalados:<br></p><p style=\"text-align:left; justify-content:space-between; margin-right: 5%; margin-left: 5%;\"><a href=\"http://ciae.uchile.cl/download.php?file=noticias/Asentimiento.pdf\" target=\"_blank\">Link a la hoja de información del Consentimiento.</a></p><p style=\"text-align:left; justify-content:space-between; margin-right: 5%; margin-left: 5%;\">Declaro que he leído (o se me ha leído) y (he) comprendido, las condiciones de mi participación en este estudio. He tenido la oportunidad de hacer preguntas y éstas han sido respondidas. No tengo dudas al respecto.</p>","response":0,"condicion_MCQ":8,"condicion_JUEGO":20,"condicion_INTER":20,"numero_participante":44,"numero_version":1,"dimx":1536,"dimy":864,"color_profundidad":24,"pixel_profundidad":24,"Browser":"Google Chrome","dia":4,"mes":5,"hora":12,"minuto":51,"segundo":24,"trial_type":"html-button-response","trial_index":0,"time_elapsed":10658,"internal_node_id":"0.0-0.0"},{"success":true,"trial_type":"fullscreen","trial_index":1,"time_elapsed":16163,"internal_node_id":"0.0-1.0"},{"rt":110945.37999999011,"responses":"{\"Nombres\":\"consuelo belen \",\"Apellidos\":\"olalde olave\",\"Edad\":\"18\",\"Sexo\":\"mujer\",\"Curso\":\"25439\",\"Colegio\":\"andres bello \",\"Contacto\":\"consueloolalde14@gmail.com\"}","trial_type":"survey-text","trial_index":2,"time_elapsed":127117,"internal_node_id":"0.0-2.0"},{"success":true,"timeout":false,"failed_images":[],"failed_audio":[],"failed_video":[],"trial_type":"preload","trial_index":3,"time_elapsed":128376,"internal_node_id":"0.0-3.0"},{"rt":16393.370000005234,"stimulus":"<h1 style:\"margin-top: 5%;\">Ejercicios de Comprensión de Lectura de la Universidad de Chile</h1><p style=\"font-size: 120%;\">En esta actividad, debes responder 24 preguntas de selección múltiple. Cada pregunta presenta 4 respuestas alternativas, pero sólo una de ellas es correcta. Por lo tanto, debes escoger una sola alternativa para cada pregunta. Además, debes reportar qué tan seguro(a) estás de la respuesta que das, con un:</p><ol style=\"font-size: 120%;text-align:left;margin-left: 40%;\"><li>No estoy seguro(a) para nada</li><li>No estoy muy seguro(a)</li><li>Estoy bastante seguro(a)</li><li>Estoy totalmente seguro(a)</li></ol><p style=\"font-size: 120%;\">Por favor lee bien los enunciados antes de responder. ¡Éxito!</p>","response":0,"trial_type":"html-button-response","trial_index":4,"time_elapsed":144770,"internal_node_id":"0.0-4.0"},{"rt":47629.704999999376,"responses":"{\"pregunta9\":\"b) preparar los recuerdos del mañana.\"}","question_order":"[0]","trial_type":"survey-multi-choice","trial_index":5,"time_elapsed":192403,"internal_node_id":"0.0-5.0-0.0"},{"rt":2883.6799999990035,"response":{"pregunta9 likert":2},"question_order":[0],"trial_type":"survey-likert","trial_index":6,"time_elapsed":195290,"internal_node_id":"0.0-5.0-1.0"},{"rt":3109294.88500001,"responses":"{\"pregunta10\":\"b) ritualistas y obsesivos.\"}","question_order":"[0]","trial_type":"survey-multi-choice","trial_index":7,"time_elapsed":3304586,"internal_node_id":"0.0-5.0-2.0"},{"rt":1591.0350000197068,"response":{"pregunta10 likert":1},"question_order":[0],"trial_type":"survey-likert","trial_index":8,"time_elapsed":3306179,"internal_node_id":"0.0-5.0-3.0"},{"rt":38518.66499998141,"responses":"{\"pregunta24\":\"c) para el mexicano, la muerte es cotidiana.\"}","question_order":"[0]","trial_type":"survey-multi-choice","trial_index":9,"time_elapsed":3344698,"internal_node_id":"0.0-5.0-4.0"},{"rt":1479.2249999884516,"response":{"pregunta24 likert":2},"question_order":[0],"trial_type":"survey-likert","trial_index":10,"time_elapsed":3346179,"internal_node_id":"0.0-5.0-5.0"},{"rt":684750.604999979,"responses":"{\"pregunta1\":\"c) Aportan informaciones con las que se reconstruye el personaje dentro de un relato.\"}","question_order":"[0]","trial_type":"survey-multi-choice","trial_index":11,"time_elapsed":4030931,"internal_node_id":"0.0-5.0-6.0"},{"rt":2142.0649999924935,"response":{"pregunta1 likert":1},"question_order":[0],"trial_type":"survey-likert","trial_index":12,"time_elapsed":4033075,"internal_node_id":"0.0-5.0-7.0"},{"rt":1059262.9799999995,"responses":"{\"pregunta19\":\"a) sufren dolores de espalda.\"}","question_order":"[0]","trial_type":"survey-multi-choice","trial_index":13,"time_elapsed":5092338,"internal_node_id":"0.0-5.0-8.0"},{"rt":2158.5799999888986,"response":{"pregunta19 likert":1},"question_order":[0],"trial_type":"survey-likert","trial_index":14,"time_elapsed":5094498,"internal_node_id":"0.0-5.0-9.0"},{"rt":49551.01500000432,"responses":"{\"pregunta17\":\"c) A la inexistencia de un recinto adecuado para el recital.\"}","question_order":"[0]","trial_type":"survey-multi-choice","trial_index":15,"time_elapsed":5144051,"internal_node_id":"0.0-5.0-10.0"},{"rt":2294.670000003651,"response":{"pregunta17 likert":1},"question_order":[0],"trial_type":"survey-likert","trial_index":16,"time_elapsed":5146347,"internal_node_id":"0.0-5.0-11.0"},{"rt":34862.785000003874,"responses":"{\"pregunta16\":\"a) Se debe crear un seguro médico especial para esta institución, pues es de alto riesgo.\"}","question_order":"[0]","trial_type":"survey-multi-choice","trial_index":17,"time_elapsed":5181210,"internal_node_id":"0.0-5.0-12.0"},{"rt":1303.0000000139698,"response":{"pregunta16 likert":2},"question_order":[0],"trial_type":"survey-likert","trial_index":18,"time_elapsed":5182514,"internal_node_id":"0.0-5.0-13.0"},{"rt":79831.07499999367,"responses":"{\"pregunta4\":\"a) En la literatura, el narrador expresa su voluntad de libertad.\"}","question_order":"[0]","trial_type":"survey-multi-choice","trial_index":19,"time_elapsed":5262346,"internal_node_id":"0.0-5.0-14.0"},{"rt":1974.5950000062585,"response":{"pregunta4 likert":1},"question_order":[0],"trial_type":"survey-likert","trial_index":20,"time_elapsed":5264322,"internal_node_id":"0.0-5.0-15.0"},{"rt":32855.270000000484,"responses":"{\"pregunta6\":\"b) Presentar positivamente las diversas tendencias del diseño de interiores a través de un comentario.\"}","question_order":"[0]","trial_type":"survey-multi-choice","trial_index":21,"time_elapsed":5297178,"internal_node_id":"0.0-5.0-16.0"},{"rt":1767.5600000079721,"response":{"pregunta6 likert":1},"question_order":[0],"trial_type":"survey-likert","trial_index":22,"time_elapsed":5298946,"internal_node_id":"0.0-5.0-17.0"},{"rt":17923752.125,"responses":"{\"pregunta20\":\"b) las personas excesivas son más felices.\"}","question_order":"[0]","trial_type":"survey-multi-choice","trial_index":23,"time_elapsed":23222701,"internal_node_id":"0.0-5.0-18.0"},{"rt":2698.954999998212,"response":{"pregunta20 likert":1},"question_order":[0],"trial_type":"survey-likert","trial_index":24,"time_elapsed":23225404,"internal_node_id":"0.0-5.0-19.0"},{"rt":112854.39000002295,"responses":"{\"pregunta11\":\"b) Provocar el deseo de la adquisición vertiginosa.\"}","question_order":"[0]","trial_type":"survey-multi-choice","trial_index":25,"time_elapsed":23338261,"internal_node_id":"0.0-5.0-20.0"},{"rt":1102.5000000074506,"response":{"pregunta11 likert":1},"question_order":[0],"trial_type":"survey-likert","trial_index":26,"time_elapsed":23339364,"internal_node_id":"0.0-5.0-21.0"},{"rt":200302.47500000522,"responses":"{\"pregunta13\":\"b) A la inutilidad de tanto esfuerzo si el objetivo es el reposo.\"}","question_order":"[0]","trial_type":"survey-multi-choice","trial_index":27,"time_elapsed":23539667,"internal_node_id":"0.0-5.0-22.0"},{"rt":1926.8950000107288,"response":{"pregunta13 likert":1},"question_order":[0],"trial_type":"survey-likert","trial_index":28,"time_elapsed":23541595,"internal_node_id":"0.0-5.0-23.0"},{"rt":1975.0899999961257,"responses":"{\"pregunta14\":\"b) sólo las leyes bastan para gobernarse.\"}","question_order":"[0]","trial_type":"survey-multi-choice","trial_index":29,"time_elapsed":23543571,"internal_node_id":"0.0-5.0-24.0"},{"rt":1175.0799999833107,"response":{"pregunta14 likert":1},"question_order":[0],"trial_type":"survey-likert","trial_index":30,"time_elapsed":23544748,"internal_node_id":"0.0-5.0-25.0"},{"rt":89270.9299999997,"responses":"{\"pregunta5\":\"a) La escritura olvida los momentos insignificantes de los viajes.\"}","question_order":"[0]","trial_type":"survey-multi-choice","trial_index":31,"time_elapsed":23634020,"internal_node_id":"0.0-5.0-26.0"},{"rt":3798.9149999953806,"response":{"pregunta5 likert":1},"question_order":[0],"trial_type":"survey-likert","trial_index":32,"time_elapsed":23637820,"internal_node_id":"0.0-5.0-27.0"},{"rt":243438.79499999434,"responses":"{\"pregunta23\":\"b) el jardinero estará muerto al día siguiente.\"}","question_order":"[0]","trial_type":"survey-multi-choice","trial_index":33,"time_elapsed":23881260,"internal_node_id":"0.0-5.0-28.0"},{"rt":1783.0050000026822,"response":{"pregunta23 likert":2},"question_order":[0],"trial_type":"survey-likert","trial_index":34,"time_elapsed":23883044,"internal_node_id":"0.0-5.0-29.0"},{"rt":222742.83000000566,"responses":"{\"pregunta18\":\"a) El receptor es habitualmente pasivo frente a la publicidad.\"}","question_order":"[0]","trial_type":"survey-multi-choice","trial_index":35,"time_elapsed":24105788,"internal_node_id":"0.0-5.0-30.0"},{"rt":1246.9100000150502,"response":{"pregunta18 likert":1},"question_order":[0],"trial_type":"survey-likert","trial_index":36,"time_elapsed":24107036,"internal_node_id":"0.0-5.0-31.0"},{"rt":1990.2449999935925,"responses":"{\"pregunta15\":\"b) a partir de la manipulación del núcleo se han creado elementos químicos naturales.\"}","question_order":"[0]","trial_type":"survey-multi-choice","trial_index":37,"time_elapsed":24109028,"internal_node_id":"0.0-5.0-32.0"},{"rt":1303.3400000147521,"response":{"pregunta15 likert":1},"question_order":[0],"trial_type":"survey-likert","trial_index":38,"time_elapsed":24110332,"internal_node_id":"0.0-5.0-33.0"},{"rt":25334.795000001788,"responses":"{\"pregunta22\":\"a) Las personas públicas no tienen vida privada.\"}","question_order":"[0]","trial_type":"survey-multi-choice","trial_index":39,"time_elapsed":24135668,"internal_node_id":"0.0-5.0-34.0"},{"rt":3343.135000001639,"response":{"pregunta22 likert":1},"question_order":[0],"trial_type":"survey-likert","trial_index":40,"time_elapsed":24139012,"internal_node_id":"0.0-5.0-35.0"},{"rt":66958.16999999434,"responses":"{\"pregunta3\":\"a) El inicio de la dinastía Chang.\"}","question_order":"[0]","trial_type":"survey-multi-choice","trial_index":41,"time_elapsed":24205972,"internal_node_id":"0.0-5.0-36.0"},{"rt":2239.5400000065565,"response":{"pregunta3 likert":1},"question_order":[0],"trial_type":"survey-likert","trial_index":42,"time_elapsed":24208213,"internal_node_id":"0.0-5.0-37.0"},{"rt":95798.45000000298,"responses":"{\"pregunta21\":\"a) El TLC causará una completa transformación de la economía chilena.\"}","question_order":"[0]","trial_type":"survey-multi-choice","trial_index":43,"time_elapsed":24304012,"internal_node_id":"0.0-5.0-38.0"},{"rt":1246.3700000047684,"response":{"pregunta21 likert":2},"question_order":[0],"trial_type":"survey-likert","trial_index":44,"time_elapsed":24305259,"internal_node_id":"0.0-5.0-39.0"},{"rt":67615.43499998748,"responses":"{\"pregunta7\":\"a) se da como existente, y sólo se discute su relación con el cuerpo.\"}","question_order":"[0]","trial_type":"survey-multi-choice","trial_index":45,"time_elapsed":24372876,"internal_node_id":"0.0-5.0-40.0"},{"rt":1216.250000026077,"response":{"pregunta7 likert":1},"question_order":[0],"trial_type":"survey-likert","trial_index":46,"time_elapsed":24374094,"internal_node_id":"0.0-5.0-41.0"},{"rt":1972.4200000092387,"responses":"{\"pregunta8\":\"a) El ser humano se comporta de acuerdo con las circunstancias.\"}","question_order":"[0]","trial_type":"survey-multi-choice","trial_index":47,"time_elapsed":24376068,"internal_node_id":"0.0-5.0-42.0"},{"rt":1871.1750000081956,"response":{"pregunta8 likert":1},"question_order":[0],"trial_type":"survey-likert","trial_index":48,"time_elapsed":24377940,"internal_node_id":"0.0-5.0-43.0"},{"rt":131831.2049999945,"responses":"{\"pregunta2\":\"d) A la relación entre sociedad y constitución social.\"}","question_order":"[0]","trial_type":"survey-multi-choice","trial_index":49,"time_elapsed":24509773,"internal_node_id":"0.0-5.0-44.0"},{"rt":1622.08500001207,"response":{"pregunta2 likert":1},"question_order":[0],"trial_type":"survey-likert","trial_index":50,"time_elapsed":24511396,"internal_node_id":"0.0-5.0-45.0"},{"rt":15670.249999996275,"responses":"{\"pregunta12\":\"c) Homenajear a quienes murieron.\"}","question_order":"[0]","trial_type":"survey-multi-choice","trial_index":51,"time_elapsed":24527068,"internal_node_id":"0.0-5.0-46.0"},{"rt":1350.1800000071526,"response":{"pregunta12 likert":1},"question_order":[0],"trial_type":"survey-likert","trial_index":52,"time_elapsed":24528420,"internal_node_id":"0.0-5.0-47.0"},{"rt":1332.230000000447,"stimulus":"<p style=\"font-size: 120%\">Gracias por completar esta etapa del estudio. Ahora te invitamos a responder el cuestionario.<br><br></p>","response":0,"trial_type":"html-button-response","trial_index":53,"time_elapsed":24529764,"internal_node_id":"0.0-6.0"},{"rt":2870.989999998361,"stimulus":"<h1 style=\"margin-top: 5%\">Cuestionario para la Evaluación de Metas Académicas</h1><p style=\"font-size: 120%; margin-left: 3%; margin-top: 5%\">Este es un cuestionario que permite conocer cuáles son los principales motivos por los que los estudiantes se esfuerzan en su trabajo académico. A continuación, se te presentarán una serie de afirmaciones acerca de los motivos que puedes tener para estudiar.<br>Te pedimos que contestes a dichas afirmaciones reflexionando sobre el contenido de cada una de ellas, que, aunque te parezcan semejantes, en realidad, no lo son.<br>NO HAY RESPUESTAS CORRECTAS o INCORRECTAS, sólo queremos que respondas con la mayor precisión y sinceridad posible a las preguntas que se plantean.","response":0,"trial_type":"html-button-response","trial_index":54,"time_elapsed":24532636,"internal_node_id":"0.0-7.0"},{"rt":135214.62499999255,"response":{"Metas cuestionario pregunta1":3,"Metas cuestionario pregunta2":3,"Metas cuestionario pregunta3":4,"Metas cuestionario pregunta4":3,"Metas cuestionario pregunta5":4,"Metas cuestionario pregunta6":4,"Metas cuestionario pregunta7":2,"Metas cuestionario pregunta8":4,"Metas cuestionario pregunta9":0,"Metas cuestionario pregunta10":0,"Metas cuestionario pregunta11":0,"Metas cuestionario pregunta12":0,"Metas cuestionario pregunta13":0,"Metas cuestionario pregunta14":0,"Metas cuestionario pregunta15":4,"Metas cuestionario pregunta16":4,"Metas cuestionario pregunta17":4,"Metas cuestionario pregunta18":4,"Metas cuestionario pregunta19":4,"Metas cuestionario pregunta20":2},"question_order":[0,1,2,3,4,5,6,7,8,9,10,11,12,13,14,15,16,17,18,19],"trial_type":"survey-likert","trial_index":55,"time_elapsed":24667856,"internal_node_id":"0.0-8.0"},{"rt":1400.5750000104308,"stimulus":"<p style=\"font-size: 120%\">Gracias por responder el cuestionario. Ahora te invitamos a seguir con el juego, que es muy breve.<br><br></p>","response":0,"trial_type":"html-button-response","trial_index":56,"time_elapsed":24669260,"internal_node_id":"0.0-9.0"},{"rt":9503.980000007898,"stimulus":"<h1>Juego</h1><p style=\"font-size: 120%;\">A continuación se te presentarán 16 pequeñas historias.<br>Por favor lee el texto presentado en cada una de ellas y luego haz click en el objeto de tu elección.<br>Si estás listo(a),<span style=\"color:red;\"> haz click en \"comenzar\"</span>.</p>","response":0,"trial_type":"html-button-response","trial_index":57,"time_elapsed":24678765,"internal_node_id":"0.0-10.0"},{"rt":3046.429999988526,"grid":[[1],[1],[1],[1]],"target":[0,0],"response":[1,0],"correct":false,"juego":4,"trial_type":"serial-reaction-time-mouse","trial_index":58,"time_elapsed":24681814,"internal_node_id":"0.0-11.0-0.0"},{"rt":14061.780000019819,"grid":[[1,1,1,1],[1,1,1,1],[1,1,1,1],[1,1,1,1],[1,1,1,1],[1,1,1,1],[1,1,1,1],[1,1,1,1],[1,1,1,1]],"target":[0,0],"response":[7,2],"correct":false,"juego":14,"trial_type":"serial-reaction-time-mouse","trial_index":59,"time_elapsed":24695877,"internal_node_id":"0.0-11.0-1.0"},{"rt":3193.429999984801,"grid":[[1,1,1],[1,1,1],[1,1,1],[1,1,1],[1,1,1],[1,1,1],[1,1,1],[1,1,1],[1,1,1]],"target":[0,0],"response":[1,1],"correct":false,"juego":6,"trial_type":"serial-reaction-time-mouse","trial_index":60,"time_elapsed":24699073,"internal_node_id":"0.0-11.0-2.0"},{"rt":4867.419999994338,"grid":[[1,1,1],[1,1,1],[1,1,1],[1,1,1],[1,1,1],[1,1,1],[1,1,1],[1,1,1],[1,1,1]],"target":[0,0],"response":[3,1],"correct":false,"juego":5,"trial_type":"serial-reaction-time-mouse","trial_index":61,"time_elapsed":24703942,"internal_node_id":"0.0-11.0-3.0"},{"rt":1806.5000000074506,"grid":[[1,1,1,1]],"target":[0,0],"response":[0,3],"correct":false,"juego":3,"trial_type":"serial-reaction-time-mouse","trial_index":62,"time_elapsed":24705749,"internal_node_id":"0.0-11.0-4.0"},{"rt":5008.850000016391,"grid":[[1,1,1,1]],"target":[0,0],"response":[0,2],"correct":false,"juego":9,"trial_type":"serial-reaction-time-mouse","trial_index":63,"time_elapsed":24710758,"internal_node_id":"0.0-11.0-5.0"},{"rt":9517.445000004023,"grid":[[1,1,1,1]],"target":[0,0],"response":[0,3],"correct":false,"juego":7,"trial_type":"serial-reaction-time-mouse","trial_index":64,"time_elapsed":24720277,"internal_node_id":"0.0-11.0-6.0"},{"rt":13134.159999985248,"grid":[[1,1,1],[1,1,1],[1,1,1],[1,1,1],[1,1,1],[1,1,1],[1,1,1],[1,1,1],[1,1,1]],"target":[0,0],"response":[7,1],"correct":false,"juego":13,"trial_type":"serial-reaction-time-mouse","trial_index":65,"time_elapsed":24733413,"internal_node_id":"0.0-11.0-7.0"},{"rt":4558.734999999404,"grid":[[1,1,1,1]],"target":[0,0],"response":[0,3],"correct":false,"juego":2,"trial_type":"serial-reaction-time-mouse","trial_index":66,"time_elapsed":24737972,"internal_node_id":"0.0-11.0-8.0"},{"rt":6151.600000012666,"grid":[[1,1,1,1],[1,1,1,1],[1,1,1,1],[1,1,1,1],[1,1,1,1],[1,1,1,1],[1,1,1,1],[1,1,1,1],[1,1,1,1]],"target":[0,0],"response":[1,2],"correct":false,"juego":15,"trial_type":"serial-reaction-time-mouse","trial_index":67,"time_elapsed":24744125,"internal_node_id":"0.0-11.0-9.0"},{"rt":9974.480000004172,"grid":[[1,1,1],[1,1,1],[1,1,1],[1,1,1],[1,1,1],[1,1,1],[1,1,1],[1,1,1],[1,1,1]],"target":[0,0],"response":[1,2],"correct":false,"juego":10,"trial_type":"serial-reaction-time-mouse","trial_index":68,"time_elapsed":24754101,"internal_node_id":"0.0-11.0-10.0"},{"rt":10222.865000016987,"grid":[[1,1,1,1]],"target":[0,0],"response":[0,3],"correct":false,"juego":11,"trial_type":"serial-reaction-time-mouse","trial_index":69,"time_elapsed":24764325,"internal_node_id":"0.0-11.0-11.0"},{"rt":13784.844999987632,"grid":[[1,1,1,1]],"target":[0,0],"response":[0,2],"correct":false,"juego":8,"trial_type":"serial-reaction-time-mouse","trial_index":70,"time_elapsed":24778110,"internal_node_id":"0.0-11.0-12.0"},{"rt":1788.779999975115,"grid":[[1,1,1,1]],"target":[0,0],"response":[0,1],"correct":false,"juego":1,"trial_type":"serial-reaction-time-mouse","trial_index":71,"time_elapsed":24779900,"internal_node_id":"0.0-11.0-13.0"},{"rt":11040.320000000298,"grid":[[1,1,1,1]],"target":[0,0],"response":[0,3],"correct":false,"juego":12,"trial_type":"serial-reaction-time-mouse","trial_index":72,"time_elapsed":24790941,"internal_node_id":"0.0-11.0-14.0"},{"rt":1044.1699999794364,"stimulus":"<h1>Último juego</h1><p style=\"font-size: 130%;\">Tienes <span style=\"color:red\">25</span> segundos para recordar los pares de palabras que aparecerán a continuación. <br></p>","response":0,"trial_type":"html-button-response","trial_index":73,"time_elapsed":24791988,"internal_node_id":"0.0-12.0"},{"animation_sequence":[{"stimulus":"imagen_juego_interferencia.jpg","time":513.7450000047684},{"stimulus":"imagen_juego_interferencia.jpg","time":1001.9850000105798},{"stimulus":"imagen_juego_interferencia.jpg","time":1501.7349999956787},{"stimulus":"imagen_juego_interferencia.jpg","time":2001.3449999950826},{"stimulus":"imagen_juego_interferencia.jpg","time":2511.0149999968708},{"stimulus":"imagen_juego_interferencia.jpg","time":3006.540000002831},{"stimulus":"imagen_juego_interferencia.jpg","time":3501.2050000056624},{"stimulus":"imagen_juego_interferencia.jpg","time":4001.534999988973},{"stimulus":"imagen_juego_interferencia.jpg","time":4500.7350000068545},{"stimulus":"imagen_juego_interferencia.jpg","time":5003.280000004917},{"stimulus":"imagen_juego_interferencia.jpg","time":5502.26499998942},{"stimulus":"imagen_juego_interferencia.jpg","time":6002.284999992698},{"stimulus":"imagen_juego_interferencia.jpg","time":6502.225000005215},{"stimulus":"imagen_juego_interferencia.jpg","time":7001.044999983162},{"stimulus":"imagen_juego_interferencia.jpg","time":7502.199999988079},{"stimulus":"imagen_juego_interferencia.jpg","time":8001.2449999935925},{"stimulus":"imagen_juego_interferencia.jpg","time":8501.625000003725},{"stimulus":"imagen_juego_interferencia.jpg","time":9001.595000009984},{"stimulus":"imagen_juego_interferencia.jpg","time":9501.30000000447},{"stimulus":"imagen_juego_interferencia.jpg","time":10002.314999990165},{"stimulus":"imagen_juego_interferencia.jpg","time":10500.884999986738},{"stimulus":"imagen_juego_interferencia.jpg","time":11001.885000005364},{"stimulus":"imagen_juego_interferencia.jpg","time":11502.314999990165},{"stimulus":"imagen_juego_interferencia.jpg","time":12000.650000002235},{"stimulus":"imagen_juego_interferencia.jpg","time":12516.044999998063},{"stimulus":"imagen_juego_interferencia.jpg","time":13002.470000006258},{"stimulus":"imagen_juego_interferencia.jpg","time":13500.654999982566},{"stimulus":"imagen_juego_interferencia.jpg","time":14005.214999981225},{"stimulus":"imagen_juego_interferencia.jpg","time":14501.644999980927},{"stimulus":"imagen_juego_interferencia.jpg","time":15001.37499999255},{"stimulus":"imagen_juego_interferencia.jpg","time":15501.029999982566},{"stimulus":"imagen_juego_interferencia.jpg","time":16002.059999998659},{"stimulus":"imagen_juego_interferencia.jpg","time":16502.05999999866},{"stimulus":"imagen_juego_interferencia.jpg","time":17001.98500001058},{"stimulus":"imagen_juego_interferencia.jpg","time":17501.304999981076},{"stimulus":"imagen_juego_interferencia.jpg","time":18005.535000003874},{"stimulus":"imagen_juego_interferencia.jpg","time":18513.864999987185},{"stimulus":"imagen_juego_interferencia.jpg","time":19001.289999984205},{"stimulus":"imagen_juego_interferencia.jpg","time":19505.9299999848},{"stimulus":"imagen_juego_interferencia.jpg","time":20001.23999998346},{"stimulus":"imagen_juego_interferencia.jpg","time":20501.04999998957},{"stimulus":"imagen_juego_interferencia.jpg","time":21000.919999990612},{"stimulus":"imagen_juego_interferencia.jpg","time":21501.900000002235},{"stimulus":"imagen_juego_interferencia.jpg","time":22002.36499999091},{"stimulus":"imagen_juego_interferencia.jpg","time":22500.784999981523},{"stimulus":"imagen_juego_interferencia.jpg","time":23000.884999986738},{"stimulus":"imagen_juego_interferencia.jpg","time":23501.339999988675},{"stimulus":"imagen_juego_interferencia.jpg","time":24001.424999993294},{"stimulus":"imagen_juego_interferencia.jpg","time":24502.420000005513},{"stimulus":"imagen_juego_interferencia.jpg","time":25001.16499999538}],"response":[{"key_press":" ","rt":11211.324999984354,"stimulus":"imagen_juego_interferencia.jpg"},{"key_press":" ","rt":11541.204999987036,"stimulus":"imagen_juego_interferencia.jpg"},{"key_press":"arrowleft","rt":12397.269999988377,"stimulus":"imagen_juego_interferencia.jpg"}],"trial_type":"animation","trial_index":74,"time_elapsed":24817491,"internal_node_id":"0.0-13.0"},{"rt":8976.629999991506,"responses":"{\"pregunta interferencia3\":\"estaño\"}","question_order":"[0]","trial_type":"survey-multi-choice-cuest","trial_index":75,"time_elapsed":24826476,"internal_node_id":"0.0-14.0-0.0"},{"rt":3366.325000010431,"responses":"{\"pregunta interferencia1\":\"plátano\"}","question_order":"[0]","trial_type":"survey-multi-choice-cuest","trial_index":76,"time_elapsed":24829844,"internal_node_id":"0.0-14.0-1.0"},{"rt":5671.109999995679,"responses":"{\"pregunta interferencia4\":\"soldado\"}","question_order":"[0]","trial_type":"survey-multi-choice-cuest","trial_index":77,"time_elapsed":24835516,"internal_node_id":"0.0-14.0-2.0"},{"rt":2902.3499999903142,"responses":"{\"pregunta interferencia2\":\"cigarra\"}","question_order":"[0]","trial_type":"survey-multi-choice-cuest","trial_index":78,"time_elapsed":24838420,"internal_node_id":"0.0-14.0-3.0"},{"success":true,"trial_type":"fullscreen","trial_index":79,"time_elapsed":24839421,"internal_node_id":"0.0-15.0"},{"rt":5536.265000000596,"responses":"{\"Telefono\":\"996653958\"}","trial_type":"survey-text","trial_index":80,"time_elapsed":24844971,"internal_node_id":"0.0-16.0"}]