[{"rt":28392.964999999094,"stimulus":"<h1 style=\"color:red; margin-top: 3%;\">¡Bienvenido(a)!</h1><p style=\"text-align:left; justify-content:space-between; margin-right: 5%; margin-left: 5%; margin-top: 5%\"> Antes de empezar el estudio, necesitamos que nos confirmes que estás de acuerdo con participar. Recuerda que tu participación es 100% voluntaria y que lo único que te pedimos es responder lo mejor que puedas. Recuerda también que el estudio incluye:</p><ol style=\"text-align:left; justify-content:space-between; margin-right: 5%; margin-left: 5%;\"><li> un ejercicio de resolución de preguntas de selección múltiple (30’),</li><li>un cuestionario breve (5’),</li><li>un juego muy breve (3’),</li></ol><p style=\"text-align:left; justify-content:space-between; margin-right: 5%; margin-left: 5%;\">Si quieres participar, haz clic en “Acepto” luego de leer lo siguiente:<br></p><p style=\"text-align:left; justify-content:space-between; margin-right: 5%; margin-left: 5%;\">Acepto participar en el estudio “Estrategias de lectura y resolución de preguntas de selección múltiple”, en los términos aquí señalados:<br></p><p style=\"text-align:left; justify-content:space-between; margin-right: 5%; margin-left: 5%;\"><a href=\"http://ciae.uchile.cl/download.php?file=noticias/Asentimiento.pdf\" target=\"_blank\">Link a la hoja de información del Consentimiento.</a></p><p style=\"text-align:left; justify-content:space-between; margin-right: 5%; margin-left: 5%;\">Declaro que he leído (o se me ha leído) y (he) comprendido, las condiciones de mi participación en este estudio. He tenido la oportunidad de hacer preguntas y éstas han sido respondidas. No tengo dudas al respecto.</p>","response":0,"condicion_MCQ":11,"condicion_JUEGO":11,"condicion_INTER":11,"numero_participante":11,"numero_version":2,"dimx":1366,"dimy":768,"color_profundidad":24,"pixel_profundidad":24,"Browser":"Google Chrome","dia":2,"mes":5,"hora":22,"minuto":9,"segundo":47,"trial_type":"html-button-response","trial_index":0,"time_elapsed":28398,"internal_node_id":"0.0-0.0"},{"success":true,"trial_type":"fullscreen","trial_index":1,"time_elapsed":39831,"internal_node_id":"0.0-1.0"},{"rt":440063.8999999992,"responses":"{\"Nombres\":\"olivia Andrea \",\"Apellidos\":\"González Villegas\",\"Edad\":\"20\",\"Sexo\":\"Mujer\",\"Curso\":\"sección 218\",\"Colegio\":\"Andrés Bello\",\"Contacto\":\"olivia11.gonzalez@gmail.com\"}","trial_type":"survey-text","trial_index":2,"time_elapsed":479905,"internal_node_id":"0.0-2.0"},{"success":true,"timeout":false,"failed_images":[],"failed_audio":[],"failed_video":[],"trial_type":"preload","trial_index":3,"time_elapsed":480394,"internal_node_id":"0.0-3.0"},{"rt":33569.94999999914,"stimulus":"<h1 style:\"margin-top: 5%;\">Ejercicios de Comprensión de Lectura de la Universidad de Chile</h1><p style=\"font-size: 120%;\">En esta actividad, debes responder 24 preguntas de selección múltiple. Cada pregunta presenta 4 respuestas alternativas, pero sólo una de ellas es correcta. Por lo tanto, debes escoger una sola alternativa para cada pregunta. Además, debes reportar qué tan seguro(a) estás de la respuesta que das, con un:</p><ol style=\"font-size: 120%;text-align:left;margin-left: 40%;\"><li>No estoy seguro(a) para nada</li><li>No estoy muy seguro(a)</li><li>Estoy bastante seguro(a)</li><li>Estoy totalmente seguro(a)</li></ol><p style=\"font-size: 120%;\">Por favor lee bien los enunciados antes de responder. ¡Éxito!</p>","response":0,"trial_type":"html-button-response","trial_index":4,"time_elapsed":513965,"internal_node_id":"0.0-4.0"},{"rt":147428.5500000005,"responses":"{\"pregunta7\":\"b) se da como existente, y sólo se discute su relación con el cuerpo.\"}","question_order":"[0]","trial_type":"survey-multi-choice","trial_index":5,"time_elapsed":661397,"internal_node_id":"0.0-5.0-0.0"},{"rt":6722.925000000047,"response":{"pregunta7 likert":2},"question_order":[0],"trial_type":"survey-likert","trial_index":6,"time_elapsed":668123,"internal_node_id":"0.0-5.0-1.0"},{"rt":150873.99499999988,"responses":"{\"pregunta18\":\"b) El receptor es habitualmente pasivo frente a la publicidad.\"}","question_order":"[0]","trial_type":"survey-multi-choice","trial_index":7,"time_elapsed":818999,"internal_node_id":"0.0-5.0-2.0"},{"rt":21856.509999999544,"response":{"pregunta18 likert":2},"question_order":[0],"trial_type":"survey-likert","trial_index":8,"time_elapsed":840858,"internal_node_id":"0.0-5.0-3.0"},{"rt":179691.10499999986,"responses":"{\"pregunta17\":\"a) A la influencia de grupos que rechazaban su música.\"}","question_order":"[0]","trial_type":"survey-multi-choice","trial_index":9,"time_elapsed":1020549,"internal_node_id":"0.0-5.0-4.0"},{"rt":2994.789999998873,"response":{"pregunta17 likert":1},"question_order":[0],"trial_type":"survey-likert","trial_index":10,"time_elapsed":1023546,"internal_node_id":"0.0-5.0-5.0"},{"rt":980957.8550000006,"responses":"{\"pregunta9\":\"c) preparar los recuerdos del mañana.\"}","question_order":"[0]","trial_type":"survey-multi-choice","trial_index":11,"time_elapsed":2004507,"internal_node_id":"0.0-5.0-6.0"},{"rt":4941.459999999963,"response":{"pregunta9 likert":2},"question_order":[0],"trial_type":"survey-likert","trial_index":12,"time_elapsed":2009451,"internal_node_id":"0.0-5.0-7.0"},{"rt":147079.7950000018,"responses":"{\"pregunta20\":\"c) el hombre excesivo es inmoral.\"}","question_order":"[0]","trial_type":"survey-multi-choice","trial_index":13,"time_elapsed":2156535,"internal_node_id":"0.0-5.0-8.0"},{"rt":2431.04499999946,"response":{"pregunta20 likert":1},"question_order":[0],"trial_type":"survey-likert","trial_index":14,"time_elapsed":2158968,"internal_node_id":"0.0-5.0-9.0"},{"rt":144212.53500000061,"responses":"{\"pregunta2\":\"d) A la relación entre pensamiento y estructura social.\"}","question_order":"[0]","trial_type":"survey-multi-choice","trial_index":15,"time_elapsed":2303182,"internal_node_id":"0.0-5.0-10.0"},{"rt":3876.1050000009127,"response":{"pregunta2 likert":2},"question_order":[0],"trial_type":"survey-likert","trial_index":16,"time_elapsed":2307061,"internal_node_id":"0.0-5.0-11.0"},{"rt":94439.39499999955,"responses":"{\"pregunta13\":\"b) A la inutilidad de tanto esfuerzo si el objetivo es el reposo.\"}","question_order":"[0]","trial_type":"survey-multi-choice","trial_index":17,"time_elapsed":2401502,"internal_node_id":"0.0-5.0-12.0"},{"rt":3011.334999999497,"response":{"pregunta13 likert":1},"question_order":[0],"trial_type":"survey-likert","trial_index":18,"time_elapsed":2404516,"internal_node_id":"0.0-5.0-13.0"},{"rt":112826.11999999965,"responses":"{\"pregunta6\":\"b) Promover la asistencia a un evento específico de decoración a través de una atractiva descripción.\"}","question_order":"[0]","trial_type":"survey-multi-choice","trial_index":19,"time_elapsed":2517344,"internal_node_id":"0.0-5.0-14.0"},{"rt":3251.640000000596,"response":{"pregunta6 likert":2},"question_order":[0],"trial_type":"survey-likert","trial_index":20,"time_elapsed":2520599,"internal_node_id":"0.0-5.0-15.0"},{"rt":91779.70000000065,"responses":"{\"pregunta16\":\"a) Bomberos debería tener acceso a un seguro médico, al que pueda recurrir en caso de accidente.\"}","question_order":"[0]","trial_type":"survey-multi-choice","trial_index":21,"time_elapsed":2612382,"internal_node_id":"0.0-5.0-16.0"},{"rt":3239.740000000689,"response":{"pregunta16 likert":1},"question_order":[0],"trial_type":"survey-likert","trial_index":22,"time_elapsed":2615624,"internal_node_id":"0.0-5.0-17.0"},{"rt":119811.00999999931,"responses":"{\"pregunta14\":\"d) el mejor emperador es el que está muerto.\"}","question_order":"[0]","trial_type":"survey-multi-choice","trial_index":23,"time_elapsed":2735439,"internal_node_id":"0.0-5.0-18.0"},{"rt":3176.715000001248,"response":{"pregunta14 likert":1},"question_order":[0],"trial_type":"survey-likert","trial_index":24,"time_elapsed":2738618,"internal_node_id":"0.0-5.0-19.0"},{"rt":50972.729999999516,"responses":"{\"pregunta24\":\"d) para el mexicano, la muerte es cotidiana.\"}","question_order":"[0]","trial_type":"survey-multi-choice","trial_index":25,"time_elapsed":2789592,"internal_node_id":"0.0-5.0-20.0"},{"rt":3177.69000000041,"response":{"pregunta24 likert":1},"question_order":[0],"trial_type":"survey-likert","trial_index":26,"time_elapsed":2792772,"internal_node_id":"0.0-5.0-21.0"},{"rt":58712.57999999961,"responses":"{\"pregunta11\":\"d) Deleitar a sus receptores por medio de la belleza y el confort\"}","question_order":"[0]","trial_type":"survey-multi-choice","trial_index":27,"time_elapsed":2851487,"internal_node_id":"0.0-5.0-22.0"},{"rt":3993.0949999997392,"response":{"pregunta11 likert":1},"question_order":[0],"trial_type":"survey-likert","trial_index":28,"time_elapsed":2855483,"internal_node_id":"0.0-5.0-23.0"},{"rt":68884.37999999942,"responses":"{\"pregunta22\":\"b) El derecho a informar y el derecho a la privacidad son inconciliables.\"}","question_order":"[0]","trial_type":"survey-multi-choice","trial_index":29,"time_elapsed":2924371,"internal_node_id":"0.0-5.0-24.0"},{"rt":2779.200000000652,"response":{"pregunta22 likert":2},"question_order":[0],"trial_type":"survey-likert","trial_index":30,"time_elapsed":2927152,"internal_node_id":"0.0-5.0-25.0"},{"rt":86465.21500000032,"responses":"{\"pregunta23\":\"c) el jardinero estará muerto al día siguiente.\"}","question_order":"[0]","trial_type":"survey-multi-choice","trial_index":31,"time_elapsed":3013620,"internal_node_id":"0.0-5.0-26.0"},{"rt":2361.849999999162,"response":{"pregunta23 likert":3},"question_order":[0],"trial_type":"survey-likert","trial_index":32,"time_elapsed":3015984,"internal_node_id":"0.0-5.0-27.0"},{"rt":276780.8399999994,"responses":"{\"pregunta19\":\"c) llevan un control grupal de su embarazo.\"}","question_order":"[0]","trial_type":"survey-multi-choice","trial_index":33,"time_elapsed":3292767,"internal_node_id":"0.0-5.0-28.0"},{"rt":5245.674999999814,"response":{"pregunta19 likert":1},"question_order":[0],"trial_type":"survey-likert","trial_index":34,"time_elapsed":3298016,"internal_node_id":"0.0-5.0-29.0"},{"rt":186067.89000000013,"responses":"{\"pregunta4\":\"a) En la literatura como en la vida, lo importante son las preguntas.\"}","question_order":"[0]","trial_type":"survey-multi-choice","trial_index":35,"time_elapsed":3484086,"internal_node_id":"0.0-5.0-30.0"},{"rt":5054.649999999907,"response":{"pregunta4 likert":1},"question_order":[0],"trial_type":"survey-likert","trial_index":36,"time_elapsed":3489143,"internal_node_id":"0.0-5.0-31.0"},{"rt":70932.6399999992,"responses":"{\"pregunta3\":\"a) El inicio de la civilización china.\"}","question_order":"[0]","trial_type":"survey-multi-choice","trial_index":37,"time_elapsed":3560077,"internal_node_id":"0.0-5.0-32.0"},{"rt":3414.259999999311,"response":{"pregunta3 likert":3},"question_order":[0],"trial_type":"survey-likert","trial_index":38,"time_elapsed":3563493,"internal_node_id":"0.0-5.0-33.0"},{"rt":54447.64999999991,"responses":"{\"pregunta5\":\"a) Los momentos triviales de los viajes, en la escritura se vuelven significativos.\"}","question_order":"[0]","trial_type":"survey-multi-choice","trial_index":39,"time_elapsed":3617945,"internal_node_id":"0.0-5.0-34.0"},{"rt":2465.6450000004843,"response":{"pregunta5 likert":1},"question_order":[0],"trial_type":"survey-likert","trial_index":40,"time_elapsed":3620413,"internal_node_id":"0.0-5.0-35.0"},{"rt":65785.35499999952,"responses":"{\"pregunta8\":\"b) El ser humano se comporta de acuerdo con las circunstancias.\"}","question_order":"[0]","trial_type":"survey-multi-choice","trial_index":41,"time_elapsed":3686200,"internal_node_id":"0.0-5.0-36.0"},{"rt":3976.56500000041,"response":{"pregunta8 likert":3},"question_order":[0],"trial_type":"survey-likert","trial_index":42,"time_elapsed":3690179,"internal_node_id":"0.0-5.0-37.0"},{"rt":177211.53500000015,"responses":"{\"pregunta21\":\"a) El TLC causará una completa transformación de la economía chilena.\"}","question_order":"[0]","trial_type":"survey-multi-choice","trial_index":43,"time_elapsed":3867392,"internal_node_id":"0.0-5.0-38.0"},{"rt":2777.5349999992177,"response":{"pregunta21 likert":2},"question_order":[0],"trial_type":"survey-likert","trial_index":44,"time_elapsed":3870172,"internal_node_id":"0.0-5.0-39.0"},{"rt":144547.63499999885,"responses":"{\"pregunta15\":\"c) a partir de la manipulación del núcleo se han creado elementos químicos naturales.\"}","question_order":"[0]","trial_type":"survey-multi-choice","trial_index":45,"time_elapsed":4014721,"internal_node_id":"0.0-5.0-40.0"},{"rt":2329.69000000041,"response":{"pregunta15 likert":2},"question_order":[0],"trial_type":"survey-likert","trial_index":46,"time_elapsed":4017053,"internal_node_id":"0.0-5.0-41.0"},{"rt":118312.06499999855,"responses":"{\"pregunta1\":\"a) Entregan una característica detallada del personaje, a través de la voz narrativa.\"}","question_order":"[0]","trial_type":"survey-multi-choice","trial_index":47,"time_elapsed":4135368,"internal_node_id":"0.0-5.0-42.0"},{"rt":4093.199999999255,"response":{"pregunta1 likert":2},"question_order":[0],"trial_type":"survey-likert","trial_index":48,"time_elapsed":4139464,"internal_node_id":"0.0-5.0-43.0"},{"rt":60315.70499999728,"responses":"{\"pregunta10\":\"c) ritualistas y obsesivos.\"}","question_order":"[0]","trial_type":"survey-multi-choice","trial_index":49,"time_elapsed":4199782,"internal_node_id":"0.0-5.0-44.0"},{"rt":2124.5300000002608,"response":{"pregunta10 likert":2},"question_order":[0],"trial_type":"survey-likert","trial_index":50,"time_elapsed":4201909,"internal_node_id":"0.0-5.0-45.0"},{"rt":88678.73999999929,"responses":"{\"pregunta12\":\"d) Homenajear a quienes murieron.\"}","question_order":"[0]","trial_type":"survey-multi-choice","trial_index":51,"time_elapsed":4290592,"internal_node_id":"0.0-5.0-46.0"},{"rt":2812.1200000019744,"response":{"pregunta12 likert":3},"question_order":[0],"trial_type":"survey-likert","trial_index":52,"time_elapsed":4293406,"internal_node_id":"0.0-5.0-47.0"},{"rt":3805.1299999998882,"stimulus":"<p style=\"font-size: 120%\">Gracias por completar esta etapa del estudio. Ahora te invitamos a responder el cuestionario.<br><br></p>","response":0,"trial_type":"html-button-response","trial_index":53,"time_elapsed":4297218,"internal_node_id":"0.0-6.0"},{"rt":29905.96999999974,"stimulus":"<h1 style=\"margin-top: 5%\">Cuestionario para la Evaluación de Metas Académicas</h1><p style=\"font-size: 120%; margin-left: 3%; margin-top: 5%\">Este es un cuestionario que permite conocer cuáles son los principales motivos por los que los estudiantes se esfuerzan en su trabajo académico. A continuación, se te presentarán una serie de afirmaciones acerca de los motivos que puedes tener para estudiar.<br>Te pedimos que contestes a dichas afirmaciones reflexionando sobre el contenido de cada una de ellas, que, aunque te parezcan semejantes, en realidad, no lo son.<br>NO HAY RESPUESTAS CORRECTAS o INCORRECTAS, sólo queremos que respondas con la mayor precisión y sinceridad posible a las preguntas que se plantean.","response":0,"trial_type":"html-button-response","trial_index":54,"time_elapsed":4327125,"internal_node_id":"0.0-7.0"},{"rt":132052.83000000007,"response":{"Metas cuestionario pregunta1":3,"Metas cuestionario pregunta2":4,"Metas cuestionario pregunta3":3,"Metas cuestionario pregunta4":2,"Metas cuestionario pregunta5":4,"Metas cuestionario pregunta6":2,"Metas cuestionario pregunta7":3,"Metas cuestionario pregunta8":3,"Metas cuestionario pregunta9":0,"Metas cuestionario pregunta10":1,"Metas cuestionario pregunta11":0,"Metas cuestionario pregunta12":1,"Metas cuestionario pregunta13":2,"Metas cuestionario pregunta14":1,"Metas cuestionario pregunta15":4,"Metas cuestionario pregunta16":4,"Metas cuestionario pregunta17":4,"Metas cuestionario pregunta18":4,"Metas cuestionario pregunta19":4,"Metas cuestionario pregunta20":3},"question_order":[0,1,2,3,4,5,6,7,8,9,10,11,12,13,14,15,16,17,18,19],"trial_type":"survey-likert","trial_index":55,"time_elapsed":4459184,"internal_node_id":"0.0-8.0"},{"rt":4217.60500000231,"stimulus":"<p style=\"font-size: 120%\">Gracias por responder el cuestionario. Ahora te invitamos a seguir con el juego, que es muy breve.<br><br></p>","response":0,"trial_type":"html-button-response","trial_index":56,"time_elapsed":4463408,"internal_node_id":"0.0-9.0"},{"rt":12450.36999999825,"stimulus":"<h1>Juego</h1><p style=\"font-size: 120%;\">A continuación se te presentarán 16 pequeñas historias.<br>Por favor lee el texto presentado en cada una de ellas y luego haz click en el objeto de tu elección.<br>Si estás listo(a),<span style=\"color:red;\"> haz click en \"comenzar\"</span>.</p>","response":0,"trial_type":"html-button-response","trial_index":57,"time_elapsed":4475860,"internal_node_id":"0.0-10.0"},{"rt":22947.38000000175,"grid":[[1,1,1,1]],"target":[0,0],"response":[0,1],"correct":false,"juego":9,"trial_type":"serial-reaction-time-mouse","trial_index":58,"time_elapsed":4498811,"internal_node_id":"0.0-11.0-0.0"},{"rt":25599.349999995902,"grid":[[1,1,1],[1,1,1],[1,1,1],[1,1,1],[1,1,1],[1,1,1],[1,1,1],[1,1,1],[1,1,1]],"target":[0,0],"response":[1,0],"correct":false,"juego":10,"trial_type":"serial-reaction-time-mouse","trial_index":59,"time_elapsed":4524414,"internal_node_id":"0.0-11.0-1.0"},{"rt":91806.65999999829,"grid":[[1,1,1,1],[1,1,1,1],[1,1,1,1],[1,1,1,1],[1,1,1,1],[1,1,1,1],[1,1,1,1],[1,1,1,1],[1,1,1,1]],"target":[0,0],"response":[5,2],"correct":false,"juego":15,"trial_type":"serial-reaction-time-mouse","trial_index":60,"time_elapsed":4616226,"internal_node_id":"0.0-11.0-2.0"},{"rt":14904.525000001304,"grid":[[1,1,1,1]],"target":[0,0],"response":[0,2],"correct":false,"juego":1,"trial_type":"serial-reaction-time-mouse","trial_index":61,"time_elapsed":4631132,"internal_node_id":"0.0-11.0-3.0"},{"rt":48381.849999997765,"grid":[[1,1,1,1]],"target":[0,0],"response":[0,1],"correct":false,"juego":8,"trial_type":"serial-reaction-time-mouse","trial_index":62,"time_elapsed":4679517,"internal_node_id":"0.0-11.0-4.0"},{"rt":20597.085000001825,"grid":[[1,1,1,1]],"target":[0,0],"response":[0,2],"correct":false,"juego":11,"trial_type":"serial-reaction-time-mouse","trial_index":63,"time_elapsed":4700116,"internal_node_id":"0.0-11.0-5.0"},{"rt":16274.270000001416,"grid":[[1],[1],[1],[1]],"target":[0,0],"response":[0,0],"correct":true,"juego":4,"trial_type":"serial-reaction-time-mouse","trial_index":64,"time_elapsed":4716392,"internal_node_id":"0.0-11.0-6.0"},{"rt":47214.11999999732,"grid":[[1,1,1],[1,1,1],[1,1,1],[1,1,1],[1,1,1],[1,1,1],[1,1,1],[1,1,1],[1,1,1]],"target":[0,0],"response":[3,1],"correct":false,"juego":6,"trial_type":"serial-reaction-time-mouse","trial_index":65,"time_elapsed":4763609,"internal_node_id":"0.0-11.0-7.0"},{"rt":19092.650000002235,"grid":[[1,1,1,1],[1,1,1,1],[1,1,1,1],[1,1,1,1],[1,1,1,1],[1,1,1,1],[1,1,1,1],[1,1,1,1],[1,1,1,1]],"target":[0,0],"response":[3,2],"correct":false,"juego":14,"trial_type":"serial-reaction-time-mouse","trial_index":66,"time_elapsed":4782705,"internal_node_id":"0.0-11.0-8.0"},{"rt":11602.514999998733,"grid":[[1,1,1,1]],"target":[0,0],"response":[0,3],"correct":false,"juego":7,"trial_type":"serial-reaction-time-mouse","trial_index":67,"time_elapsed":4794310,"internal_node_id":"0.0-11.0-9.0"},{"rt":45856.46500000078,"grid":[[1,1,1,1]],"target":[0,0],"response":[0,3],"correct":false,"juego":2,"trial_type":"serial-reaction-time-mouse","trial_index":68,"time_elapsed":4840168,"internal_node_id":"0.0-11.0-10.0"},{"rt":26930.10000000149,"grid":[[1,1,1],[1,1,1],[1,1,1],[1,1,1],[1,1,1],[1,1,1],[1,1,1],[1,1,1],[1,1,1]],"target":[0,0],"response":[5,1],"correct":false,"juego":13,"trial_type":"serial-reaction-time-mouse","trial_index":69,"time_elapsed":4867100,"internal_node_id":"0.0-11.0-11.0"},{"rt":44052.4299999997,"grid":[[1,1,1,1]],"target":[0,0],"response":[0,0],"correct":true,"juego":12,"trial_type":"serial-reaction-time-mouse","trial_index":70,"time_elapsed":4911155,"internal_node_id":"0.0-11.0-12.0"},{"rt":25433.525000000373,"grid":[[1,1,1,1]],"target":[0,0],"response":[0,0],"correct":true,"juego":3,"trial_type":"serial-reaction-time-mouse","trial_index":71,"time_elapsed":4936590,"internal_node_id":"0.0-11.0-13.0"},{"rt":34471.37999999896,"grid":[[1,1,1],[1,1,1],[1,1,1],[1,1,1],[1,1,1],[1,1,1],[1,1,1],[1,1,1],[1,1,1]],"target":[0,0],"response":[5,1],"correct":false,"juego":5,"trial_type":"serial-reaction-time-mouse","trial_index":72,"time_elapsed":4971065,"internal_node_id":"0.0-11.0-14.0"}]