[{"rt":22674.000000000004,"stimulus":"<h1 style=\"color:red; margin-top: 3%;\">¡Bienvenido(a)!</h1><p style=\"text-align:left; justify-content:space-between; margin-right: 5%; margin-left: 5%; margin-top: 5%\"> Antes de empezar el estudio, necesitamos que nos confirmes que estás de acuerdo con participar. Recuerda que tu participación es 100% voluntaria y que lo único que te pedimos es responder lo mejor que puedas. Recuerda también que el estudio incluye:</p><ol style=\"text-align:left; justify-content:space-between; margin-right: 5%; margin-left: 5%;\"><li> un ejercicio de resolución de preguntas de selección múltiple (30’),</li><li>un cuestionario breve (5’),</li><li>un juego muy breve (3’),</li></ol><p style=\"text-align:left; justify-content:space-between; margin-right: 5%; margin-left: 5%;\">Si quieres participar, haz clic en “Acepto” luego de leer lo siguiente:<br></p><p style=\"text-align:left; justify-content:space-between; margin-right: 5%; margin-left: 5%;\">Acepto participar en el estudio “Estrategias de lectura y resolución de preguntas de selección múltiple”, en los términos aquí señalados:<br></p><p style=\"text-align:left; justify-content:space-between; margin-right: 5%; margin-left: 5%;\"><a href=\"http://ciae.uchile.cl/download.php?file=noticias/Asentimiento.pdf\" target=\"_blank\">Link a la hoja de información del Consentimiento.</a></p><p style=\"text-align:left; justify-content:space-between; margin-right: 5%; margin-left: 5%;\">Declaro que he leído (o se me ha leído) y (he) comprendido, las condiciones de mi participación en este estudio. He tenido la oportunidad de hacer preguntas y éstas han sido respondidas. No tengo dudas al respecto.</p>","response":0,"condicion_MCQ":10,"condicion_JUEGO":10,"condicion_INTER":10,"numero_participante":82,"numero_version":1,"dimx":414,"dimy":896,"color_profundidad":32,"pixel_profundidad":32,"Browser":"Apple Safari","dia":11,"mes":5,"hora":16,"minuto":39,"segundo":52,"trial_type":"html-button-response","trial_index":0,"time_elapsed":22681,"internal_node_id":"0.0-0.0"},{"success":true,"trial_type":"fullscreen","trial_index":1,"time_elapsed":33677,"internal_node_id":"0.0-1.0"},{"rt":63688,"responses":"{\"Nombres\":\"Marelly Nubely\",\"Apellidos\":\"Riffo Díaz\",\"Edad\":\"18\",\"Sexo\":\"Mujer\",\"Curso\":\"Sección 218\",\"Colegio\":\"Universidad Andrés Bello\",\"Contacto\":\"marelly.rdiaz@gmail.com\"}","trial_type":"survey-text","trial_index":2,"time_elapsed":97392,"internal_node_id":"0.0-2.0"},{"success":true,"timeout":false,"failed_images":[],"failed_audio":[],"failed_video":[],"trial_type":"preload","trial_index":3,"time_elapsed":98278,"internal_node_id":"0.0-3.0"},{"rt":22270,"stimulus":"<h1 style:\"margin-top: 5%;\">Ejercicios de Comprensión de Lectura de la Universidad de Chile</h1><p style=\"font-size: 120%;\">En esta actividad, debes responder 24 preguntas de selección múltiple. Cada pregunta presenta 4 respuestas alternativas, pero sólo una de ellas es correcta. Por lo tanto, debes escoger una sola alternativa para cada pregunta. Además, debes reportar qué tan seguro(a) estás de la respuesta que das, con un:</p><ol style=\"font-size: 120%;text-align:left;margin-left: 40%;\"><li>No estoy seguro(a) para nada</li><li>No estoy muy seguro(a)</li><li>Estoy bastante seguro(a)</li><li>Estoy totalmente seguro(a)</li></ol><p style=\"font-size: 120%;\">Por favor lee bien los enunciados antes de responder. ¡Éxito!</p>","response":0,"trial_type":"html-button-response","trial_index":4,"time_elapsed":120493,"internal_node_id":"0.0-4.0"},{"rt":45573,"responses":"{\"pregunta5\":\"c) La escritura plasma los mejores momentos de los viajes.\"}","question_order":"[0]","trial_type":"survey-multi-choice","trial_index":5,"time_elapsed":166071,"internal_node_id":"0.0-5.0-0.0"},{"rt":3592,"response":{"pregunta5 likert":2},"question_order":[0],"trial_type":"survey-likert","trial_index":6,"time_elapsed":169669,"internal_node_id":"0.0-5.0-1.0"},{"rt":32205,"responses":"{\"pregunta21\":\"b) Nuestra economía vivirá un proceso de ajuste a la nueva realidad.\"}","question_order":"[0]","trial_type":"survey-multi-choice","trial_index":7,"time_elapsed":201877,"internal_node_id":"0.0-5.0-2.0"},{"rt":4009,"response":{"pregunta21 likert":2},"question_order":[0],"trial_type":"survey-likert","trial_index":8,"time_elapsed":205889,"internal_node_id":"0.0-5.0-3.0"},{"rt":44391.00000000003,"responses":"{\"pregunta7\":\"b) se da como existente, y sólo se discute su relación con el cuerpo.\"}","question_order":"[0]","trial_type":"survey-multi-choice","trial_index":9,"time_elapsed":250284,"internal_node_id":"0.0-5.0-4.0"},{"rt":3948.000000000029,"response":{"pregunta7 likert":1},"question_order":[0],"trial_type":"survey-likert","trial_index":10,"time_elapsed":254236,"internal_node_id":"0.0-5.0-5.0"},{"rt":27229,"responses":"{\"pregunta2\":\"d) A la relación entre pensamiento y estructura social.\"}","question_order":"[0]","trial_type":"survey-multi-choice","trial_index":11,"time_elapsed":281468,"internal_node_id":"0.0-5.0-6.0"},{"rt":2137,"response":{"pregunta2 likert":2},"question_order":[0],"trial_type":"survey-likert","trial_index":12,"time_elapsed":283609,"internal_node_id":"0.0-5.0-7.0"},{"rt":18497,"responses":"{\"pregunta24\":\"d) la muerte es distinta en las grandes ciudades.\"}","question_order":"[0]","trial_type":"survey-multi-choice","trial_index":13,"time_elapsed":302108,"internal_node_id":"0.0-5.0-8.0"},{"rt":3255,"response":{"pregunta24 likert":3},"question_order":[0],"trial_type":"survey-likert","trial_index":14,"time_elapsed":305367,"internal_node_id":"0.0-5.0-9.0"},{"rt":123882.99999999994,"responses":"{\"pregunta14\":\"d) el mejor emperador es el que está muerto.\"}","question_order":"[0]","trial_type":"survey-multi-choice","trial_index":15,"time_elapsed":449691,"internal_node_id":"0.0-5.0-10.0"},{"rt":2105,"response":{"pregunta14 likert":1},"question_order":[0],"trial_type":"survey-likert","trial_index":16,"time_elapsed":451803,"internal_node_id":"0.0-5.0-11.0"},{"rt":27188.99999999994,"responses":"{\"pregunta10\":\"c) ritualistas y obsesivos.\"}","question_order":"[0]","trial_type":"survey-multi-choice","trial_index":17,"time_elapsed":478997,"internal_node_id":"0.0-5.0-12.0"},{"rt":1998,"response":{"pregunta10 likert":1},"question_order":[0],"trial_type":"survey-likert","trial_index":18,"time_elapsed":480998,"internal_node_id":"0.0-5.0-13.0"},{"rt":32235,"responses":"{\"pregunta19\":\"c) tienen dificultades durante el parto.\"}","question_order":"[0]","trial_type":"survey-multi-choice","trial_index":19,"time_elapsed":513237,"internal_node_id":"0.0-5.0-14.0"},{"rt":2656,"response":{"pregunta19 likert":2},"question_order":[0],"trial_type":"survey-likert","trial_index":20,"time_elapsed":515897,"internal_node_id":"0.0-5.0-15.0"},{"rt":39047,"responses":"{\"pregunta15\":\"a) a partir de la manipulación del núcleo se han creado elementos químicos naturales.\"}","question_order":"[0]","trial_type":"survey-multi-choice","trial_index":21,"time_elapsed":554948,"internal_node_id":"0.0-5.0-16.0"},{"rt":2551,"response":{"pregunta15 likert":2},"question_order":[0],"trial_type":"survey-likert","trial_index":22,"time_elapsed":557503,"internal_node_id":"0.0-5.0-17.0"},{"rt":33900,"responses":"{\"pregunta23\":\"c) el jardinero estará muerto al día siguiente.\"}","question_order":"[0]","trial_type":"survey-multi-choice","trial_index":23,"time_elapsed":591406,"internal_node_id":"0.0-5.0-18.0"},{"rt":3316,"response":{"pregunta23 likert":3},"question_order":[0],"trial_type":"survey-likert","trial_index":24,"time_elapsed":594725,"internal_node_id":"0.0-5.0-19.0"},{"rt":39615,"responses":"{\"pregunta17\":\"a) A la influencia de grupos que rechazaban su música.\"}","question_order":"[0]","trial_type":"survey-multi-choice","trial_index":25,"time_elapsed":634344,"internal_node_id":"0.0-5.0-20.0"},{"rt":2767,"response":{"pregunta17 likert":2},"question_order":[0],"trial_type":"survey-likert","trial_index":26,"time_elapsed":637114,"internal_node_id":"0.0-5.0-21.0"},{"rt":40442,"responses":"{\"pregunta3\":\"c) El inicio de la dinastía Chang.\"}","question_order":"[0]","trial_type":"survey-multi-choice","trial_index":27,"time_elapsed":677561,"internal_node_id":"0.0-5.0-22.0"},{"rt":1855,"response":{"pregunta3 likert":1},"question_order":[0],"trial_type":"survey-likert","trial_index":28,"time_elapsed":679420,"internal_node_id":"0.0-5.0-23.0"},{"rt":39515,"responses":"{\"pregunta20\":\"a) las personas excesivas son más felices.\"}","question_order":"[0]","trial_type":"survey-multi-choice","trial_index":29,"time_elapsed":718939,"internal_node_id":"0.0-5.0-24.0"},{"rt":1816,"response":{"pregunta20 likert":2},"question_order":[0],"trial_type":"survey-likert","trial_index":30,"time_elapsed":720760,"internal_node_id":"0.0-5.0-25.0"},{"rt":6686.999999999884,"responses":"{\"pregunta9\":\"a) una constante espera.\"}","question_order":"[0]","trial_type":"survey-multi-choice","trial_index":31,"time_elapsed":727450,"internal_node_id":"0.0-5.0-26.0"},{"rt":1930,"response":{"pregunta9 likert":1},"question_order":[0],"trial_type":"survey-likert","trial_index":32,"time_elapsed":729384,"internal_node_id":"0.0-5.0-27.0"},{"rt":47083,"responses":"{\"pregunta18\":\"c) La publicidad se encuentra principalmente en la televisión.\"}","question_order":"[0]","trial_type":"survey-multi-choice","trial_index":33,"time_elapsed":776470,"internal_node_id":"0.0-5.0-28.0"},{"rt":2066,"response":{"pregunta18 likert":1},"question_order":[0],"trial_type":"survey-likert","trial_index":34,"time_elapsed":778539,"internal_node_id":"0.0-5.0-29.0"},{"rt":24888.000000000116,"responses":"{\"pregunta16\":\"a) Bomberos debería tener acceso a un seguro médico, al que pueda recurrir en caso de accidente.\"}","question_order":"[0]","trial_type":"survey-multi-choice","trial_index":35,"time_elapsed":803430,"internal_node_id":"0.0-5.0-30.0"},{"rt":3363,"response":{"pregunta16 likert":3},"question_order":[0],"trial_type":"survey-likert","trial_index":36,"time_elapsed":806796,"internal_node_id":"0.0-5.0-31.0"},{"rt":35915.99999999988,"responses":"{\"pregunta8\":\"d) Lo que es normal en un asilo es anormal en un campo de concentración.\"}","question_order":"[0]","trial_type":"survey-multi-choice","trial_index":37,"time_elapsed":842716,"internal_node_id":"0.0-5.0-32.0"},{"rt":2790,"response":{"pregunta8 likert":1},"question_order":[0],"trial_type":"survey-likert","trial_index":38,"time_elapsed":845510,"internal_node_id":"0.0-5.0-33.0"},{"rt":29794,"responses":"{\"pregunta13\":\"c) Al deseo de privilegiar el ocio por sobre el trabajo.\"}","question_order":"[0]","trial_type":"survey-multi-choice","trial_index":39,"time_elapsed":875308,"internal_node_id":"0.0-5.0-34.0"},{"rt":2408,"response":{"pregunta13 likert":1},"question_order":[0],"trial_type":"survey-likert","trial_index":40,"time_elapsed":877721,"internal_node_id":"0.0-5.0-35.0"},{"rt":9967,"responses":"{\"pregunta6\":\"c) Orientar la opción estética de un grupo de personas en lo que se refiere a la decoración de interiores.\"}","question_order":"[0]","trial_type":"survey-multi-choice","trial_index":41,"time_elapsed":887691,"internal_node_id":"0.0-5.0-36.0"},{"rt":2705,"response":{"pregunta6 likert":1},"question_order":[0],"trial_type":"survey-likert","trial_index":42,"time_elapsed":890399,"internal_node_id":"0.0-5.0-37.0"},{"rt":21312,"responses":"{\"pregunta4\":\"c) En la literatura, el narrador expresa su voluntad de libertad.\"}","question_order":"[0]","trial_type":"survey-multi-choice","trial_index":43,"time_elapsed":911715,"internal_node_id":"0.0-5.0-38.0"},{"rt":1824,"response":{"pregunta4 likert":1},"question_order":[0],"trial_type":"survey-likert","trial_index":44,"time_elapsed":913542,"internal_node_id":"0.0-5.0-39.0"},{"rt":20882,"responses":"{\"pregunta22\":\"c) Se necesita un marco legal para delimitar lo público y lo privado en materia informativa.\"}","question_order":"[0]","trial_type":"survey-multi-choice","trial_index":45,"time_elapsed":934429,"internal_node_id":"0.0-5.0-40.0"},{"rt":5048,"response":{"pregunta22 likert":3},"question_order":[0],"trial_type":"survey-likert","trial_index":46,"time_elapsed":939480,"internal_node_id":"0.0-5.0-41.0"},{"rt":34177,"responses":"{\"pregunta11\":\"c) Provocar el deseo de la adquisición vertiginosa.\"}","question_order":"[0]","trial_type":"survey-multi-choice","trial_index":47,"time_elapsed":973661,"internal_node_id":"0.0-5.0-42.0"},{"rt":3213,"response":{"pregunta11 likert":3},"question_order":[0],"trial_type":"survey-likert","trial_index":48,"time_elapsed":976878,"internal_node_id":"0.0-5.0-43.0"},{"rt":21609,"responses":"{\"pregunta1\":\"c) Enjuician la acción del narrador dentro del relato.\"}","question_order":"[0]","trial_type":"survey-multi-choice","trial_index":49,"time_elapsed":998490,"internal_node_id":"0.0-5.0-44.0"},{"rt":2174,"response":{"pregunta1 likert":2},"question_order":[0],"trial_type":"survey-likert","trial_index":50,"time_elapsed":1000668,"internal_node_id":"0.0-5.0-45.0"},{"rt":10680.000000000116,"responses":"{\"pregunta12\":\"c) Homenajear a quienes murieron.\"}","question_order":"[0]","trial_type":"survey-multi-choice","trial_index":51,"time_elapsed":1011351,"internal_node_id":"0.0-5.0-46.0"},{"rt":2205,"response":{"pregunta12 likert":2},"question_order":[0],"trial_type":"survey-likert","trial_index":52,"time_elapsed":1013560,"internal_node_id":"0.0-5.0-47.0"},{"rt":2756887,"stimulus":"<p style=\"font-size: 120%\">Gracias por completar esta etapa del estudio. Ahora te invitamos a responder el cuestionario.<br><br></p>","response":0,"trial_type":"html-button-response","trial_index":53,"time_elapsed":3793660,"internal_node_id":"0.0-6.0"},{"rt":20902,"stimulus":"<h1 style=\"margin-top: 5%\">Cuestionario para la Evaluación de Metas Académicas</h1><p style=\"font-size: 120%; margin-left: 3%; margin-top: 5%\">Este es un cuestionario que permite conocer cuáles son los principales motivos por los que los estudiantes se esfuerzan en su trabajo académico. A continuación, se te presentarán una serie de afirmaciones acerca de los motivos que puedes tener para estudiar.<br>Te pedimos que contestes a dichas afirmaciones reflexionando sobre el contenido de cada una de ellas, que, aunque te parezcan semejantes, en realidad, no lo son.<br>NO HAY RESPUESTAS CORRECTAS o INCORRECTAS, sólo queremos que respondas con la mayor precisión y sinceridad posible a las preguntas que se plantean.","response":0,"trial_type":"html-button-response","trial_index":54,"time_elapsed":3814573,"internal_node_id":"0.0-7.0"},{"rt":105800,"response":{"Metas cuestionario pregunta1":3,"Metas cuestionario pregunta2":2,"Metas cuestionario pregunta3":3,"Metas cuestionario pregunta4":2,"Metas cuestionario pregunta5":3,"Metas cuestionario pregunta6":3,"Metas cuestionario pregunta7":2,"Metas cuestionario pregunta8":3,"Metas cuestionario pregunta9":1,"Metas cuestionario pregunta10":0,"Metas cuestionario pregunta11":0,"Metas cuestionario pregunta12":0,"Metas cuestionario pregunta13":0,"Metas cuestionario pregunta14":0,"Metas cuestionario pregunta15":3,"Metas cuestionario pregunta16":3,"Metas cuestionario pregunta17":3,"Metas cuestionario pregunta18":4,"Metas cuestionario pregunta19":4,"Metas cuestionario pregunta20":0},"question_order":[0,1,2,3,4,5,6,7,8,9,10,11,12,13,14,15,16,17,18,19],"trial_type":"survey-likert","trial_index":55,"time_elapsed":3920388,"internal_node_id":"0.0-8.0"},{"rt":8924,"stimulus":"<p style=\"font-size: 120%\">Gracias por responder el cuestionario. Ahora te invitamos a seguir con el juego, que es muy breve.<br><br></p>","response":0,"trial_type":"html-button-response","trial_index":56,"time_elapsed":3929321,"internal_node_id":"0.0-9.0"},{"rt":9339,"stimulus":"<h1>Juego</h1><p style=\"font-size: 120%;\">A continuación se te presentarán 16 pequeñas historias.<br>Por favor lee el texto presentado en cada una de ellas y luego haz click en el objeto de tu elección.<br>Si estás listo(a),<span style=\"color:red;\"> haz click en \"comenzar\"</span>.</p>","response":0,"trial_type":"html-button-response","trial_index":57,"time_elapsed":3938663,"internal_node_id":"0.0-10.0"},{"rt":5826,"grid":[[1],[1],[1],[1]],"target":[0,0],"response":[1,0],"correct":false,"juego":4,"trial_type":"serial-reaction-time-mouse","trial_index":58,"time_elapsed":3944495,"internal_node_id":"0.0-11.0-0.0"},{"rt":9645,"grid":[[1,1,1,1]],"target":[0,0],"response":[0,2],"correct":false,"juego":8,"trial_type":"serial-reaction-time-mouse","trial_index":59,"time_elapsed":3954143,"internal_node_id":"0.0-11.0-1.0"},{"rt":6395,"grid":[[1,1,1,1]],"target":[0,0],"response":[0,0],"correct":true,"juego":2,"trial_type":"serial-reaction-time-mouse","trial_index":60,"time_elapsed":3960542,"internal_node_id":"0.0-11.0-2.0"},{"rt":9190.999999999534,"grid":[[1,1,1,1],[1,1,1,1],[1,1,1,1],[1,1,1,1],[1,1,1,1],[1,1,1,1],[1,1,1,1],[1,1,1,1],[1,1,1,1]],"target":[0,0],"response":[1,2],"correct":false,"juego":14,"trial_type":"serial-reaction-time-mouse","trial_index":61,"time_elapsed":3969742,"internal_node_id":"0.0-11.0-3.0"},{"rt":14153,"grid":[[1,1,1,1]],"target":[0,0],"response":[0,3],"correct":false,"juego":12,"trial_type":"serial-reaction-time-mouse","trial_index":62,"time_elapsed":3983900,"internal_node_id":"0.0-11.0-4.0"},{"rt":12246,"grid":[[1,1,1,1]],"target":[0,0],"response":[0,1],"correct":false,"juego":9,"trial_type":"serial-reaction-time-mouse","trial_index":63,"time_elapsed":3996149,"internal_node_id":"0.0-11.0-5.0"},{"rt":12683.999999999534,"grid":[[1,1,1],[1,1,1],[1,1,1],[1,1,1],[1,1,1],[1,1,1],[1,1,1],[1,1,1],[1,1,1]],"target":[0,0],"response":[1,1],"correct":false,"juego":13,"trial_type":"serial-reaction-time-mouse","trial_index":64,"time_elapsed":4008840,"internal_node_id":"0.0-11.0-6.0"},{"rt":6961,"grid":[[1,1,1,1]],"target":[0,0],"response":[0,2],"correct":false,"juego":1,"trial_type":"serial-reaction-time-mouse","trial_index":65,"time_elapsed":4015805,"internal_node_id":"0.0-11.0-7.0"},{"rt":11585,"grid":[[1,1,1],[1,1,1],[1,1,1],[1,1,1],[1,1,1],[1,1,1],[1,1,1],[1,1,1],[1,1,1]],"target":[0,0],"response":[7,0],"correct":false,"juego":10,"trial_type":"serial-reaction-time-mouse","trial_index":66,"time_elapsed":4027397,"internal_node_id":"0.0-11.0-8.0"},{"rt":9683,"grid":[[1,1,1,1]],"target":[0,0],"response":[0,0],"correct":true,"juego":3,"trial_type":"serial-reaction-time-mouse","trial_index":67,"time_elapsed":4037084,"internal_node_id":"0.0-11.0-9.0"},{"rt":7413,"grid":[[1,1,1],[1,1,1],[1,1,1],[1,1,1],[1,1,1],[1,1,1],[1,1,1],[1,1,1],[1,1,1]],"target":[0,0],"response":[1,1],"correct":false,"juego":5,"trial_type":"serial-reaction-time-mouse","trial_index":68,"time_elapsed":4044505,"internal_node_id":"0.0-11.0-10.0"},{"rt":13603,"grid":[[1,1,1,1]],"target":[0,0],"response":[0,3],"correct":false,"juego":11,"trial_type":"serial-reaction-time-mouse","trial_index":69,"time_elapsed":4058112,"internal_node_id":"0.0-11.0-11.0"},{"rt":7547,"grid":[[1,1,1,1]],"target":[0,0],"response":[0,1],"correct":false,"juego":7,"trial_type":"serial-reaction-time-mouse","trial_index":70,"time_elapsed":4065661,"internal_node_id":"0.0-11.0-12.0"},{"rt":6376,"grid":[[1,1,1],[1,1,1],[1,1,1],[1,1,1],[1,1,1],[1,1,1],[1,1,1],[1,1,1],[1,1,1]],"target":[0,0],"response":[7,1],"correct":false,"juego":6,"trial_type":"serial-reaction-time-mouse","trial_index":71,"time_elapsed":4072044,"internal_node_id":"0.0-11.0-13.0"},{"rt":9392,"grid":[[1,1,1,1],[1,1,1,1],[1,1,1,1],[1,1,1,1],[1,1,1,1],[1,1,1,1],[1,1,1,1],[1,1,1,1],[1,1,1,1]],"target":[0,0],"response":[7,2],"correct":false,"juego":15,"trial_type":"serial-reaction-time-mouse","trial_index":72,"time_elapsed":4081444,"internal_node_id":"0.0-11.0-14.0"}]