[{"rt":36554.5,"stimulus":"<h1 style=\"color:red; margin-top: 3%;\">¡Bienvenido(a)!</h1><p style=\"text-align:left; justify-content:space-between; margin-right: 5%; margin-left: 5%; margin-top: 5%\"> Antes de empezar el estudio, necesitamos que nos confirmes que estás de acuerdo con participar. Recuerda que tu participación es 100% voluntaria y que lo único que te pedimos es responder lo mejor que puedas. Recuerda también que el estudio incluye:</p><ol style=\"text-align:left; justify-content:space-between; margin-right: 5%; margin-left: 5%;\"><li> un ejercicio de resolución de preguntas de selección múltiple (30’),</li><li>un cuestionario breve (5’),</li><li>un juego muy breve (3’),</li></ol><p style=\"text-align:left; justify-content:space-between; margin-right: 5%; margin-left: 5%;\">Si quieres participar, haz clic en “Acepto” luego de leer lo siguiente:<br></p><p style=\"text-align:left; justify-content:space-between; margin-right: 5%; margin-left: 5%;\">Acepto participar en el estudio “Estrategias de lectura y resolución de preguntas de selección múltiple”, en los términos aquí señalados:<br></p><p style=\"text-align:left; justify-content:space-between; margin-right: 5%; margin-left: 5%;\"><a href=\"http://ciae.uchile.cl/download.php?file=noticias/Asentimiento.pdf\" target=\"_blank\">Link a la hoja de información del Consentimiento.</a></p><p style=\"text-align:left; justify-content:space-between; margin-right: 5%; margin-left: 5%;\">Declaro que he leído (o se me ha leído) y (he) comprendido, las condiciones de mi participación en este estudio. He tenido la oportunidad de hacer preguntas y éstas han sido respondidas. No tengo dudas al respecto.</p>","response":0,"condicion_MCQ":2,"condicion_JUEGO":2,"condicion_INTER":2,"numero_participante":26,"numero_version":1,"dimx":1366,"dimy":768,"color_profundidad":24,"pixel_profundidad":24,"Browser":"Google Chrome","dia":3,"mes":5,"hora":11,"minuto":17,"segundo":33,"trial_type":"html-button-response","trial_index":0,"time_elapsed":36559,"internal_node_id":"0.0-0.0"},{"success":true,"trial_type":"fullscreen","trial_index":1,"time_elapsed":45244,"internal_node_id":"0.0-1.0"},{"rt":56967.90000000596,"responses":"{\"Nombres\":\"Martín Ignacio\",\"Apellidos\":\"Muñoz Maturana\",\"Edad\":\"26\",\"Sexo\":\"Hombre\",\"Curso\":\"204\",\"Colegio\":\"Andrés Bello\",\"Contacto\":\"mmunoz2016@inaf.cl\"}","trial_type":"survey-text","trial_index":2,"time_elapsed":102227,"internal_node_id":"0.0-2.0"},{"success":true,"timeout":false,"failed_images":[],"failed_audio":[],"failed_video":[],"trial_type":"preload","trial_index":3,"time_elapsed":105094,"internal_node_id":"0.0-3.0"},{"rt":17599.70000001788,"stimulus":"<h1 style:\"margin-top: 5%;\">Ejercicios de Comprensión de Lectura de la Universidad de Chile</h1><p style=\"font-size: 120%;\">En esta actividad, debes responder 24 preguntas de selección múltiple. Cada pregunta presenta 4 respuestas alternativas, pero sólo una de ellas es correcta. Por lo tanto, debes escoger una sola alternativa para cada pregunta. Además, debes reportar qué tan seguro(a) estás de la respuesta que das, con un:</p><ol style=\"font-size: 120%;text-align:left;margin-left: 40%;\"><li>No estoy seguro(a) para nada</li><li>No estoy muy seguro(a)</li><li>Estoy bastante seguro(a)</li><li>Estoy totalmente seguro(a)</li></ol><p style=\"font-size: 120%;\">Por favor lee bien los enunciados antes de responder. ¡Éxito!</p>","response":0,"trial_type":"html-button-response","trial_index":4,"time_elapsed":122696,"internal_node_id":"0.0-4.0"},{"rt":62801.09999999404,"responses":"{\"pregunta1\":\"a) Aportan informaciones con las que se reconstruye el personaje dentro de un relato.\"}","question_order":"[0]","trial_type":"survey-multi-choice","trial_index":5,"time_elapsed":185499,"internal_node_id":"0.0-5.0-0.0"},{"rt":2297.2000000178814,"response":{"pregunta1 likert":2},"question_order":[0],"trial_type":"survey-likert","trial_index":6,"time_elapsed":187802,"internal_node_id":"0.0-5.0-1.0"},{"rt":86620.79999998212,"responses":"{\"pregunta19\":\"c) sufren dolores de espalda.\"}","question_order":"[0]","trial_type":"survey-multi-choice","trial_index":7,"time_elapsed":274427,"internal_node_id":"0.0-5.0-2.0"},{"rt":1606.199999988079,"response":{"pregunta19 likert":2},"question_order":[0],"trial_type":"survey-likert","trial_index":8,"time_elapsed":276038,"internal_node_id":"0.0-5.0-3.0"},{"rt":86801.69999998808,"responses":"{\"pregunta10\":\"d) ritualistas y obsesivos.\"}","question_order":"[0]","trial_type":"survey-multi-choice","trial_index":9,"time_elapsed":362845,"internal_node_id":"0.0-5.0-4.0"},{"rt":1355.2000000178814,"response":{"pregunta10 likert":2},"question_order":[0],"trial_type":"survey-likert","trial_index":10,"time_elapsed":364204,"internal_node_id":"0.0-5.0-5.0"},{"rt":51178.40000000596,"responses":"{\"pregunta24\":\"a) para el mexicano, la muerte es cotidiana.\"}","question_order":"[0]","trial_type":"survey-multi-choice","trial_index":11,"time_elapsed":415387,"internal_node_id":"0.0-5.0-6.0"},{"rt":1682.699999988079,"response":{"pregunta24 likert":2},"question_order":[0],"trial_type":"survey-likert","trial_index":12,"time_elapsed":417074,"internal_node_id":"0.0-5.0-7.0"},{"rt":36787.19999998808,"responses":"{\"pregunta21\":\"d) Nuestra economía vivirá un proceso de ajuste a la nueva realidad.\"}","question_order":"[0]","trial_type":"survey-multi-choice","trial_index":13,"time_elapsed":453867,"internal_node_id":"0.0-5.0-8.0"},{"rt":6995.5999999940395,"response":{"pregunta21 likert":1},"question_order":[0],"trial_type":"survey-likert","trial_index":14,"time_elapsed":460867,"internal_node_id":"0.0-5.0-9.0"},{"rt":54212.19999998808,"responses":"{\"pregunta6\":\"c) Promover la asistencia a un evento específico de decoración a través de una atractiva descripción.\"}","question_order":"[0]","trial_type":"survey-multi-choice","trial_index":15,"time_elapsed":515083,"internal_node_id":"0.0-5.0-10.0"},{"rt":1755.800000011921,"response":{"pregunta6 likert":2},"question_order":[0],"trial_type":"survey-likert","trial_index":16,"time_elapsed":516843,"internal_node_id":"0.0-5.0-11.0"},{"rt":63297.69999998808,"responses":"{\"pregunta5\":\"b) Los momentos triviales de los viajes, en la escritura se vuelven significativos.\"}","question_order":"[0]","trial_type":"survey-multi-choice","trial_index":17,"time_elapsed":580147,"internal_node_id":"0.0-5.0-12.0"},{"rt":1546.2000000178814,"response":{"pregunta5 likert":2},"question_order":[0],"trial_type":"survey-likert","trial_index":18,"time_elapsed":581698,"internal_node_id":"0.0-5.0-13.0"},{"rt":76754,"responses":"{\"pregunta18\":\"c) El receptor es habitualmente pasivo frente a la publicidad.\"}","question_order":"[0]","trial_type":"survey-multi-choice","trial_index":19,"time_elapsed":658456,"internal_node_id":"0.0-5.0-14.0"},{"rt":1923.5999999940395,"response":{"pregunta18 likert":2},"question_order":[0],"trial_type":"survey-likert","trial_index":20,"time_elapsed":660385,"internal_node_id":"0.0-5.0-15.0"},{"rt":75397.30000001192,"responses":"{\"pregunta14\":\"a) el mejor emperador es el que está muerto.\"}","question_order":"[0]","trial_type":"survey-multi-choice","trial_index":21,"time_elapsed":735786,"internal_node_id":"0.0-5.0-16.0"},{"rt":1594.2000000178814,"response":{"pregunta14 likert":2},"question_order":[0],"trial_type":"survey-likert","trial_index":22,"time_elapsed":737385,"internal_node_id":"0.0-5.0-17.0"},{"rt":48754.89999997616,"responses":"{\"pregunta7\":\"c) se da como existente, y sólo se discute su relación con el cuerpo.\"}","question_order":"[0]","trial_type":"survey-multi-choice","trial_index":23,"time_elapsed":786145,"internal_node_id":"0.0-5.0-18.0"},{"rt":2279.300000011921,"response":{"pregunta7 likert":2},"question_order":[0],"trial_type":"survey-likert","trial_index":24,"time_elapsed":788429,"internal_node_id":"0.0-5.0-19.0"},{"rt":59374.20000001788,"responses":"{\"pregunta13\":\"a) Al premio merecido después de tantos esfuerzos.\"}","question_order":"[0]","trial_type":"survey-multi-choice","trial_index":25,"time_elapsed":847808,"internal_node_id":"0.0-5.0-20.0"},{"rt":1326.5,"response":{"pregunta13 likert":2},"question_order":[0],"trial_type":"survey-likert","trial_index":26,"time_elapsed":849139,"internal_node_id":"0.0-5.0-21.0"},{"rt":72409.59999999404,"responses":"{\"pregunta20\":\"c) para Aristóteles la virtud estaba en el justo equilibrio.\"}","question_order":"[0]","trial_type":"survey-multi-choice","trial_index":27,"time_elapsed":921553,"internal_node_id":"0.0-5.0-22.0"},{"rt":3204.5999999940395,"response":{"pregunta20 likert":1},"question_order":[0],"trial_type":"survey-likert","trial_index":28,"time_elapsed":924763,"internal_node_id":"0.0-5.0-23.0"},{"rt":58758,"responses":"{\"pregunta4\":\"b) En la literatura como en la vida, lo importante son las preguntas.\"}","question_order":"[0]","trial_type":"survey-multi-choice","trial_index":29,"time_elapsed":983528,"internal_node_id":"0.0-5.0-24.0"},{"rt":1386.300000011921,"response":{"pregunta4 likert":2},"question_order":[0],"trial_type":"survey-likert","trial_index":30,"time_elapsed":984918,"internal_node_id":"0.0-5.0-25.0"},{"rt":42354.20000001788,"responses":"{\"pregunta15\":\"b) el uranio es el elemento natural con el mayor número de protones en el núcleo.\"}","question_order":"[0]","trial_type":"survey-multi-choice","trial_index":31,"time_elapsed":1027277,"internal_node_id":"0.0-5.0-26.0"},{"rt":1614.5,"response":{"pregunta15 likert":2},"question_order":[0],"trial_type":"survey-likert","trial_index":32,"time_elapsed":1028896,"internal_node_id":"0.0-5.0-27.0"},{"rt":62724.5,"responses":"{\"pregunta9\":\"c) la persistencia de la melancolía y la desesperanza.\"}","question_order":"[0]","trial_type":"survey-multi-choice","trial_index":33,"time_elapsed":1091624,"internal_node_id":"0.0-5.0-28.0"},{"rt":1416.0999999940395,"response":{"pregunta9 likert":2},"question_order":[0],"trial_type":"survey-likert","trial_index":34,"time_elapsed":1093045,"internal_node_id":"0.0-5.0-29.0"},{"rt":41342.70000001788,"responses":"{\"pregunta3\":\"a) El inicio de la dinastía Chang.\"}","question_order":"[0]","trial_type":"survey-multi-choice","trial_index":35,"time_elapsed":1134393,"internal_node_id":"0.0-5.0-30.0"},{"rt":1328.7000000178814,"response":{"pregunta3 likert":2},"question_order":[0],"trial_type":"survey-likert","trial_index":36,"time_elapsed":1135727,"internal_node_id":"0.0-5.0-31.0"},{"rt":64373.19999998808,"responses":"{\"pregunta17\":\"d) A la inexistencia de un recinto adecuado para el recital.\"}","question_order":"[0]","trial_type":"survey-multi-choice","trial_index":37,"time_elapsed":1200106,"internal_node_id":"0.0-5.0-32.0"},{"rt":2129.699999988079,"response":{"pregunta17 likert":3},"question_order":[0],"trial_type":"survey-likert","trial_index":38,"time_elapsed":1202241,"internal_node_id":"0.0-5.0-33.0"},{"rt":40566,"responses":"{\"pregunta16\":\"c) Por el riesgo que corren diariamente, los bomberos deberían tener mejores condiciones de seguridad.\"}","question_order":"[0]","trial_type":"survey-multi-choice","trial_index":39,"time_elapsed":1242813,"internal_node_id":"0.0-5.0-34.0"},{"rt":2238.2000000178814,"response":{"pregunta16 likert":2},"question_order":[0],"trial_type":"survey-likert","trial_index":40,"time_elapsed":1245056,"internal_node_id":"0.0-5.0-35.0"},{"rt":30581.899999976158,"responses":"{\"pregunta22\":\"b) El derecho a informar y el derecho a la privacidad son inconciliables.\"}","question_order":"[0]","trial_type":"survey-multi-choice","trial_index":41,"time_elapsed":1275643,"internal_node_id":"0.0-5.0-36.0"},{"rt":1369.5,"response":{"pregunta22 likert":2},"question_order":[0],"trial_type":"survey-likert","trial_index":42,"time_elapsed":1277019,"internal_node_id":"0.0-5.0-37.0"},{"rt":41075.59999999404,"responses":"{\"pregunta11\":\"d) Provocar el deseo de la adquisición vertiginosa.\"}","question_order":"[0]","trial_type":"survey-multi-choice","trial_index":43,"time_elapsed":1318099,"internal_node_id":"0.0-5.0-38.0"},{"rt":1585.300000011921,"response":{"pregunta11 likert":2},"question_order":[0],"trial_type":"survey-likert","trial_index":44,"time_elapsed":1319690,"internal_node_id":"0.0-5.0-39.0"},{"rt":42364.20000001788,"responses":"{\"pregunta2\":\"a) A la relación entre pensamiento y estructura social.\"}","question_order":"[0]","trial_type":"survey-multi-choice","trial_index":45,"time_elapsed":1362058,"internal_node_id":"0.0-5.0-40.0"},{"rt":1717.5,"response":{"pregunta2 likert":2},"question_order":[0],"trial_type":"survey-likert","trial_index":46,"time_elapsed":1363780,"internal_node_id":"0.0-5.0-41.0"},{"rt":39572.19999998808,"responses":"{\"pregunta23\":\"d) el jardinero estará muerto al día siguiente.\"}","question_order":"[0]","trial_type":"survey-multi-choice","trial_index":47,"time_elapsed":1403358,"internal_node_id":"0.0-5.0-42.0"},{"rt":1296,"response":{"pregunta23 likert":2},"question_order":[0],"trial_type":"survey-likert","trial_index":48,"time_elapsed":1404659,"internal_node_id":"0.0-5.0-43.0"},{"rt":40715.09999999404,"responses":"{\"pregunta8\":\"c) El ser humano se comporta de acuerdo con las circunstancias.\"}","question_order":"[0]","trial_type":"survey-multi-choice","trial_index":49,"time_elapsed":1445379,"internal_node_id":"0.0-5.0-44.0"},{"rt":1543.0999999940395,"response":{"pregunta8 likert":2},"question_order":[0],"trial_type":"survey-likert","trial_index":50,"time_elapsed":1446926,"internal_node_id":"0.0-5.0-45.0"},{"rt":87784.80000001192,"responses":"{\"pregunta12\":\"b) Atraer a los turistas.\"}","question_order":"[0]","trial_type":"survey-multi-choice","trial_index":51,"time_elapsed":1534716,"internal_node_id":"0.0-5.0-46.0"},{"rt":1857,"response":{"pregunta12 likert":2},"question_order":[0],"trial_type":"survey-likert","trial_index":52,"time_elapsed":1536578,"internal_node_id":"0.0-5.0-47.0"},{"rt":2142.199999988079,"stimulus":"<p style=\"font-size: 120%\">Gracias por completar esta etapa del estudio. Ahora te invitamos a responder el cuestionario.<br><br></p>","response":0,"trial_type":"html-button-response","trial_index":53,"time_elapsed":1538728,"internal_node_id":"0.0-6.0"},{"rt":19585.09999999404,"stimulus":"<h1 style=\"margin-top: 5%\">Cuestionario para la Evaluación de Metas Académicas</h1><p style=\"font-size: 120%; margin-left: 3%; margin-top: 5%\">Este es un cuestionario que permite conocer cuáles son los principales motivos por los que los estudiantes se esfuerzan en su trabajo académico. A continuación, se te presentarán una serie de afirmaciones acerca de los motivos que puedes tener para estudiar.<br>Te pedimos que contestes a dichas afirmaciones reflexionando sobre el contenido de cada una de ellas, que, aunque te parezcan semejantes, en realidad, no lo son.<br>NO HAY RESPUESTAS CORRECTAS o INCORRECTAS, sólo queremos que respondas con la mayor precisión y sinceridad posible a las preguntas que se plantean.","response":0,"trial_type":"html-button-response","trial_index":54,"time_elapsed":1558314,"internal_node_id":"0.0-7.0"},{"rt":96795.40000000596,"response":{"Metas cuestionario pregunta1":3,"Metas cuestionario pregunta2":3,"Metas cuestionario pregunta3":3,"Metas cuestionario pregunta4":2,"Metas cuestionario pregunta5":3,"Metas cuestionario pregunta6":3,"Metas cuestionario pregunta7":3,"Metas cuestionario pregunta8":3,"Metas cuestionario pregunta9":1,"Metas cuestionario pregunta10":1,"Metas cuestionario pregunta11":1,"Metas cuestionario pregunta12":1,"Metas cuestionario pregunta13":1,"Metas cuestionario pregunta14":1,"Metas cuestionario pregunta15":2,"Metas cuestionario pregunta16":2,"Metas cuestionario pregunta17":2,"Metas cuestionario pregunta18":3,"Metas cuestionario pregunta19":3,"Metas cuestionario pregunta20":2},"question_order":[0,1,2,3,4,5,6,7,8,9,10,11,12,13,14,15,16,17,18,19],"trial_type":"survey-likert","trial_index":55,"time_elapsed":1655116,"internal_node_id":"0.0-8.0"}]