[{"rt":1977.7000000476837,"stimulus":"<h1 style=\"color:red; margin-top: 3%;\">¡Bienvenido(a)!</h1><p style=\"text-align:left; justify-content:space-between; margin-right: 5%; margin-left: 5%; margin-top: 5%\"> Antes de empezar el estudio, necesitamos que nos confirmes que estás de acuerdo con participar. Recuerda que tu participación es 100% voluntaria y que lo único que te pedimos es responder lo mejor que puedas. Recuerda también que el estudio incluye:</p><ol style=\"text-align:left; justify-content:space-between; margin-right: 5%; margin-left: 5%;\"><li> un ejercicio de resolución de preguntas de selección múltiple (30’),</li><li>un cuestionario breve (5’),</li><li>un juego muy breve (3’),</li></ol><p style=\"text-align:left; justify-content:space-between; margin-right: 5%; margin-left: 5%;\">Si quieres participar, haz clic en “Acepto” luego de leer lo siguiente:<br></p><p style=\"text-align:left; justify-content:space-between; margin-right: 5%; margin-left: 5%;\">Acepto participar en el estudio “Estrategias de lectura y resolución de preguntas de selección múltiple”, en los términos aquí señalados:<br></p><p style=\"text-align:left; justify-content:space-between; margin-right: 5%; margin-left: 5%;\"><a href=\"http://ciae.uchile.cl/download.php?file=noticias/Asentimiento.pdf\" target=\"_blank\">Link a la hoja de información del Consentimiento.</a></p><p style=\"text-align:left; justify-content:space-between; margin-right: 5%; margin-left: 5%;\">Declaro que he leído (o se me ha leído) y (he) comprendido, las condiciones de mi participación en este estudio. He tenido la oportunidad de hacer preguntas y éstas han sido respondidas. No tengo dudas al respecto.</p>","response":0,"condicion_MCQ":2,"condicion_JUEGO":2,"condicion_INTER":2,"numero_participante":50,"numero_version":2,"dimx":393,"dimy":851,"color_profundidad":24,"pixel_profundidad":24,"Browser":"Google Chrome","dia":7,"mes":5,"hora":14,"minuto":14,"segundo":9,"trial_type":"html-button-response","trial_index":0,"time_elapsed":1988,"internal_node_id":"0.0-0.0"},{"success":true,"trial_type":"fullscreen","trial_index":1,"time_elapsed":4093,"internal_node_id":"0.0-1.0"},{"rt":46212.699999928474,"responses":"{\"Nombres\":\"Giovanna Stephania\",\"Apellidos\":\"Guessi Cáceres\",\"Edad\":\"19\",\"Sexo\":\"Mujer \",\"Curso\":\"Sección 204\",\"Colegio\":\"Universidad Andrés Bello\",\"Contacto\":\"stephyromanc@gmail.com\"}","trial_type":"survey-text","trial_index":2,"time_elapsed":50325,"internal_node_id":"0.0-2.0"},{"success":true,"timeout":false,"failed_images":[],"failed_audio":[],"failed_video":[],"trial_type":"preload","trial_index":3,"time_elapsed":52626,"internal_node_id":"0.0-3.0"},{"rt":10138.399999976158,"stimulus":"<h1 style:\"margin-top: 5%;\">Ejercicios de Comprensión de Lectura de la Universidad de Chile</h1><p style=\"font-size: 120%;\">En esta actividad, debes responder 24 preguntas de selección múltiple. Cada pregunta presenta 4 respuestas alternativas, pero sólo una de ellas es correcta. Por lo tanto, debes escoger una sola alternativa para cada pregunta. Además, debes reportar qué tan seguro(a) estás de la respuesta que das, con un:</p><ol style=\"font-size: 120%;text-align:left;margin-left: 40%;\"><li>No estoy seguro(a) para nada</li><li>No estoy muy seguro(a)</li><li>Estoy bastante seguro(a)</li><li>Estoy totalmente seguro(a)</li></ol><p style=\"font-size: 120%;\">Por favor lee bien los enunciados antes de responder. ¡Éxito!</p>","response":0,"trial_type":"html-button-response","trial_index":4,"time_elapsed":62768,"internal_node_id":"0.0-4.0"},{"rt":25921.5,"responses":"{\"pregunta3\":\"a) El inicio de la dinastía Chang.\"}","question_order":"[0]","trial_type":"survey-multi-choice","trial_index":5,"time_elapsed":88695,"internal_node_id":"0.0-5.0-0.0"},{"rt":4041.5,"response":{"pregunta3 likert":2},"question_order":[0],"trial_type":"survey-likert","trial_index":6,"time_elapsed":92740,"internal_node_id":"0.0-5.0-1.0"},{"rt":42336.799999952316,"responses":"{\"pregunta8\":\"d) El concepto de normalidad es diferente para un psiquiatra que para nosotros.\"}","question_order":"[0]","trial_type":"survey-multi-choice","trial_index":7,"time_elapsed":135080,"internal_node_id":"0.0-5.0-2.0"},{"rt":1019.5,"response":{"pregunta8 likert":2},"question_order":[0],"trial_type":"survey-likert","trial_index":8,"time_elapsed":136103,"internal_node_id":"0.0-5.0-3.0"},{"rt":48029,"responses":"{\"pregunta15\":\"a) la creación de elementos químicos artificiales ha resultado de la manipulación del uranio.\"}","question_order":"[0]","trial_type":"survey-multi-choice","trial_index":9,"time_elapsed":184137,"internal_node_id":"0.0-5.0-4.0"},{"rt":3311.3000000715256,"response":{"pregunta15 likert":2},"question_order":[0],"trial_type":"survey-likert","trial_index":10,"time_elapsed":187454,"internal_node_id":"0.0-5.0-5.0"},{"rt":59555.10000002384,"responses":"{\"pregunta5\":\"b) Los momentos triviales de los viajes, en la escritura se vuelven significativos.\"}","question_order":"[0]","trial_type":"survey-multi-choice","trial_index":11,"time_elapsed":247017,"internal_node_id":"0.0-5.0-6.0"},{"rt":3272.5,"response":{"pregunta5 likert":2},"question_order":[0],"trial_type":"survey-likert","trial_index":12,"time_elapsed":250293,"internal_node_id":"0.0-5.0-7.0"},{"rt":23004.799999952316,"responses":"{\"pregunta13\":\"b) A la conveniencia de no postergar el descanso personal.\"}","question_order":"[0]","trial_type":"survey-multi-choice","trial_index":13,"time_elapsed":273301,"internal_node_id":"0.0-5.0-8.0"},{"rt":1183.3000000715256,"response":{"pregunta13 likert":2},"question_order":[0],"trial_type":"survey-likert","trial_index":14,"time_elapsed":274488,"internal_node_id":"0.0-5.0-9.0"},{"rt":29216.199999928474,"responses":"{\"pregunta9\":\"d) preparar los recuerdos del mañana.\"}","question_order":"[0]","trial_type":"survey-multi-choice","trial_index":15,"time_elapsed":303707,"internal_node_id":"0.0-5.0-10.0"},{"rt":1782.6000000238419,"response":{"pregunta9 likert":2},"question_order":[0],"trial_type":"survey-likert","trial_index":16,"time_elapsed":305492,"internal_node_id":"0.0-5.0-11.0"},{"rt":27659.699999928474,"responses":"{\"pregunta1\":\"a) Aportan informaciones con las que se reconstruye el personaje dentro de un relato.\"}","question_order":"[0]","trial_type":"survey-multi-choice","trial_index":17,"time_elapsed":333154,"internal_node_id":"0.0-5.0-12.0"},{"rt":2041.3000000715256,"response":{"pregunta1 likert":2},"question_order":[0],"trial_type":"survey-likert","trial_index":18,"time_elapsed":335198,"internal_node_id":"0.0-5.0-13.0"},{"rt":18678.700000047684,"responses":"{\"pregunta24\":\"a) para el mexicano, la muerte es cotidiana.\"}","question_order":"[0]","trial_type":"survey-multi-choice","trial_index":19,"time_elapsed":353880,"internal_node_id":"0.0-5.0-14.0"},{"rt":2416.1999999284744,"response":{"pregunta24 likert":2},"question_order":[0],"trial_type":"survey-likert","trial_index":20,"time_elapsed":356299,"internal_node_id":"0.0-5.0-15.0"},{"rt":14392.299999952316,"responses":"{\"pregunta14\":\"b) el Primer Ministro debía morir por ambicioso.\"}","question_order":"[0]","trial_type":"survey-multi-choice","trial_index":21,"time_elapsed":370694,"internal_node_id":"0.0-5.0-16.0"},{"rt":1127.5,"response":{"pregunta14 likert":1},"question_order":[0],"trial_type":"survey-likert","trial_index":22,"time_elapsed":371826,"internal_node_id":"0.0-5.0-17.0"},{"rt":16077.600000023842,"responses":"{\"pregunta2\":\"b) A la relación entre civilización y sociedad.\"}","question_order":"[0]","trial_type":"survey-multi-choice","trial_index":23,"time_elapsed":387907,"internal_node_id":"0.0-5.0-18.0"},{"rt":963.1000000238419,"response":{"pregunta2 likert":2},"question_order":[0],"trial_type":"survey-likert","trial_index":24,"time_elapsed":388874,"internal_node_id":"0.0-5.0-19.0"},{"rt":37297.39999997616,"responses":"{\"pregunta10\":\"b) religiosos y precavidos.\"}","question_order":"[0]","trial_type":"survey-multi-choice","trial_index":25,"time_elapsed":426175,"internal_node_id":"0.0-5.0-20.0"},{"rt":1164.7999999523163,"response":{"pregunta10 likert":2},"question_order":[0],"trial_type":"survey-likert","trial_index":26,"time_elapsed":427343,"internal_node_id":"0.0-5.0-21.0"},{"rt":11566.799999952316,"responses":"{\"pregunta12\":\"a) Homenajear a quienes murieron.\"}","question_order":"[0]","trial_type":"survey-multi-choice","trial_index":27,"time_elapsed":438913,"internal_node_id":"0.0-5.0-22.0"},{"rt":1170.5,"response":{"pregunta12 likert":2},"question_order":[0],"trial_type":"survey-likert","trial_index":28,"time_elapsed":440085,"internal_node_id":"0.0-5.0-23.0"},{"rt":26485.600000023842,"responses":"{\"pregunta6\":\"d) Orientar la opción estética de un grupo de personas en lo que se refiere a la decoración de interiores.\"}","question_order":"[0]","trial_type":"survey-multi-choice","trial_index":29,"time_elapsed":466573,"internal_node_id":"0.0-5.0-24.0"},{"rt":1717,"response":{"pregunta6 likert":1},"question_order":[0],"trial_type":"survey-likert","trial_index":30,"time_elapsed":468295,"internal_node_id":"0.0-5.0-25.0"},{"rt":18184,"responses":"{\"pregunta18\":\"b) La publicidad ejerce una influencia positiva sobre la sociedad.\"}","question_order":"[0]","trial_type":"survey-multi-choice","trial_index":31,"time_elapsed":486487,"internal_node_id":"0.0-5.0-26.0"},{"rt":1540.3000000715256,"response":{"pregunta18 likert":2},"question_order":[0],"trial_type":"survey-likert","trial_index":32,"time_elapsed":488030,"internal_node_id":"0.0-5.0-27.0"},{"rt":9940.5,"responses":"{\"pregunta11\":\"c) Deleitar a sus receptores por medio de la belleza y el confort\"}","question_order":"[0]","trial_type":"survey-multi-choice","trial_index":33,"time_elapsed":497975,"internal_node_id":"0.0-5.0-28.0"},{"rt":900.2000000476837,"response":{"pregunta11 likert":2},"question_order":[0],"trial_type":"survey-likert","trial_index":34,"time_elapsed":498880,"internal_node_id":"0.0-5.0-29.0"},{"rt":13499.100000023842,"responses":"{\"pregunta4\":\"d) Las personas importantes comparten el gusto por la literatura.\"}","question_order":"[0]","trial_type":"survey-multi-choice","trial_index":35,"time_elapsed":512382,"internal_node_id":"0.0-5.0-30.0"},{"rt":1217.1999999284744,"response":{"pregunta4 likert":1},"question_order":[0],"trial_type":"survey-likert","trial_index":36,"time_elapsed":513602,"internal_node_id":"0.0-5.0-31.0"},{"rt":34921.300000071526,"responses":"{\"pregunta16\":\"c) Por el riesgo que corren diariamente, los bomberos deberían tener mejores condiciones de seguridad.\"}","question_order":"[0]","trial_type":"survey-multi-choice","trial_index":37,"time_elapsed":548527,"internal_node_id":"0.0-5.0-32.0"},{"rt":1024.3999999761581,"response":{"pregunta16 likert":2},"question_order":[0],"trial_type":"survey-likert","trial_index":38,"time_elapsed":549556,"internal_node_id":"0.0-5.0-33.0"},{"rt":29348.899999976158,"responses":"{\"pregunta21\":\"c) Será difícil que las empresas nacionales compitan con las estadounidenses.\"}","question_order":"[0]","trial_type":"survey-multi-choice","trial_index":39,"time_elapsed":578909,"internal_node_id":"0.0-5.0-34.0"},{"rt":1132.5,"response":{"pregunta21 likert":2},"question_order":[0],"trial_type":"survey-likert","trial_index":40,"time_elapsed":580046,"internal_node_id":"0.0-5.0-35.0"},{"rt":7639.100000023842,"responses":"{\"pregunta7\":\"a) es un concepto introducido en la cultura por Platón.\"}","question_order":"[0]","trial_type":"survey-multi-choice","trial_index":41,"time_elapsed":587690,"internal_node_id":"0.0-5.0-36.0"},{"rt":1058.6999999284744,"response":{"pregunta7 likert":1},"question_order":[0],"trial_type":"survey-likert","trial_index":42,"time_elapsed":588752,"internal_node_id":"0.0-5.0-37.0"},{"rt":21448.899999976158,"responses":"{\"pregunta23\":\"c) la Muerte vaticina el futuro mediante gestos.\"}","question_order":"[0]","trial_type":"survey-multi-choice","trial_index":43,"time_elapsed":610205,"internal_node_id":"0.0-5.0-38.0"},{"rt":1632,"response":{"pregunta23 likert":2},"question_order":[0],"trial_type":"survey-likert","trial_index":44,"time_elapsed":611844,"internal_node_id":"0.0-5.0-39.0"},{"rt":6880.899999976158,"responses":"{\"pregunta22\":\"c) La prensa tiene derecho a meter sus narices en todos lados.\"}","question_order":"[0]","trial_type":"survey-multi-choice","trial_index":45,"time_elapsed":618729,"internal_node_id":"0.0-5.0-40.0"},{"rt":1433.2999999523163,"response":{"pregunta22 likert":2},"question_order":[0],"trial_type":"survey-likert","trial_index":46,"time_elapsed":620166,"internal_node_id":"0.0-5.0-41.0"},{"rt":8866.5,"responses":"{\"pregunta20\":\"c) para Aristóteles la virtud estaba en el justo equilibrio.\"}","question_order":"[0]","trial_type":"survey-multi-choice","trial_index":47,"time_elapsed":629036,"internal_node_id":"0.0-5.0-42.0"},{"rt":1548.3999999761581,"response":{"pregunta20 likert":1},"question_order":[0],"trial_type":"survey-likert","trial_index":48,"time_elapsed":630587,"internal_node_id":"0.0-5.0-43.0"},{"rt":6760.899999976158,"responses":"{\"pregunta17\":\"c) Al orden de la productora para no turistear por el país.\"}","question_order":"[0]","trial_type":"survey-multi-choice","trial_index":49,"time_elapsed":637351,"internal_node_id":"0.0-5.0-44.0"},{"rt":1307.5,"response":{"pregunta17 likert":1},"question_order":[0],"trial_type":"survey-likert","trial_index":50,"time_elapsed":638661,"internal_node_id":"0.0-5.0-45.0"},{"rt":20662.300000071526,"responses":"{\"pregunta19\":\"b) llevan un control grupal de su embarazo.\"}","question_order":"[0]","trial_type":"survey-multi-choice","trial_index":51,"time_elapsed":659326,"internal_node_id":"0.0-5.0-46.0"},{"rt":1151.8999999761581,"response":{"pregunta19 likert":1},"question_order":[0],"trial_type":"survey-likert","trial_index":52,"time_elapsed":660481,"internal_node_id":"0.0-5.0-47.0"},{"rt":2888.7999999523163,"stimulus":"<p style=\"font-size: 120%\">Gracias por completar esta etapa del estudio. Ahora te invitamos a responder el cuestionario.<br><br></p>","response":0,"trial_type":"html-button-response","trial_index":53,"time_elapsed":663381,"internal_node_id":"0.0-6.0"},{"rt":11456.199999928474,"stimulus":"<h1 style=\"margin-top: 5%\">Cuestionario para la Evaluación de Metas Académicas</h1><p style=\"font-size: 120%; margin-left: 3%; margin-top: 5%\">Este es un cuestionario que permite conocer cuáles son los principales motivos por los que los estudiantes se esfuerzan en su trabajo académico. A continuación, se te presentarán una serie de afirmaciones acerca de los motivos que puedes tener para estudiar.<br>Te pedimos que contestes a dichas afirmaciones reflexionando sobre el contenido de cada una de ellas, que, aunque te parezcan semejantes, en realidad, no lo son.<br>NO HAY RESPUESTAS CORRECTAS o INCORRECTAS, sólo queremos que respondas con la mayor precisión y sinceridad posible a las preguntas que se plantean.","response":0,"trial_type":"html-button-response","trial_index":54,"time_elapsed":674839,"internal_node_id":"0.0-7.0"},{"rt":88807.60000002384,"response":{"Metas cuestionario pregunta1":3,"Metas cuestionario pregunta2":4,"Metas cuestionario pregunta3":3,"Metas cuestionario pregunta4":2,"Metas cuestionario pregunta5":4,"Metas cuestionario pregunta6":3,"Metas cuestionario pregunta7":2,"Metas cuestionario pregunta8":3,"Metas cuestionario pregunta9":1,"Metas cuestionario pregunta10":1,"Metas cuestionario pregunta11":1,"Metas cuestionario pregunta12":3,"Metas cuestionario pregunta13":2,"Metas cuestionario pregunta14":2,"Metas cuestionario pregunta15":4,"Metas cuestionario pregunta16":4,"Metas cuestionario pregunta17":4,"Metas cuestionario pregunta18":4,"Metas cuestionario pregunta19":4,"Metas cuestionario pregunta20":3},"question_order":[0,1,2,3,4,5,6,7,8,9,10,11,12,13,14,15,16,17,18,19],"trial_type":"survey-likert","trial_index":55,"time_elapsed":763679,"internal_node_id":"0.0-8.0"},{"rt":20151.300000071526,"stimulus":"<p style=\"font-size: 120%\">Gracias por responder el cuestionario. Ahora te invitamos a seguir con el juego, que es muy breve.<br><br></p>","response":0,"trial_type":"html-button-response","trial_index":56,"time_elapsed":783838,"internal_node_id":"0.0-9.0"},{"rt":6285.199999928474,"stimulus":"<h1>Juego</h1><p style=\"font-size: 120%;\">A continuación se te presentarán 16 pequeñas historias.<br>Por favor lee el texto presentado en cada una de ellas y luego haz click en el objeto de tu elección.<br>Si estás listo(a),<span style=\"color:red;\"> haz click en \"comenzar\"</span>.</p>","response":0,"trial_type":"html-button-response","trial_index":57,"time_elapsed":790125,"internal_node_id":"0.0-10.0"},{"rt":8990.599999904633,"grid":[[1,1,1],[1,1,1],[1,1,1],[1,1,1],[1,1,1],[1,1,1],[1,1,1],[1,1,1],[1,1,1]],"target":[0,0],"response":[1,2],"correct":false,"juego":10,"trial_type":"serial-reaction-time-mouse","trial_index":58,"time_elapsed":799122,"internal_node_id":"0.0-11.0-0.0"},{"rt":12427.399999976158,"grid":[[1,1,1,1],[1,1,1,1],[1,1,1,1],[1,1,1,1],[1,1,1,1],[1,1,1,1],[1,1,1,1],[1,1,1,1],[1,1,1,1]],"target":[0,0],"response":[5,2],"correct":false,"juego":15,"trial_type":"serial-reaction-time-mouse","trial_index":59,"time_elapsed":811565,"internal_node_id":"0.0-11.0-1.0"},{"rt":11515.100000023842,"grid":[[1,1,1],[1,1,1],[1,1,1],[1,1,1],[1,1,1],[1,1,1],[1,1,1],[1,1,1],[1,1,1]],"target":[0,0],"response":[3,1],"correct":false,"juego":5,"trial_type":"serial-reaction-time-mouse","trial_index":60,"time_elapsed":823083,"internal_node_id":"0.0-11.0-2.0"},{"rt":12196.600000023842,"grid":[[1,1,1,1]],"target":[0,0],"response":[0,3],"correct":false,"juego":8,"trial_type":"serial-reaction-time-mouse","trial_index":61,"time_elapsed":835282,"internal_node_id":"0.0-11.0-3.0"},{"rt":7755.799999952316,"grid":[[1,1,1,1]],"target":[0,0],"response":[0,1],"correct":false,"juego":7,"trial_type":"serial-reaction-time-mouse","trial_index":62,"time_elapsed":843040,"internal_node_id":"0.0-11.0-4.0"},{"rt":12199.899999976158,"grid":[[1,1,1,1]],"target":[0,0],"response":[0,0],"correct":true,"juego":12,"trial_type":"serial-reaction-time-mouse","trial_index":63,"time_elapsed":855243,"internal_node_id":"0.0-11.0-5.0"},{"rt":5953.800000071526,"grid":[[1,1,1],[1,1,1],[1,1,1],[1,1,1],[1,1,1],[1,1,1],[1,1,1],[1,1,1],[1,1,1]],"target":[0,0],"response":[7,1],"correct":false,"juego":6,"trial_type":"serial-reaction-time-mouse","trial_index":64,"time_elapsed":861202,"internal_node_id":"0.0-11.0-6.0"},{"rt":10030,"grid":[[1,1,1,1],[1,1,1,1],[1,1,1,1],[1,1,1,1],[1,1,1,1],[1,1,1,1],[1,1,1,1],[1,1,1,1],[1,1,1,1]],"target":[0,0],"response":[3,2],"correct":false,"juego":14,"trial_type":"serial-reaction-time-mouse","trial_index":65,"time_elapsed":871236,"internal_node_id":"0.0-11.0-7.0"},{"rt":13432.600000023842,"grid":[[1,1,1,1]],"target":[0,0],"response":[0,3],"correct":false,"juego":3,"trial_type":"serial-reaction-time-mouse","trial_index":66,"time_elapsed":884671,"internal_node_id":"0.0-11.0-8.0"},{"rt":3248.5999999046326,"grid":[[1],[1],[1],[1]],"target":[0,0],"response":[1,0],"correct":false,"juego":4,"trial_type":"serial-reaction-time-mouse","trial_index":67,"time_elapsed":887923,"internal_node_id":"0.0-11.0-9.0"},{"rt":11522.699999928474,"grid":[[1,1,1,1]],"target":[0,0],"response":[0,1],"correct":false,"juego":9,"trial_type":"serial-reaction-time-mouse","trial_index":68,"time_elapsed":899449,"internal_node_id":"0.0-11.0-10.0"},{"rt":4178,"grid":[[1,1,1,1]],"target":[0,0],"response":[0,1],"correct":false,"juego":1,"trial_type":"serial-reaction-time-mouse","trial_index":69,"time_elapsed":903629,"internal_node_id":"0.0-11.0-11.0"},{"rt":9382,"grid":[[1,1,1,1]],"target":[0,0],"response":[0,0],"correct":true,"juego":2,"trial_type":"serial-reaction-time-mouse","trial_index":70,"time_elapsed":913018,"internal_node_id":"0.0-11.0-12.0"},{"rt":10112.099999904633,"grid":[[1,1,1,1]],"target":[0,0],"response":[0,1],"correct":false,"juego":11,"trial_type":"serial-reaction-time-mouse","trial_index":71,"time_elapsed":923133,"internal_node_id":"0.0-11.0-13.0"},{"rt":10359.399999976158,"grid":[[1,1,1],[1,1,1],[1,1,1],[1,1,1],[1,1,1],[1,1,1],[1,1,1],[1,1,1],[1,1,1]],"target":[0,0],"response":[5,1],"correct":false,"juego":13,"trial_type":"serial-reaction-time-mouse","trial_index":72,"time_elapsed":933498,"internal_node_id":"0.0-11.0-14.0"},{"rt":5409.899999976158,"stimulus":"<h1>Último juego</h1><p style=\"font-size: 130%;\">Tienes <span style=\"color:red\">25</span> segundos para recordar los pares de palabras que aparecerán a continuación. <br></p>","response":0,"trial_type":"html-button-response","trial_index":73,"time_elapsed":938912,"internal_node_id":"0.0-12.0"},{"animation_sequence":[{"stimulus":"imagen_juego_interferencia.jpg","time":543.8999999761581},{"stimulus":"imagen_juego_interferencia.jpg","time":1004.2000000476837},{"stimulus":"imagen_juego_interferencia.jpg","time":1504.3999999761581},{"stimulus":"imagen_juego_interferencia.jpg","time":2004.1000000238419},{"stimulus":"imagen_juego_interferencia.jpg","time":2504.7000000476837},{"stimulus":"imagen_juego_interferencia.jpg","time":3004.399999976158},{"stimulus":"imagen_juego_interferencia.jpg","time":3504.600000023842},{"stimulus":"imagen_juego_interferencia.jpg","time":4004.5},{"stimulus":"imagen_juego_interferencia.jpg","time":4504.399999976158},{"stimulus":"imagen_juego_interferencia.jpg","time":5004.100000023842},{"stimulus":"imagen_juego_interferencia.jpg","time":5504},{"stimulus":"imagen_juego_interferencia.jpg","time":6003.5},{"stimulus":"imagen_juego_interferencia.jpg","time":6504.5},{"stimulus":"imagen_juego_interferencia.jpg","time":7004.399999976158},{"stimulus":"imagen_juego_interferencia.jpg","time":7504},{"stimulus":"imagen_juego_interferencia.jpg","time":8004.200000047684},{"stimulus":"imagen_juego_interferencia.jpg","time":8504.5},{"stimulus":"imagen_juego_interferencia.jpg","time":9004.299999952316},{"stimulus":"imagen_juego_interferencia.jpg","time":9503.299999952316},{"stimulus":"imagen_juego_interferencia.jpg","time":10004.299999952316},{"stimulus":"imagen_juego_interferencia.jpg","time":10504.399999976158},{"stimulus":"imagen_juego_interferencia.jpg","time":11004.200000047684},{"stimulus":"imagen_juego_interferencia.jpg","time":11504.399999976158},{"stimulus":"imagen_juego_interferencia.jpg","time":12004.5},{"stimulus":"imagen_juego_interferencia.jpg","time":12504.600000023842},{"stimulus":"imagen_juego_interferencia.jpg","time":13004.700000047684},{"stimulus":"imagen_juego_interferencia.jpg","time":13504.5},{"stimulus":"imagen_juego_interferencia.jpg","time":14004.399999976158},{"stimulus":"imagen_juego_interferencia.jpg","time":14504.299999952316},{"stimulus":"imagen_juego_interferencia.jpg","time":15003.5},{"stimulus":"imagen_juego_interferencia.jpg","time":15504.700000047684},{"stimulus":"imagen_juego_interferencia.jpg","time":16004.299999952316},{"stimulus":"imagen_juego_interferencia.jpg","time":16503.600000023842},{"stimulus":"imagen_juego_interferencia.jpg","time":17003.700000047684},{"stimulus":"imagen_juego_interferencia.jpg","time":17504.5},{"stimulus":"imagen_juego_interferencia.jpg","time":18004.100000023842},{"stimulus":"imagen_juego_interferencia.jpg","time":18504.100000023842},{"stimulus":"imagen_juego_interferencia.jpg","time":19004.399999976158},{"stimulus":"imagen_juego_interferencia.jpg","time":19504},{"stimulus":"imagen_juego_interferencia.jpg","time":20004.700000047684},{"stimulus":"imagen_juego_interferencia.jpg","time":20504.299999952316},{"stimulus":"imagen_juego_interferencia.jpg","time":21003.700000047684},{"stimulus":"imagen_juego_interferencia.jpg","time":21504.200000047684},{"stimulus":"imagen_juego_interferencia.jpg","time":22003.600000023842},{"stimulus":"imagen_juego_interferencia.jpg","time":22504.600000023842},{"stimulus":"imagen_juego_interferencia.jpg","time":23004},{"stimulus":"imagen_juego_interferencia.jpg","time":23504.299999952316},{"stimulus":"imagen_juego_interferencia.jpg","time":24004.399999976158},{"stimulus":"imagen_juego_interferencia.jpg","time":24504.299999952316},{"stimulus":"imagen_juego_interferencia.jpg","time":25004.399999976158}],"response":[],"trial_type":"animation","trial_index":74,"time_elapsed":964421,"internal_node_id":"0.0-13.0"},{"rt":8602.5,"responses":"{\"pregunta interferencia2\":\"cucaracha\"}","question_order":"[0]","trial_type":"survey-multi-choice-cuest","trial_index":75,"time_elapsed":973032,"internal_node_id":"0.0-14.0-0.0"},{"rt":6691.899999976158,"responses":"{\"pregunta interferencia3\":\"plata\"}","question_order":"[0]","trial_type":"survey-multi-choice-cuest","trial_index":76,"time_elapsed":979728,"internal_node_id":"0.0-14.0-1.0"},{"rt":4583.700000047684,"responses":"{\"pregunta interferencia4\":\"dentista\"}","question_order":"[0]","trial_type":"survey-multi-choice-cuest","trial_index":77,"time_elapsed":984316,"internal_node_id":"0.0-14.0-2.0"},{"rt":3481.5,"responses":"{\"pregunta interferencia1\":\"naranja\"}","question_order":"[0]","trial_type":"survey-multi-choice-cuest","trial_index":78,"time_elapsed":987801,"internal_node_id":"0.0-14.0-3.0"},{"success":true,"trial_type":"fullscreen","trial_index":79,"time_elapsed":988804,"internal_node_id":"0.0-15.0"}]