[{"rt":4177.499999990687,"stimulus":"<h1 style=\"color:red; margin-top: 3%;\">¡Bienvenido(a)!</h1><p style=\"text-align:left; justify-content:space-between; margin-right: 5%; margin-left: 5%; margin-top: 5%\"> Antes de empezar el estudio, necesitamos que nos confirmes que estás de acuerdo con participar. Recuerda que tu participación es 100% voluntaria y que lo único que te pedimos es responder lo mejor que puedas. Recuerda también que el estudio incluye:</p><ol style=\"text-align:left; justify-content:space-between; margin-right: 5%; margin-left: 5%;\"><li> un ejercicio de resolución de preguntas de selección múltiple (30’),</li><li>un cuestionario breve (5’),</li><li>un juego muy breve (3’),</li></ol><p style=\"text-align:left; justify-content:space-between; margin-right: 5%; margin-left: 5%;\">Si quieres participar, haz clic en “Acepto” luego de leer lo siguiente:<br></p><p style=\"text-align:left; justify-content:space-between; margin-right: 5%; margin-left: 5%;\">Acepto participar en el estudio “Estrategias de lectura y resolución de preguntas de selección múltiple”, en los términos aquí señalados:<br></p><p style=\"text-align:left; justify-content:space-between; margin-right: 5%; margin-left: 5%;\"><a href=\"http://ciae.uchile.cl/download.php?file=noticias/Asentimiento.pdf\" target=\"_blank\">Link a la hoja de información del Consentimiento.</a></p><p style=\"text-align:left; justify-content:space-between; margin-right: 5%; margin-left: 5%;\">Declaro que he leído (o se me ha leído) y (he) comprendido, las condiciones de mi participación en este estudio. He tenido la oportunidad de hacer preguntas y éstas han sido respondidas. No tengo dudas al respecto.</p>","response":0,"condicion_MCQ":3,"condicion_JUEGO":3,"condicion_INTER":3,"numero_participante":27,"numero_version":1,"dimx":393,"dimy":851,"color_profundidad":24,"pixel_profundidad":24,"Browser":"Google Chrome","dia":3,"mes":5,"hora":11,"minuto":44,"segundo":46,"trial_type":"html-button-response","trial_index":0,"time_elapsed":4192,"internal_node_id":"0.0-0.0"},{"success":true,"trial_type":"fullscreen","trial_index":1,"time_elapsed":7891,"internal_node_id":"0.0-1.0"},{"rt":49891.00000000326,"responses":"{\"Nombres\":\"Jeremías Antonio\",\"Apellidos\":\"Soto Sáez\",\"Edad\":\"19\",\"Sexo\":\"Hombre\",\"Curso\":\"Sección 218 primer año\",\"Colegio\":\"Universidad Andrés Bello\",\"Contacto\":\"Jeresoto2012@gmail.com\"}","trial_type":"survey-text","trial_index":2,"time_elapsed":57842,"internal_node_id":"0.0-2.0"},{"success":true,"timeout":false,"failed_images":[],"failed_audio":[],"failed_video":[],"trial_type":"preload","trial_index":3,"time_elapsed":58989,"internal_node_id":"0.0-3.0"},{"rt":3080.3999999770895,"stimulus":"<h1 style:\"margin-top: 5%;\">Ejercicios de Comprensión de Lectura de la Universidad de Chile</h1><p style=\"font-size: 120%;\">En esta actividad, debes responder 24 preguntas de selección múltiple. Cada pregunta presenta 4 respuestas alternativas, pero sólo una de ellas es correcta. Por lo tanto, debes escoger una sola alternativa para cada pregunta. Además, debes reportar qué tan seguro(a) estás de la respuesta que das, con un:</p><ol style=\"font-size: 120%;text-align:left;margin-left: 40%;\"><li>No estoy seguro(a) para nada</li><li>No estoy muy seguro(a)</li><li>Estoy bastante seguro(a)</li><li>Estoy totalmente seguro(a)</li></ol><p style=\"font-size: 120%;\">Por favor lee bien los enunciados antes de responder. ¡Éxito!</p>","response":0,"trial_type":"html-button-response","trial_index":4,"time_elapsed":62073,"internal_node_id":"0.0-4.0"},{"rt":26320.999999996275,"responses":"{\"pregunta21\":\"d) Nuestra economía vivirá un proceso de ajuste a la nueva realidad.\"}","question_order":"[0]","trial_type":"survey-multi-choice","trial_index":5,"time_elapsed":88402,"internal_node_id":"0.0-5.0-0.0"},{"rt":2897.3000000114553,"response":{"pregunta21 likert":2},"question_order":[0],"trial_type":"survey-likert","trial_index":6,"time_elapsed":91306,"internal_node_id":"0.0-5.0-1.0"},{"rt":33296.19999998249,"responses":"{\"pregunta16\":\"a) Se debe crear un seguro médico especial para esta institución, pues es de alto riesgo.\"}","question_order":"[0]","trial_type":"survey-multi-choice","trial_index":7,"time_elapsed":124607,"internal_node_id":"0.0-5.0-2.0"},{"rt":1160.7000000076368,"response":{"pregunta16 likert":2},"question_order":[0],"trial_type":"survey-likert","trial_index":8,"time_elapsed":125771,"internal_node_id":"0.0-5.0-3.0"},{"rt":103342.09999995073,"responses":"{\"pregunta19\":\"c) sufren dolores de espalda.\"}","question_order":"[0]","trial_type":"survey-multi-choice","trial_index":9,"time_elapsed":229118,"internal_node_id":"0.0-5.0-4.0"},{"rt":1115.4000000096858,"response":{"pregunta19 likert":2},"question_order":[0],"trial_type":"survey-likert","trial_index":10,"time_elapsed":230239,"internal_node_id":"0.0-5.0-5.0"},{"rt":101581.99999999488,"responses":"{\"pregunta14\":\"b) el mejor emperador es el que está muerto.\"}","question_order":"[0]","trial_type":"survey-multi-choice","trial_index":11,"time_elapsed":331826,"internal_node_id":"0.0-5.0-6.0"},{"rt":2260.7999999891035,"response":{"pregunta14 likert":2},"question_order":[0],"trial_type":"survey-likert","trial_index":12,"time_elapsed":334095,"internal_node_id":"0.0-5.0-7.0"},{"rt":94741.99999996927,"responses":"{\"pregunta20\":\"d) para Aristóteles la virtud estaba en el justo equilibrio.\"}","question_order":"[0]","trial_type":"survey-multi-choice","trial_index":13,"time_elapsed":428847,"internal_node_id":"0.0-5.0-8.0"},{"rt":1817.3999999999069,"response":{"pregunta20 likert":1},"question_order":[0],"trial_type":"survey-likert","trial_index":14,"time_elapsed":430674,"internal_node_id":"0.0-5.0-9.0"},{"rt":58614.39999996219,"responses":"{\"pregunta9\":\"d) preparar los recuerdos del mañana.\"}","question_order":"[0]","trial_type":"survey-multi-choice","trial_index":15,"time_elapsed":489293,"internal_node_id":"0.0-5.0-10.0"},{"rt":2369.1000000108033,"response":{"pregunta9 likert":2},"question_order":[0],"trial_type":"survey-likert","trial_index":16,"time_elapsed":491666,"internal_node_id":"0.0-5.0-11.0"},{"rt":60193.599999998696,"responses":"{\"pregunta1\":\"a) Aportan informaciones con las que se reconstruye el personaje dentro de un relato.\"}","question_order":"[0]","trial_type":"survey-multi-choice","trial_index":17,"time_elapsed":551864,"internal_node_id":"0.0-5.0-12.0"},{"rt":1516.5000000270084,"response":{"pregunta1 likert":2},"question_order":[0],"trial_type":"survey-likert","trial_index":18,"time_elapsed":553388,"internal_node_id":"0.0-5.0-13.0"},{"rt":64902.79999998165,"responses":"{\"pregunta22\":\"d) Se necesita un marco legal para delimitar lo público y lo privado en materia informativa.\"}","question_order":"[0]","trial_type":"survey-multi-choice","trial_index":19,"time_elapsed":618300,"internal_node_id":"0.0-5.0-14.0"},{"rt":1383.800000010524,"response":{"pregunta22 likert":2},"question_order":[0],"trial_type":"survey-likert","trial_index":20,"time_elapsed":619689,"internal_node_id":"0.0-5.0-15.0"},{"rt":51411.59999999218,"responses":"{\"pregunta17\":\"c) A la influencia de grupos que rechazaban su música.\"}","question_order":"[0]","trial_type":"survey-multi-choice","trial_index":21,"time_elapsed":671106,"internal_node_id":"0.0-5.0-16.0"},{"rt":1473.699999973178,"response":{"pregunta17 likert":2},"question_order":[0],"trial_type":"survey-likert","trial_index":22,"time_elapsed":672585,"internal_node_id":"0.0-5.0-17.0"},{"rt":128311.09999999171,"responses":"{\"pregunta10\":\"d) ritualistas y obsesivos.\"}","question_order":"[0]","trial_type":"survey-multi-choice","trial_index":23,"time_elapsed":800899,"internal_node_id":"0.0-5.0-18.0"},{"rt":1827.2999999462627,"response":{"pregunta10 likert":3},"question_order":[0],"trial_type":"survey-likert","trial_index":24,"time_elapsed":802732,"internal_node_id":"0.0-5.0-19.0"},{"rt":142549.20000000857,"responses":"{\"pregunta18\":\"b) La publicidad es dañina para sus receptores.\"}","question_order":"[0]","trial_type":"survey-multi-choice","trial_index":25,"time_elapsed":945288,"internal_node_id":"0.0-5.0-20.0"},{"rt":1205.0000000162981,"response":{"pregunta18 likert":2},"question_order":[0],"trial_type":"survey-likert","trial_index":26,"time_elapsed":946499,"internal_node_id":"0.0-5.0-21.0"},{"rt":100778.19999994244,"responses":"{\"pregunta6\":\"c) Promover la asistencia a un evento específico de decoración a través de una atractiva descripción.\"}","question_order":"[0]","trial_type":"survey-multi-choice","trial_index":27,"time_elapsed":1047285,"internal_node_id":"0.0-5.0-22.0"},{"rt":1033.6000000243075,"response":{"pregunta6 likert":2},"question_order":[0],"trial_type":"survey-likert","trial_index":28,"time_elapsed":1048324,"internal_node_id":"0.0-5.0-23.0"},{"rt":70690.59999997262,"responses":"{\"pregunta13\":\"d) A la inutilidad de tanto esfuerzo si el objetivo es el reposo.\"}","question_order":"[0]","trial_type":"survey-multi-choice","trial_index":29,"time_elapsed":1119024,"internal_node_id":"0.0-5.0-24.0"},{"rt":1652.4000000208616,"response":{"pregunta13 likert":2},"question_order":[0],"trial_type":"survey-likert","trial_index":30,"time_elapsed":1120683,"internal_node_id":"0.0-5.0-25.0"},{"rt":39013.90000001993,"responses":"{\"pregunta5\":\"c) Los momentos triviales de los viajes, en la escritura se vuelven significativos.\"}","question_order":"[0]","trial_type":"survey-multi-choice","trial_index":31,"time_elapsed":1159705,"internal_node_id":"0.0-5.0-26.0"},{"rt":1268.900000024587,"response":{"pregunta5 likert":2},"question_order":[0],"trial_type":"survey-likert","trial_index":32,"time_elapsed":1160995,"internal_node_id":"0.0-5.0-27.0"},{"rt":38227.70000004675,"responses":"{\"pregunta23\":\"b) la Muerte vaticina el futuro mediante gestos.\"}","question_order":"[0]","trial_type":"survey-multi-choice","trial_index":33,"time_elapsed":1199233,"internal_node_id":"0.0-5.0-28.0"},{"rt":2030.1999999792315,"response":{"pregunta23 likert":3},"question_order":[0],"trial_type":"survey-likert","trial_index":34,"time_elapsed":1201268,"internal_node_id":"0.0-5.0-29.0"},{"rt":40329.99999995809,"responses":"{\"pregunta2\":\"a) A la relación entre sociedad y constitución social.\"}","question_order":"[0]","trial_type":"survey-multi-choice","trial_index":35,"time_elapsed":1241601,"internal_node_id":"0.0-5.0-30.0"},{"rt":1694.3999999784864,"response":{"pregunta2 likert":2},"question_order":[0],"trial_type":"survey-likert","trial_index":36,"time_elapsed":1243299,"internal_node_id":"0.0-5.0-31.0"},{"rt":40027.79999998165,"responses":"{\"pregunta11\":\"b) Deleitar a sus receptores por medio de la belleza y el confort\"}","question_order":"[0]","trial_type":"survey-multi-choice","trial_index":37,"time_elapsed":1283331,"internal_node_id":"0.0-5.0-32.0"},{"rt":1165.2000000467524,"response":{"pregunta11 likert":2},"question_order":[0],"trial_type":"survey-likert","trial_index":38,"time_elapsed":1284503,"internal_node_id":"0.0-5.0-33.0"},{"rt":36299.59999996936,"responses":"{\"pregunta3\":\"a) El origen de las grandes civilizaciones.\"}","question_order":"[0]","trial_type":"survey-multi-choice","trial_index":39,"time_elapsed":1320811,"internal_node_id":"0.0-5.0-34.0"},{"rt":1209.1000000364147,"response":{"pregunta3 likert":2},"question_order":[0],"trial_type":"survey-likert","trial_index":40,"time_elapsed":1322025,"internal_node_id":"0.0-5.0-35.0"},{"rt":51567.900000023656,"responses":"{\"pregunta8\":\"d) El ser humano se comporta de acuerdo con las circunstancias.\"}","question_order":"[0]","trial_type":"survey-multi-choice","trial_index":41,"time_elapsed":1373599,"internal_node_id":"0.0-5.0-36.0"},{"rt":1301.2000000453554,"response":{"pregunta8 likert":2},"question_order":[0],"trial_type":"survey-likert","trial_index":42,"time_elapsed":1374906,"internal_node_id":"0.0-5.0-37.0"},{"rt":84831.69999998063,"responses":"{\"pregunta12\":\"a) Homenajear a quienes murieron.\"}","question_order":"[0]","trial_type":"survey-multi-choice","trial_index":43,"time_elapsed":1459742,"internal_node_id":"0.0-5.0-38.0"},{"rt":1363.2000000216067,"response":{"pregunta12 likert":2},"question_order":[0],"trial_type":"survey-likert","trial_index":44,"time_elapsed":1461109,"internal_node_id":"0.0-5.0-39.0"},{"rt":30489.000000001397,"responses":"{\"pregunta15\":\"b) el uranio es el elemento natural con el mayor número de protones en el núcleo.\"}","question_order":"[0]","trial_type":"survey-multi-choice","trial_index":45,"time_elapsed":1491605,"internal_node_id":"0.0-5.0-40.0"},{"rt":1497.899999958463,"response":{"pregunta15 likert":3},"question_order":[0],"trial_type":"survey-likert","trial_index":46,"time_elapsed":1493109,"internal_node_id":"0.0-5.0-41.0"},{"rt":22629.799999995157,"responses":"{\"pregunta24\":\"a) para el mexicano, la muerte es cotidiana.\"}","question_order":"[0]","trial_type":"survey-multi-choice","trial_index":47,"time_elapsed":1515743,"internal_node_id":"0.0-5.0-42.0"},{"rt":1408.9999999850988,"response":{"pregunta24 likert":2},"question_order":[0],"trial_type":"survey-likert","trial_index":48,"time_elapsed":1517156,"internal_node_id":"0.0-5.0-43.0"},{"rt":79789.39999995055,"responses":"{\"pregunta7\":\"c) se da como existente, y sólo se discute su relación con el cuerpo.\"}","question_order":"[0]","trial_type":"survey-multi-choice","trial_index":49,"time_elapsed":1596951,"internal_node_id":"0.0-5.0-44.0"},{"rt":1141.9999999925494,"response":{"pregunta7 likert":2},"question_order":[0],"trial_type":"survey-likert","trial_index":50,"time_elapsed":1598103,"internal_node_id":"0.0-5.0-45.0"},{"rt":135424.10000000382,"responses":"{\"pregunta4\":\"b) En la literatura como en la vida, lo importante son las preguntas.\"}","question_order":"[0]","trial_type":"survey-multi-choice","trial_index":51,"time_elapsed":1733536,"internal_node_id":"0.0-5.0-46.0"},{"rt":1120.5999999656342,"response":{"pregunta4 likert":2},"question_order":[0],"trial_type":"survey-likert","trial_index":52,"time_elapsed":1734661,"internal_node_id":"0.0-5.0-47.0"}]