[{"rt":54851.700000000186,"stimulus":"<h1 style=\"color:red; margin-top: 3%;\">¡Bienvenido(a)!</h1><p style=\"text-align:left; justify-content:space-between; margin-right: 5%; margin-left: 5%; margin-top: 5%\"> Antes de empezar el estudio, necesitamos que nos confirmes que estás de acuerdo con participar. Recuerda que tu participación es 100% voluntaria y que lo único que te pedimos es responder lo mejor que puedas. Recuerda también que el estudio incluye:</p><ol style=\"text-align:left; justify-content:space-between; margin-right: 5%; margin-left: 5%;\"><li> un ejercicio de resolución de preguntas de selección múltiple (30’),</li><li>un cuestionario breve (5’),</li><li>un juego muy breve (3’),</li></ol><p style=\"text-align:left; justify-content:space-between; margin-right: 5%; margin-left: 5%;\">Si quieres participar, haz clic en “Acepto” luego de leer lo siguiente:<br></p><p style=\"text-align:left; justify-content:space-between; margin-right: 5%; margin-left: 5%;\">Acepto participar en el estudio “Estrategias de lectura y resolución de preguntas de selección múltiple”, en los términos aquí señalados:<br></p><p style=\"text-align:left; justify-content:space-between; margin-right: 5%; margin-left: 5%;\"><a href=\"http://ciae.uchile.cl/download.php?file=noticias/Asentimiento.pdf\" target=\"_blank\">Link a la hoja de información del Consentimiento.</a></p><p style=\"text-align:left; justify-content:space-between; margin-right: 5%; margin-left: 5%;\">Declaro que he leído (o se me ha leído) y (he) comprendido, las condiciones de mi participación en este estudio. He tenido la oportunidad de hacer preguntas y éstas han sido respondidas. No tengo dudas al respecto.</p>","response":0,"condicion_MCQ":10,"condicion_JUEGO":10,"condicion_INTER":10,"numero_participante":34,"numero_version":1,"dimx":1366,"dimy":768,"color_profundidad":24,"pixel_profundidad":24,"Browser":"Google Chrome","dia":3,"mes":5,"hora":14,"minuto":14,"segundo":10,"trial_type":"html-button-response","trial_index":0,"time_elapsed":54856,"internal_node_id":"0.0-0.0"},{"success":true,"trial_type":"fullscreen","trial_index":1,"time_elapsed":1814359,"internal_node_id":"0.0-1.0"},{"rt":14571396.000000002,"responses":"{\"Nombres\":\"Lukas\",\"Apellidos\":\"Valdivia Celis \",\"Edad\":\"18\",\"Sexo\":\"hombre \",\"Curso\":\"218\",\"Colegio\":\"UNAB\",\"Contacto\":\"lukasarts08@gmail.com\"}","trial_type":"survey-text","trial_index":2,"time_elapsed":16385768,"internal_node_id":"0.0-2.0"},{"success":true,"timeout":false,"failed_images":[],"failed_audio":[],"failed_video":[],"trial_type":"preload","trial_index":3,"time_elapsed":16386349,"internal_node_id":"0.0-3.0"},{"rt":66398.09999999776,"stimulus":"<h1 style:\"margin-top: 5%;\">Ejercicios de Comprensión de Lectura de la Universidad de Chile</h1><p style=\"font-size: 120%;\">En esta actividad, debes responder 24 preguntas de selección múltiple. Cada pregunta presenta 4 respuestas alternativas, pero sólo una de ellas es correcta. Por lo tanto, debes escoger una sola alternativa para cada pregunta. Además, debes reportar qué tan seguro(a) estás de la respuesta que das, con un:</p><ol style=\"font-size: 120%;text-align:left;margin-left: 40%;\"><li>No estoy seguro(a) para nada</li><li>No estoy muy seguro(a)</li><li>Estoy bastante seguro(a)</li><li>Estoy totalmente seguro(a)</li></ol><p style=\"font-size: 120%;\">Por favor lee bien los enunciados antes de responder. ¡Éxito!</p>","response":0,"trial_type":"html-button-response","trial_index":4,"time_elapsed":16452750,"internal_node_id":"0.0-4.0"},{"rt":54109,"responses":"{\"pregunta2\":\"d) A la relación entre pensamiento y estructura social.\"}","question_order":"[0]","trial_type":"survey-multi-choice","trial_index":5,"time_elapsed":16506863,"internal_node_id":"0.0-5.0-0.0"},{"rt":4178.5,"response":{"pregunta2 likert":1},"question_order":[0],"trial_type":"survey-likert","trial_index":6,"time_elapsed":16511045,"internal_node_id":"0.0-5.0-1.0"},{"rt":53263.599999997765,"responses":"{\"pregunta15\":\"d) el uranio es el elemento natural con el mayor número de protones en el núcleo.\"}","question_order":"[0]","trial_type":"survey-multi-choice","trial_index":7,"time_elapsed":16564316,"internal_node_id":"0.0-5.0-2.0"},{"rt":2756.5,"response":{"pregunta15 likert":3},"question_order":[0],"trial_type":"survey-likert","trial_index":8,"time_elapsed":16567077,"internal_node_id":"0.0-5.0-3.0"},{"rt":67682.5,"responses":"{\"pregunta1\":\"d) Aportan informaciones con las que se reconstruye el personaje dentro de un relato.\"}","question_order":"[0]","trial_type":"survey-multi-choice","trial_index":9,"time_elapsed":16634764,"internal_node_id":"0.0-5.0-4.0"},{"rt":1829,"response":{"pregunta1 likert":2},"question_order":[0],"trial_type":"survey-likert","trial_index":10,"time_elapsed":16636597,"internal_node_id":"0.0-5.0-5.0"},{"rt":42378.10000000149,"responses":"{\"pregunta3\":\"d) El inicio de la civilización china.\"}","question_order":"[0]","trial_type":"survey-multi-choice","trial_index":11,"time_elapsed":16678981,"internal_node_id":"0.0-5.0-6.0"},{"rt":1897.0999999977648,"response":{"pregunta3 likert":2},"question_order":[0],"trial_type":"survey-likert","trial_index":12,"time_elapsed":16680884,"internal_node_id":"0.0-5.0-7.0"},{"rt":114826.49999999814,"responses":"{\"pregunta10\":\"c) ritualistas y obsesivos.\"}","question_order":"[0]","trial_type":"survey-multi-choice","trial_index":13,"time_elapsed":16795717,"internal_node_id":"0.0-5.0-8.0"},{"rt":1802.5,"response":{"pregunta10 likert":2},"question_order":[0],"trial_type":"survey-likert","trial_index":14,"time_elapsed":16797527,"internal_node_id":"0.0-5.0-9.0"},{"rt":195518.90000000596,"responses":"{\"pregunta6\":\"d) Presentar positivamente las diversas tendencias del diseño de interiores a través de un comentario.\"}","question_order":"[0]","trial_type":"survey-multi-choice","trial_index":15,"time_elapsed":16993051,"internal_node_id":"0.0-5.0-10.0"},{"rt":2217.2000000029802,"response":{"pregunta6 likert":1},"question_order":[0],"trial_type":"survey-likert","trial_index":16,"time_elapsed":16995276,"internal_node_id":"0.0-5.0-11.0"},{"rt":82907.10000000149,"responses":"{\"pregunta4\":\"c) En la literatura, el narrador expresa su voluntad de libertad.\"}","question_order":"[0]","trial_type":"survey-multi-choice","trial_index":17,"time_elapsed":17078188,"internal_node_id":"0.0-5.0-12.0"},{"rt":1388,"response":{"pregunta4 likert":2},"question_order":[0],"trial_type":"survey-likert","trial_index":18,"time_elapsed":17079580,"internal_node_id":"0.0-5.0-13.0"},{"rt":91596.10000000149,"responses":"{\"pregunta21\":\"b) Nuestra economía vivirá un proceso de ajuste a la nueva realidad.\"}","question_order":"[0]","trial_type":"survey-multi-choice","trial_index":19,"time_elapsed":17171180,"internal_node_id":"0.0-5.0-14.0"},{"rt":2673.60000000149,"response":{"pregunta21 likert":2},"question_order":[0],"trial_type":"survey-likert","trial_index":20,"time_elapsed":17173860,"internal_node_id":"0.0-5.0-15.0"},{"rt":81298.79999999702,"responses":"{\"pregunta12\":\"c) Homenajear a quienes murieron.\"}","question_order":"[0]","trial_type":"survey-multi-choice","trial_index":21,"time_elapsed":17255164,"internal_node_id":"0.0-5.0-16.0"},{"rt":1499.5,"response":{"pregunta12 likert":2},"question_order":[0],"trial_type":"survey-likert","trial_index":22,"time_elapsed":17256668,"internal_node_id":"0.0-5.0-17.0"},{"rt":65491.79999999702,"responses":"{\"pregunta11\":\"c) Provocar el deseo de la adquisición vertiginosa.\"}","question_order":"[0]","trial_type":"survey-multi-choice","trial_index":23,"time_elapsed":17322165,"internal_node_id":"0.0-5.0-18.0"},{"rt":1320.7000000029802,"response":{"pregunta11 likert":2},"question_order":[0],"trial_type":"survey-likert","trial_index":24,"time_elapsed":17323492,"internal_node_id":"0.0-5.0-19.0"},{"rt":75041.89999999851,"responses":"{\"pregunta18\":\"d) La publicidad es dañina para sus receptores.\"}","question_order":"[0]","trial_type":"survey-multi-choice","trial_index":25,"time_elapsed":17398540,"internal_node_id":"0.0-5.0-20.0"},{"rt":3048.9000000059605,"response":{"pregunta18 likert":3},"question_order":[0],"trial_type":"survey-likert","trial_index":26,"time_elapsed":17401597,"internal_node_id":"0.0-5.0-21.0"},{"rt":53874.29999999702,"responses":"{\"pregunta23\":\"c) el jardinero estará muerto al día siguiente.\"}","question_order":"[0]","trial_type":"survey-multi-choice","trial_index":27,"time_elapsed":17455476,"internal_node_id":"0.0-5.0-22.0"},{"rt":1801.8999999985099,"response":{"pregunta23 likert":3},"question_order":[0],"trial_type":"survey-likert","trial_index":28,"time_elapsed":17457285,"internal_node_id":"0.0-5.0-23.0"},{"rt":115377.5,"responses":"{\"pregunta8\":\"c) El concepto de normalidad es diferente para un psiquiatra que para nosotros.\"}","question_order":"[0]","trial_type":"survey-multi-choice","trial_index":29,"time_elapsed":17572669,"internal_node_id":"0.0-5.0-24.0"},{"rt":2761.39999999851,"response":{"pregunta8 likert":1},"question_order":[0],"trial_type":"survey-likert","trial_index":30,"time_elapsed":17575436,"internal_node_id":"0.0-5.0-25.0"},{"rt":51865.89999999851,"responses":"{\"pregunta19\":\"b) sufren dolores de espalda.\"}","question_order":"[0]","trial_type":"survey-multi-choice","trial_index":31,"time_elapsed":17627308,"internal_node_id":"0.0-5.0-26.0"},{"rt":1508.5,"response":{"pregunta19 likert":2},"question_order":[0],"trial_type":"survey-likert","trial_index":32,"time_elapsed":17628821,"internal_node_id":"0.0-5.0-27.0"},{"rt":83059.10000000149,"responses":"{\"pregunta9\":\"c) la persistencia de la melancolía y la desesperanza.\"}","question_order":"[0]","trial_type":"survey-multi-choice","trial_index":33,"time_elapsed":17711885,"internal_node_id":"0.0-5.0-28.0"},{"rt":1673.1999999955297,"response":{"pregunta9 likert":2},"question_order":[0],"trial_type":"survey-likert","trial_index":34,"time_elapsed":17713564,"internal_node_id":"0.0-5.0-29.0"},{"rt":155098.30000000447,"responses":"{\"pregunta5\":\"a) Los momentos triviales de los viajes, en la escritura se vuelven significativos.\"}","question_order":"[0]","trial_type":"survey-multi-choice","trial_index":35,"time_elapsed":17868669,"internal_node_id":"0.0-5.0-30.0"},{"rt":1354.6999999955297,"response":{"pregunta5 likert":2},"question_order":[0],"trial_type":"survey-likert","trial_index":36,"time_elapsed":17870029,"internal_node_id":"0.0-5.0-31.0"},{"rt":48042,"responses":"{\"pregunta24\":\"c) para el mexicano, la muerte es cotidiana.\"}","question_order":"[0]","trial_type":"survey-multi-choice","trial_index":37,"time_elapsed":17918076,"internal_node_id":"0.0-5.0-32.0"},{"rt":2665.8000000044703,"response":{"pregunta24 likert":3},"question_order":[0],"trial_type":"survey-likert","trial_index":38,"time_elapsed":17920748,"internal_node_id":"0.0-5.0-33.0"},{"rt":19459.60000000149,"responses":"{\"pregunta22\":\"a) El derecho a informar y el derecho a la privacidad son inconciliables.\"}","question_order":"[0]","trial_type":"survey-multi-choice","trial_index":39,"time_elapsed":17940211,"internal_node_id":"0.0-5.0-34.0"},{"rt":5195.60000000149,"response":{"pregunta22 likert":1},"question_order":[0],"trial_type":"survey-likert","trial_index":40,"time_elapsed":17945412,"internal_node_id":"0.0-5.0-35.0"},{"rt":63193.39999999851,"responses":"{\"pregunta13\":\"a) A la inutilidad de tanto esfuerzo si el objetivo es el reposo.\"}","question_order":"[0]","trial_type":"survey-multi-choice","trial_index":41,"time_elapsed":18008612,"internal_node_id":"0.0-5.0-36.0"},{"rt":1770.9000000059605,"response":{"pregunta13 likert":0},"question_order":[0],"trial_type":"survey-likert","trial_index":42,"time_elapsed":18010388,"internal_node_id":"0.0-5.0-37.0"},{"rt":33532.20000000298,"responses":"{\"pregunta16\":\"a) Bomberos debería tener acceso a un seguro médico, al que pueda recurrir en caso de accidente.\"}","question_order":"[0]","trial_type":"survey-multi-choice","trial_index":43,"time_elapsed":18043924,"internal_node_id":"0.0-5.0-38.0"},{"rt":1084.1000000014901,"response":{"pregunta16 likert":2},"question_order":[0],"trial_type":"survey-likert","trial_index":44,"time_elapsed":18045012,"internal_node_id":"0.0-5.0-39.0"},{"rt":77305.60000000149,"responses":"{\"pregunta14\":\"d) el mejor emperador es el que está muerto.\"}","question_order":"[0]","trial_type":"survey-multi-choice","trial_index":45,"time_elapsed":18122324,"internal_node_id":"0.0-5.0-40.0"},{"rt":2418.7999999970198,"response":{"pregunta14 likert":1},"question_order":[0],"trial_type":"survey-likert","trial_index":46,"time_elapsed":18124748,"internal_node_id":"0.0-5.0-41.0"},{"rt":46346,"responses":"{\"pregunta17\":\"a) A la influencia de grupos que rechazaban su música.\"}","question_order":"[0]","trial_type":"survey-multi-choice","trial_index":47,"time_elapsed":18171100,"internal_node_id":"0.0-5.0-42.0"},{"rt":12345.60000000149,"response":{"pregunta17 likert":3},"question_order":[0],"trial_type":"survey-likert","trial_index":48,"time_elapsed":18183452,"internal_node_id":"0.0-5.0-43.0"},{"rt":74914.70000000298,"responses":"{\"pregunta7\":\"a) es una realidad discutida por algunos.\"}","question_order":"[0]","trial_type":"survey-multi-choice","trial_index":49,"time_elapsed":18258372,"internal_node_id":"0.0-5.0-44.0"},{"rt":3504.6999999955297,"response":{"pregunta7 likert":1},"question_order":[0],"trial_type":"survey-likert","trial_index":50,"time_elapsed":18261884,"internal_node_id":"0.0-5.0-45.0"},{"rt":30417.89999999851,"responses":"{\"pregunta20\":\"a) las personas excesivas son más felices.\"}","question_order":"[0]","trial_type":"survey-multi-choice","trial_index":51,"time_elapsed":18292308,"internal_node_id":"0.0-5.0-46.0"},{"rt":1314.7000000029802,"response":{"pregunta20 likert":1},"question_order":[0],"trial_type":"survey-likert","trial_index":52,"time_elapsed":18293627,"internal_node_id":"0.0-5.0-47.0"},{"rt":3319.89999999851,"stimulus":"<p style=\"font-size: 120%\">Gracias por completar esta etapa del estudio. Ahora te invitamos a responder el cuestionario.<br><br></p>","response":0,"trial_type":"html-button-response","trial_index":53,"time_elapsed":18296964,"internal_node_id":"0.0-6.0"},{"rt":20157.59999999404,"stimulus":"<h1 style=\"margin-top: 5%\">Cuestionario para la Evaluación de Metas Académicas</h1><p style=\"font-size: 120%; margin-left: 3%; margin-top: 5%\">Este es un cuestionario que permite conocer cuáles son los principales motivos por los que los estudiantes se esfuerzan en su trabajo académico. A continuación, se te presentarán una serie de afirmaciones acerca de los motivos que puedes tener para estudiar.<br>Te pedimos que contestes a dichas afirmaciones reflexionando sobre el contenido de cada una de ellas, que, aunque te parezcan semejantes, en realidad, no lo son.<br>NO HAY RESPUESTAS CORRECTAS o INCORRECTAS, sólo queremos que respondas con la mayor precisión y sinceridad posible a las preguntas que se plantean.","response":0,"trial_type":"html-button-response","trial_index":54,"time_elapsed":18317124,"internal_node_id":"0.0-7.0"},{"rt":100158.10000000149,"response":{"Metas cuestionario pregunta1":2,"Metas cuestionario pregunta2":1,"Metas cuestionario pregunta3":2,"Metas cuestionario pregunta4":0,"Metas cuestionario pregunta5":2,"Metas cuestionario pregunta6":2,"Metas cuestionario pregunta7":2,"Metas cuestionario pregunta8":1,"Metas cuestionario pregunta9":0,"Metas cuestionario pregunta10":0,"Metas cuestionario pregunta11":0,"Metas cuestionario pregunta12":0,"Metas cuestionario pregunta13":1,"Metas cuestionario pregunta14":0,"Metas cuestionario pregunta15":1,"Metas cuestionario pregunta16":2,"Metas cuestionario pregunta17":0,"Metas cuestionario pregunta18":4,"Metas cuestionario pregunta19":4,"Metas cuestionario pregunta20":0},"question_order":[0,1,2,3,4,5,6,7,8,9,10,11,12,13,14,15,16,17,18,19],"trial_type":"survey-likert","trial_index":55,"time_elapsed":18417288,"internal_node_id":"0.0-8.0"},{"rt":3981.1999999955297,"stimulus":"<p style=\"font-size: 120%\">Gracias por responder el cuestionario. Ahora te invitamos a seguir con el juego, que es muy breve.<br><br></p>","response":0,"trial_type":"html-button-response","trial_index":56,"time_elapsed":18421276,"internal_node_id":"0.0-9.0"},{"rt":8038.39999999851,"stimulus":"<h1>Juego</h1><p style=\"font-size: 120%;\">A continuación se te presentarán 16 pequeñas historias.<br>Por favor lee el texto presentado en cada una de ellas y luego haz click en el objeto de tu elección.<br>Si estás listo(a),<span style=\"color:red;\"> haz click en \"comenzar\"</span>.</p>","response":0,"trial_type":"html-button-response","trial_index":57,"time_elapsed":18429316,"internal_node_id":"0.0-10.0"},{"rt":15474.60000000149,"grid":[[1,1,1,1]],"target":[0,0],"response":[0,1],"correct":false,"juego":8,"trial_type":"serial-reaction-time-mouse","trial_index":58,"time_elapsed":18444793,"internal_node_id":"0.0-11.0-0.0"},{"rt":12820,"grid":[[1,1,1,1]],"target":[0,0],"response":[0,3],"correct":false,"juego":9,"trial_type":"serial-reaction-time-mouse","trial_index":59,"time_elapsed":18457615,"internal_node_id":"0.0-11.0-1.0"},{"rt":6031.89999999851,"grid":[[1,1,1,1]],"target":[0,0],"response":[0,0],"correct":true,"juego":7,"trial_type":"serial-reaction-time-mouse","trial_index":60,"time_elapsed":18463648,"internal_node_id":"0.0-11.0-2.0"},{"rt":7772.5,"grid":[[1,1,1],[1,1,1],[1,1,1],[1,1,1],[1,1,1],[1,1,1],[1,1,1],[1,1,1],[1,1,1]],"target":[0,0],"response":[3,1],"correct":false,"juego":5,"trial_type":"serial-reaction-time-mouse","trial_index":61,"time_elapsed":18471423,"internal_node_id":"0.0-11.0-3.0"},{"rt":99158.19999999553,"grid":[[1,1,1,1],[1,1,1,1],[1,1,1,1],[1,1,1,1],[1,1,1,1],[1,1,1,1],[1,1,1,1],[1,1,1,1],[1,1,1,1]],"target":[0,0],"response":[5,2],"correct":false,"juego":15,"trial_type":"serial-reaction-time-mouse","trial_index":62,"time_elapsed":18570584,"internal_node_id":"0.0-11.0-4.0"},{"rt":5837.60000000149,"grid":[[1,1,1],[1,1,1],[1,1,1],[1,1,1],[1,1,1],[1,1,1],[1,1,1],[1,1,1],[1,1,1]],"target":[0,0],"response":[1,1],"correct":false,"juego":6,"trial_type":"serial-reaction-time-mouse","trial_index":63,"time_elapsed":18576423,"internal_node_id":"0.0-11.0-5.0"},{"rt":3473.39999999851,"grid":[[1,1,1,1]],"target":[0,0],"response":[0,1],"correct":false,"juego":1,"trial_type":"serial-reaction-time-mouse","trial_index":64,"time_elapsed":18579898,"internal_node_id":"0.0-11.0-6.0"},{"rt":14660.39999999851,"grid":[[1,1,1],[1,1,1],[1,1,1],[1,1,1],[1,1,1],[1,1,1],[1,1,1],[1,1,1],[1,1,1]],"target":[0,0],"response":[7,1],"correct":false,"juego":13,"trial_type":"serial-reaction-time-mouse","trial_index":65,"time_elapsed":18594561,"internal_node_id":"0.0-11.0-7.0"},{"rt":10461.29999999702,"grid":[[1,1,1,1]],"target":[0,0],"response":[0,1],"correct":false,"juego":12,"trial_type":"serial-reaction-time-mouse","trial_index":66,"time_elapsed":18605024,"internal_node_id":"0.0-11.0-8.0"},{"rt":2941.39999999851,"grid":[[1],[1],[1],[1]],"target":[0,0],"response":[0,0],"correct":true,"juego":4,"trial_type":"serial-reaction-time-mouse","trial_index":67,"time_elapsed":18607967,"internal_node_id":"0.0-11.0-9.0"},{"rt":6821.5999999940395,"grid":[[1,1,1,1],[1,1,1,1],[1,1,1,1],[1,1,1,1],[1,1,1,1],[1,1,1,1],[1,1,1,1],[1,1,1,1],[1,1,1,1]],"target":[0,0],"response":[7,2],"correct":false,"juego":14,"trial_type":"serial-reaction-time-mouse","trial_index":68,"time_elapsed":18614791,"internal_node_id":"0.0-11.0-10.0"},{"rt":13310,"grid":[[1,1,1,1]],"target":[0,0],"response":[0,1],"correct":false,"juego":11,"trial_type":"serial-reaction-time-mouse","trial_index":69,"time_elapsed":18628102,"internal_node_id":"0.0-11.0-11.0"},{"rt":6718.39999999851,"grid":[[1,1,1,1]],"target":[0,0],"response":[0,1],"correct":false,"juego":2,"trial_type":"serial-reaction-time-mouse","trial_index":70,"time_elapsed":18634822,"internal_node_id":"0.0-11.0-12.0"},{"rt":6294.19999999553,"grid":[[1,1,1],[1,1,1],[1,1,1],[1,1,1],[1,1,1],[1,1,1],[1,1,1],[1,1,1],[1,1,1]],"target":[0,0],"response":[1,2],"correct":false,"juego":10,"trial_type":"serial-reaction-time-mouse","trial_index":71,"time_elapsed":18641119,"internal_node_id":"0.0-11.0-13.0"},{"rt":10935.89999999851,"grid":[[1,1,1,1]],"target":[0,0],"response":[0,3],"correct":false,"juego":3,"trial_type":"serial-reaction-time-mouse","trial_index":72,"time_elapsed":18652056,"internal_node_id":"0.0-11.0-14.0"}]