[{"rt":8335740.200000018,"stimulus":"<h1 style=\"color:red; margin-top: 3%;\">¡Bienvenido(a)!</h1><p style=\"text-align:left; justify-content:space-between; margin-right: 5%; margin-left: 5%; margin-top: 5%\"> Antes de empezar el estudio, necesitamos que nos confirmes que estás de acuerdo con participar. Recuerda que tu participación es 100% voluntaria y que lo único que te pedimos es responder lo mejor que puedas. Recuerda también que el estudio incluye:</p><ol style=\"text-align:left; justify-content:space-between; margin-right: 5%; margin-left: 5%;\"><li> un ejercicio de resolución de preguntas de selección múltiple (30’),</li><li>un cuestionario breve (5’),</li><li>un juego muy breve (3’),</li></ol><p style=\"text-align:left; justify-content:space-between; margin-right: 5%; margin-left: 5%;\">Si quieres participar, haz clic en “Acepto” luego de leer lo siguiente:<br></p><p style=\"text-align:left; justify-content:space-between; margin-right: 5%; margin-left: 5%;\">Acepto participar en el estudio “Estrategias de lectura y resolución de preguntas de selección múltiple”, en los términos aquí señalados:<br></p><p style=\"text-align:left; justify-content:space-between; margin-right: 5%; margin-left: 5%;\"><a href=\"http://ciae.uchile.cl/download.php?file=noticias/Asentimiento.pdf\" target=\"_blank\">Link a la hoja de información del Consentimiento.</a></p><p style=\"text-align:left; justify-content:space-between; margin-right: 5%; margin-left: 5%;\">Declaro que he leído (o se me ha leído) y (he) comprendido, las condiciones de mi participación en este estudio. He tenido la oportunidad de hacer preguntas y éstas han sido respondidas. No tengo dudas al respecto.</p>","response":0,"condicion_MCQ":10,"condicion_JUEGO":10,"condicion_INTER":10,"numero_participante":58,"numero_version":1,"dimx":1280,"dimy":720,"color_profundidad":24,"pixel_profundidad":24,"Browser":"Google Chrome","dia":7,"mes":5,"hora":14,"minuto":27,"segundo":24,"trial_type":"html-button-response","trial_index":0,"time_elapsed":8335743,"internal_node_id":"0.0-0.0"},{"success":true,"trial_type":"fullscreen","trial_index":1,"time_elapsed":8343191,"internal_node_id":"0.0-1.0"},{"rt":55008.90000000596,"responses":"{\"Nombres\":\"Carlos Alonso\",\"Apellidos\":\"Saleh Ramírez\",\"Edad\":\"19\",\"Sexo\":\"Hombre\",\"Curso\":\"seccion 204\",\"Colegio\":\"Universidad Andrés Bello-Casona las condes\",\"Contacto\":\"cacoomg@gmail.com\"}","trial_type":"survey-text","trial_index":2,"time_elapsed":8398206,"internal_node_id":"0.0-2.0"},{"success":true,"timeout":false,"failed_images":[],"failed_audio":[],"failed_video":[],"trial_type":"preload","trial_index":3,"time_elapsed":8398552,"internal_node_id":"0.0-3.0"},{"rt":13085,"stimulus":"<h1 style:\"margin-top: 5%;\">Ejercicios de Comprensión de Lectura de la Universidad de Chile</h1><p style=\"font-size: 120%;\">En esta actividad, debes responder 24 preguntas de selección múltiple. Cada pregunta presenta 4 respuestas alternativas, pero sólo una de ellas es correcta. Por lo tanto, debes escoger una sola alternativa para cada pregunta. Además, debes reportar qué tan seguro(a) estás de la respuesta que das, con un:</p><ol style=\"font-size: 120%;text-align:left;margin-left: 40%;\"><li>No estoy seguro(a) para nada</li><li>No estoy muy seguro(a)</li><li>Estoy bastante seguro(a)</li><li>Estoy totalmente seguro(a)</li></ol><p style=\"font-size: 120%;\">Por favor lee bien los enunciados antes de responder. ¡Éxito!</p>","response":0,"trial_type":"html-button-response","trial_index":4,"time_elapsed":8411638,"internal_node_id":"0.0-4.0"},{"rt":85039.29999998212,"responses":"{\"pregunta8\":\"d) Lo que es normal en un asilo es anormal en un campo de concentración.\"}","question_order":"[0]","trial_type":"survey-multi-choice","trial_index":5,"time_elapsed":8496678,"internal_node_id":"0.0-5.0-0.0"},{"rt":2733.300000011921,"response":{"pregunta8 likert":1},"question_order":[0],"trial_type":"survey-likert","trial_index":6,"time_elapsed":8499414,"internal_node_id":"0.0-5.0-1.0"},{"rt":2890288.900000006,"responses":"{\"pregunta20\":\"b) para Aristóteles la virtud estaba en el justo equilibrio.\"}","question_order":"[0]","trial_type":"survey-multi-choice","trial_index":7,"time_elapsed":11389706,"internal_node_id":"0.0-5.0-2.0"},{"rt":2515.7000000178814,"response":{"pregunta20 likert":2},"question_order":[0],"trial_type":"survey-likert","trial_index":8,"time_elapsed":11392225,"internal_node_id":"0.0-5.0-3.0"},{"rt":142453.09999999404,"responses":"{\"pregunta6\":\"c) Orientar la opción estética de un grupo de personas en lo que se refiere a la decoración de interiores.\"}","question_order":"[0]","trial_type":"survey-multi-choice","trial_index":9,"time_elapsed":11534682,"internal_node_id":"0.0-5.0-4.0"},{"rt":1541.199999988079,"response":{"pregunta6 likert":1},"question_order":[0],"trial_type":"survey-likert","trial_index":10,"time_elapsed":11536225,"internal_node_id":"0.0-5.0-5.0"},{"rt":107141.5,"responses":"{\"pregunta22\":\"b) Las personas públicas no tienen vida privada.\"}","question_order":"[0]","trial_type":"survey-multi-choice","trial_index":11,"time_elapsed":11643370,"internal_node_id":"0.0-5.0-6.0"},{"rt":2493.2000000178814,"response":{"pregunta22 likert":3},"question_order":[0],"trial_type":"survey-likert","trial_index":12,"time_elapsed":11645865,"internal_node_id":"0.0-5.0-7.0"},{"rt":93429.40000000596,"responses":"{\"pregunta18\":\"a) El receptor es habitualmente pasivo frente a la publicidad.\"}","question_order":"[0]","trial_type":"survey-multi-choice","trial_index":13,"time_elapsed":11739298,"internal_node_id":"0.0-5.0-8.0"},{"rt":2517.199999988079,"response":{"pregunta18 likert":3},"question_order":[0],"trial_type":"survey-likert","trial_index":14,"time_elapsed":11741818,"internal_node_id":"0.0-5.0-9.0"},{"rt":123069.29999998212,"responses":"{\"pregunta7\":\"b) se da como existente, y sólo se discute su relación con el cuerpo.\"}","question_order":"[0]","trial_type":"survey-multi-choice","trial_index":15,"time_elapsed":11864890,"internal_node_id":"0.0-5.0-10.0"},{"rt":1973.7000000178814,"response":{"pregunta7 likert":1},"question_order":[0],"trial_type":"survey-likert","trial_index":16,"time_elapsed":11866866,"internal_node_id":"0.0-5.0-11.0"},{"rt":754030.099999994,"responses":"{\"pregunta17\":\"a) A la influencia de grupos que rechazaban su música.\"}","question_order":"[0]","trial_type":"survey-multi-choice","trial_index":17,"time_elapsed":12620899,"internal_node_id":"0.0-5.0-12.0"},{"rt":1885.2000000178814,"response":{"pregunta17 likert":3},"question_order":[0],"trial_type":"survey-likert","trial_index":18,"time_elapsed":12622787,"internal_node_id":"0.0-5.0-13.0"},{"rt":402013.09999999404,"responses":"{\"pregunta2\":\"a) A la relación entre civilización y sociedad.\"}","question_order":"[0]","trial_type":"survey-multi-choice","trial_index":19,"time_elapsed":13024803,"internal_node_id":"0.0-5.0-14.0"},{"rt":2925.0999999940395,"response":{"pregunta2 likert":2},"question_order":[0],"trial_type":"survey-likert","trial_index":20,"time_elapsed":13027731,"internal_node_id":"0.0-5.0-15.0"},{"rt":92253.19999998808,"responses":"{\"pregunta13\":\"a) A la inutilidad de tanto esfuerzo si el objetivo es el reposo.\"}","question_order":"[0]","trial_type":"survey-multi-choice","trial_index":21,"time_elapsed":13119987,"internal_node_id":"0.0-5.0-16.0"},{"rt":1741.0999999940395,"response":{"pregunta13 likert":3},"question_order":[0],"trial_type":"survey-likert","trial_index":22,"time_elapsed":13121731,"internal_node_id":"0.0-5.0-17.0"},{"rt":453941.59999999404,"responses":"{\"pregunta1\":\"d) Aportan informaciones con las que se reconstruye el personaje dentro de un relato.\"}","question_order":"[0]","trial_type":"survey-multi-choice","trial_index":23,"time_elapsed":13575676,"internal_node_id":"0.0-5.0-18.0"},{"rt":2165.800000011921,"response":{"pregunta1 likert":2},"question_order":[0],"trial_type":"survey-likert","trial_index":24,"time_elapsed":13577844,"internal_node_id":"0.0-5.0-19.0"},{"rt":201924.09999999404,"responses":"{\"pregunta14\":\"d) el mejor emperador es el que está muerto.\"}","question_order":"[0]","trial_type":"survey-multi-choice","trial_index":25,"time_elapsed":13779772,"internal_node_id":"0.0-5.0-20.0"},{"rt":1037,"response":{"pregunta14 likert":3},"question_order":[0],"trial_type":"survey-likert","trial_index":26,"time_elapsed":13780812,"internal_node_id":"0.0-5.0-21.0"},{"rt":156902,"responses":"{\"pregunta10\":\"d) hedonistas y soñadores.\"}","question_order":"[0]","trial_type":"survey-multi-choice","trial_index":27,"time_elapsed":13937717,"internal_node_id":"0.0-5.0-22.0"},{"rt":2181.2999999821186,"response":{"pregunta10 likert":2},"question_order":[0],"trial_type":"survey-likert","trial_index":28,"time_elapsed":13939901,"internal_node_id":"0.0-5.0-23.0"},{"rt":40373.40000000596,"responses":"{\"pregunta9\":\"d) un recuerdo nostálgico.\"}","question_order":"[0]","trial_type":"survey-multi-choice","trial_index":29,"time_elapsed":13980276,"internal_node_id":"0.0-5.0-24.0"},{"rt":1341.199999988079,"response":{"pregunta9 likert":3},"question_order":[0],"trial_type":"survey-likert","trial_index":30,"time_elapsed":13981620,"internal_node_id":"0.0-5.0-25.0"},{"rt":23373.5,"responses":"{\"pregunta24\":\"c) para el mexicano, la muerte es cotidiana.\"}","question_order":"[0]","trial_type":"survey-multi-choice","trial_index":31,"time_elapsed":14004996,"internal_node_id":"0.0-5.0-26.0"},{"rt":1373.2999999821186,"response":{"pregunta24 likert":3},"question_order":[0],"trial_type":"survey-likert","trial_index":32,"time_elapsed":14006372,"internal_node_id":"0.0-5.0-27.0"},{"rt":26901.600000023842,"responses":"{\"pregunta21\":\"d) El TLC causará una completa transformación de la economía chilena.\"}","question_order":"[0]","trial_type":"survey-multi-choice","trial_index":33,"time_elapsed":14033277,"internal_node_id":"0.0-5.0-28.0"},{"rt":1229.0999999940395,"response":{"pregunta21 likert":2},"question_order":[0],"trial_type":"survey-likert","trial_index":34,"time_elapsed":14034508,"internal_node_id":"0.0-5.0-29.0"},{"rt":33109.30000001192,"responses":"{\"pregunta16\":\"a) Bomberos debería tener acceso a un seguro médico, al que pueda recurrir en caso de accidente.\"}","question_order":"[0]","trial_type":"survey-multi-choice","trial_index":35,"time_elapsed":14067620,"internal_node_id":"0.0-5.0-30.0"},{"rt":2341.2999999821186,"response":{"pregunta16 likert":3},"question_order":[0],"trial_type":"survey-likert","trial_index":36,"time_elapsed":14069964,"internal_node_id":"0.0-5.0-31.0"},{"rt":68981.5,"responses":"{\"pregunta19\":\"a) llevan un control grupal de su embarazo.\"}","question_order":"[0]","trial_type":"survey-multi-choice","trial_index":37,"time_elapsed":14138948,"internal_node_id":"0.0-5.0-32.0"},{"rt":1629.0999999940395,"response":{"pregunta19 likert":3},"question_order":[0],"trial_type":"survey-likert","trial_index":38,"time_elapsed":14140580,"internal_node_id":"0.0-5.0-33.0"},{"rt":47421.30000001192,"responses":"{\"pregunta11\":\"c) Provocar el deseo de la adquisición vertiginosa.\"}","question_order":"[0]","trial_type":"survey-multi-choice","trial_index":39,"time_elapsed":14188005,"internal_node_id":"0.0-5.0-34.0"},{"rt":1829.699999988079,"response":{"pregunta11 likert":3},"question_order":[0],"trial_type":"survey-likert","trial_index":40,"time_elapsed":14189837,"internal_node_id":"0.0-5.0-35.0"},{"rt":164253.69999998808,"responses":"{\"pregunta15\":\"c) la creación de elementos químicos artificiales ha resultado de la manipulación del uranio.\"}","question_order":"[0]","trial_type":"survey-multi-choice","trial_index":41,"time_elapsed":14354093,"internal_node_id":"0.0-5.0-36.0"},{"rt":963.2999999821186,"response":{"pregunta15 likert":2},"question_order":[0],"trial_type":"survey-likert","trial_index":42,"time_elapsed":14355061,"internal_node_id":"0.0-5.0-37.0"},{"rt":37917.59999999404,"responses":"{\"pregunta23\":\"b) la Muerte vaticina el futuro mediante gestos.\"}","question_order":"[0]","trial_type":"survey-multi-choice","trial_index":43,"time_elapsed":14392981,"internal_node_id":"0.0-5.0-38.0"},{"rt":1588.9000000059605,"response":{"pregunta23 likert":3},"question_order":[0],"trial_type":"survey-likert","trial_index":44,"time_elapsed":14394573,"internal_node_id":"0.0-5.0-39.0"},{"rt":23413.59999999404,"responses":"{\"pregunta3\":\"a) El origen de las grandes civilizaciones.\"}","question_order":"[0]","trial_type":"survey-multi-choice","trial_index":45,"time_elapsed":14417989,"internal_node_id":"0.0-5.0-40.0"},{"rt":877.0999999940395,"response":{"pregunta3 likert":2},"question_order":[0],"trial_type":"survey-likert","trial_index":46,"time_elapsed":14418869,"internal_node_id":"0.0-5.0-41.0"},{"rt":56005.5,"responses":"{\"pregunta5\":\"c) La escritura plasma los mejores momentos de los viajes.\"}","question_order":"[0]","trial_type":"survey-multi-choice","trial_index":47,"time_elapsed":14474877,"internal_node_id":"0.0-5.0-42.0"},{"rt":917.0999999940395,"response":{"pregunta5 likert":2},"question_order":[0],"trial_type":"survey-likert","trial_index":48,"time_elapsed":14475797,"internal_node_id":"0.0-5.0-43.0"},{"rt":96189.40000000596,"responses":"{\"pregunta4\":\"a) En la literatura como en la vida, lo importante son las preguntas.\"}","question_order":"[0]","trial_type":"survey-multi-choice","trial_index":49,"time_elapsed":14571989,"internal_node_id":"0.0-5.0-44.0"},{"rt":1637.2000000178814,"response":{"pregunta4 likert":3},"question_order":[0],"trial_type":"survey-likert","trial_index":50,"time_elapsed":14573629,"internal_node_id":"0.0-5.0-45.0"},{"rt":64309.90000000596,"responses":"{\"pregunta12\":\"d) Atraer a los turistas.\"}","question_order":"[0]","trial_type":"survey-multi-choice","trial_index":51,"time_elapsed":14637941,"internal_node_id":"0.0-5.0-46.0"},{"rt":3394.300000011921,"response":{"pregunta12 likert":2},"question_order":[0],"trial_type":"survey-likert","trial_index":52,"time_elapsed":14641341,"internal_node_id":"0.0-5.0-47.0"}]