[{"rt":20345.79999999999,"stimulus":"<h1 style=\"color:red; margin-top: 3%;\">¡Bienvenido(a)!</h1><p style=\"text-align:left; justify-content:space-between; margin-right: 5%; margin-left: 5%; margin-top: 5%\"> Antes de empezar el estudio, necesitamos que nos confirmes que estás de acuerdo con participar. Recuerda que tu participación es 100% voluntaria y que lo único que te pedimos es responder lo mejor que puedas. Recuerda también que el estudio incluye:</p><ol style=\"text-align:left; justify-content:space-between; margin-right: 5%; margin-left: 5%;\"><li> un ejercicio de resolución de preguntas de selección múltiple (30’),</li><li>un cuestionario breve (5’),</li><li>un juego muy breve (3’),</li></ol><p style=\"text-align:left; justify-content:space-between; margin-right: 5%; margin-left: 5%;\">Si quieres participar, haz clic en “Acepto” luego de leer lo siguiente:<br></p><p style=\"text-align:left; justify-content:space-between; margin-right: 5%; margin-left: 5%;\">Acepto participar en el estudio “Estrategias de lectura y resolución de preguntas de selección múltiple”, en los términos aquí señalados:<br></p><p style=\"text-align:left; justify-content:space-between; margin-right: 5%; margin-left: 5%;\"><a href=\"http://ciae.uchile.cl/download.php?file=noticias/Asentimiento.pdf\" target=\"_blank\">Link a la hoja de información del Consentimiento.</a></p><p style=\"text-align:left; justify-content:space-between; margin-right: 5%; margin-left: 5%;\">Declaro que he leído (o se me ha leído) y (he) comprendido, las condiciones de mi participación en este estudio. He tenido la oportunidad de hacer preguntas y éstas han sido respondidas. No tengo dudas al respecto.</p>","response":0,"condicion_MCQ":1,"condicion_JUEGO":13,"condicion_INTER":13,"numero_participante":85,"numero_version":1,"dimx":1366,"dimy":768,"color_profundidad":24,"pixel_profundidad":24,"Browser":"Google Chrome","dia":14,"mes":5,"hora":12,"minuto":48,"segundo":57,"trial_type":"html-button-response","trial_index":0,"time_elapsed":20353,"internal_node_id":"0.0-0.0"},{"success":true,"trial_type":"fullscreen","trial_index":1,"time_elapsed":28239,"internal_node_id":"0.0-1.0"},{"rt":105478.09999999998,"responses":"{\"Nombres\":\"Javier Nicolás\",\"Apellidos\":\"Sandoval Gajardo\",\"Edad\":\"18\",\"Sexo\":\"Hombre\",\"Curso\":\"Sección 218\",\"Colegio\":\"Universidad Andrés Bello\",\"Contacto\":\"sandojavier4@gmail.com\"}","trial_type":"survey-text","trial_index":2,"time_elapsed":133725,"internal_node_id":"0.0-2.0"},{"success":true,"timeout":false,"failed_images":[],"failed_audio":[],"failed_video":[],"trial_type":"preload","trial_index":3,"time_elapsed":136088,"internal_node_id":"0.0-3.0"},{"rt":18722.599999999977,"stimulus":"<h1 style:\"margin-top: 5%;\">Ejercicios de Comprensión de Lectura de la Universidad de Chile</h1><p style=\"font-size: 120%;\">En esta actividad, debes responder 24 preguntas de selección múltiple. Cada pregunta presenta 4 respuestas alternativas, pero sólo una de ellas es correcta. Por lo tanto, debes escoger una sola alternativa para cada pregunta. Además, debes reportar qué tan seguro(a) estás de la respuesta que das, con un:</p><ol style=\"font-size: 120%;text-align:left;margin-left: 40%;\"><li>No estoy seguro(a) para nada</li><li>No estoy muy seguro(a)</li><li>Estoy bastante seguro(a)</li><li>Estoy totalmente seguro(a)</li></ol><p style=\"font-size: 120%;\">Por favor lee bien los enunciados antes de responder. ¡Éxito!</p>","response":0,"trial_type":"html-button-response","trial_index":4,"time_elapsed":154812,"internal_node_id":"0.0-4.0"},{"rt":48158.5,"responses":"{\"pregunta17\":\"c) A la inexistencia de un recinto adecuado para el recital.\"}","question_order":"[0]","trial_type":"survey-multi-choice","trial_index":5,"time_elapsed":202977,"internal_node_id":"0.0-5.0-0.0"},{"rt":3357.8000000000466,"response":{"pregunta17 likert":3},"question_order":[0],"trial_type":"survey-likert","trial_index":6,"time_elapsed":206337,"internal_node_id":"0.0-5.0-1.0"},{"rt":35005.29999999993,"responses":"{\"pregunta23\":\"d) el jardinero estará muerto al día siguiente.\"}","question_order":"[0]","trial_type":"survey-multi-choice","trial_index":7,"time_elapsed":241345,"internal_node_id":"0.0-5.0-2.0"},{"rt":2109.899999999907,"response":{"pregunta23 likert":3},"question_order":[0],"trial_type":"survey-likert","trial_index":8,"time_elapsed":243457,"internal_node_id":"0.0-5.0-3.0"},{"rt":73157.8999999999,"responses":"{\"pregunta1\":\"a) Aportan informaciones con las que se reconstruye el personaje dentro de un relato.\"}","question_order":"[0]","trial_type":"survey-multi-choice","trial_index":9,"time_elapsed":316617,"internal_node_id":"0.0-5.0-4.0"},{"rt":2950.4000000000233,"response":{"pregunta1 likert":2},"question_order":[0],"trial_type":"survey-likert","trial_index":10,"time_elapsed":319569,"internal_node_id":"0.0-5.0-5.0"},{"rt":67278.20000000007,"responses":"{\"pregunta11\":\"d) Provocar el deseo de la adquisición vertiginosa.\"}","question_order":"[0]","trial_type":"survey-multi-choice","trial_index":11,"time_elapsed":386849,"internal_node_id":"0.0-5.0-6.0"},{"rt":1741.5999999999767,"response":{"pregunta11 likert":3},"question_order":[0],"trial_type":"survey-likert","trial_index":12,"time_elapsed":388592,"internal_node_id":"0.0-5.0-7.0"},{"rt":60271,"responses":"{\"pregunta7\":\"a) es una realidad discutida por algunos.\"}","question_order":"[0]","trial_type":"survey-multi-choice","trial_index":13,"time_elapsed":448865,"internal_node_id":"0.0-5.0-8.0"},{"rt":1518.3000000000466,"response":{"pregunta7 likert":3},"question_order":[0],"trial_type":"survey-likert","trial_index":14,"time_elapsed":450385,"internal_node_id":"0.0-5.0-9.0"},{"rt":58134.30000000005,"responses":"{\"pregunta9\":\"c) preparar los recuerdos del mañana.\"}","question_order":"[0]","trial_type":"survey-multi-choice","trial_index":15,"time_elapsed":508520,"internal_node_id":"0.0-5.0-10.0"},{"rt":1981.7000000000698,"response":{"pregunta9 likert":3},"question_order":[0],"trial_type":"survey-likert","trial_index":16,"time_elapsed":510503,"internal_node_id":"0.0-5.0-11.0"},{"rt":38878.69999999995,"responses":"{\"pregunta2\":\"b) A la relación entre civilización y sociedad.\"}","question_order":"[0]","trial_type":"survey-multi-choice","trial_index":17,"time_elapsed":549384,"internal_node_id":"0.0-5.0-12.0"},{"rt":2389.8000000000466,"response":{"pregunta2 likert":1},"question_order":[0],"trial_type":"survey-likert","trial_index":18,"time_elapsed":551776,"internal_node_id":"0.0-5.0-13.0"},{"rt":43518.20000000007,"responses":"{\"pregunta8\":\"c) El ser humano se comporta de acuerdo con las circunstancias.\"}","question_order":"[0]","trial_type":"survey-multi-choice","trial_index":19,"time_elapsed":595297,"internal_node_id":"0.0-5.0-14.0"},{"rt":1694.3999999999069,"response":{"pregunta8 likert":3},"question_order":[0],"trial_type":"survey-likert","trial_index":20,"time_elapsed":596993,"internal_node_id":"0.0-5.0-15.0"},{"rt":116958,"responses":"{\"pregunta5\":\"a) La escritura olvida los momentos insignificantes de los viajes.\"}","question_order":"[0]","trial_type":"survey-multi-choice","trial_index":21,"time_elapsed":713954,"internal_node_id":"0.0-5.0-16.0"},{"rt":1902.1000000000931,"response":{"pregunta5 likert":2},"question_order":[0],"trial_type":"survey-likert","trial_index":22,"time_elapsed":715857,"internal_node_id":"0.0-5.0-17.0"},{"rt":51278.10000000009,"responses":"{\"pregunta3\":\"c) Las grandes civilizaciones autóctonas.\"}","question_order":"[0]","trial_type":"survey-multi-choice","trial_index":23,"time_elapsed":767138,"internal_node_id":"0.0-5.0-18.0"},{"rt":2478,"response":{"pregunta3 likert":3},"question_order":[0],"trial_type":"survey-likert","trial_index":24,"time_elapsed":769618,"internal_node_id":"0.0-5.0-19.0"},{"rt":44750.09999999986,"responses":"{\"pregunta14\":\"a) el mejor emperador es el que está muerto.\"}","question_order":"[0]","trial_type":"survey-multi-choice","trial_index":25,"time_elapsed":814369,"internal_node_id":"0.0-5.0-20.0"},{"rt":1726.8000000000466,"response":{"pregunta14 likert":2},"question_order":[0],"trial_type":"survey-likert","trial_index":26,"time_elapsed":816098,"internal_node_id":"0.0-5.0-21.0"},{"rt":25350.399999999907,"responses":"{\"pregunta24\":\"c) la muerte es distinta en las grandes ciudades.\"}","question_order":"[0]","trial_type":"survey-multi-choice","trial_index":27,"time_elapsed":841449,"internal_node_id":"0.0-5.0-22.0"},{"rt":1310.3000000000466,"response":{"pregunta24 likert":3},"question_order":[0],"trial_type":"survey-likert","trial_index":28,"time_elapsed":842761,"internal_node_id":"0.0-5.0-23.0"},{"rt":40031.09999999986,"responses":"{\"pregunta13\":\"b) A la inutilidad de tanto esfuerzo si el objetivo es el reposo.\"}","question_order":"[0]","trial_type":"survey-multi-choice","trial_index":29,"time_elapsed":882793,"internal_node_id":"0.0-5.0-24.0"},{"rt":1718,"response":{"pregunta13 likert":2},"question_order":[0],"trial_type":"survey-likert","trial_index":30,"time_elapsed":884513,"internal_node_id":"0.0-5.0-25.0"},{"rt":43582.39999999991,"responses":"{\"pregunta10\":\"d) ritualistas y obsesivos.\"}","question_order":"[0]","trial_type":"survey-multi-choice","trial_index":31,"time_elapsed":928098,"internal_node_id":"0.0-5.0-26.0"},{"rt":1622.0999999998603,"response":{"pregunta10 likert":2},"question_order":[0],"trial_type":"survey-likert","trial_index":32,"time_elapsed":929722,"internal_node_id":"0.0-5.0-27.0"},{"rt":131662.29999999993,"responses":"{\"pregunta18\":\"b) El receptor es habitualmente pasivo frente a la publicidad.\"}","question_order":"[0]","trial_type":"survey-multi-choice","trial_index":33,"time_elapsed":1061386,"internal_node_id":"0.0-5.0-28.0"},{"rt":1333.9000000003725,"response":{"pregunta18 likert":2},"question_order":[0],"trial_type":"survey-likert","trial_index":34,"time_elapsed":1062722,"internal_node_id":"0.0-5.0-29.0"},{"rt":275341.8999999999,"responses":"{\"pregunta4\":\"c) En la literatura, el narrador expresa su voluntad de libertad.\"}","question_order":"[0]","trial_type":"survey-multi-choice","trial_index":35,"time_elapsed":1338066,"internal_node_id":"0.0-5.0-30.0"},{"rt":1614.6000000000931,"response":{"pregunta4 likert":3},"question_order":[0],"trial_type":"survey-likert","trial_index":36,"time_elapsed":1339683,"internal_node_id":"0.0-5.0-31.0"},{"rt":26701.69999999972,"responses":"{\"pregunta15\":\"d) la creación de elementos químicos artificiales ha resultado de la manipulación del uranio.\"}","question_order":"[0]","trial_type":"survey-multi-choice","trial_index":37,"time_elapsed":1366386,"internal_node_id":"0.0-5.0-32.0"},{"rt":1373.3999999999069,"response":{"pregunta15 likert":1},"question_order":[0],"trial_type":"survey-likert","trial_index":38,"time_elapsed":1367762,"internal_node_id":"0.0-5.0-33.0"},{"rt":89918.90000000037,"responses":"{\"pregunta6\":\"d) Presentar positivamente las diversas tendencias del diseño de interiores a través de un comentario.\"}","question_order":"[0]","trial_type":"survey-multi-choice","trial_index":39,"time_elapsed":1457682,"internal_node_id":"0.0-5.0-34.0"},{"rt":1221.8999999999069,"response":{"pregunta6 likert":3},"question_order":[0],"trial_type":"survey-likert","trial_index":40,"time_elapsed":1458906,"internal_node_id":"0.0-5.0-35.0"},{"rt":24349.899999999907,"responses":"{\"pregunta21\":\"d) El TLC causará una completa transformación de la economía chilena.\"}","question_order":"[0]","trial_type":"survey-multi-choice","trial_index":41,"time_elapsed":1483258,"internal_node_id":"0.0-5.0-36.0"},{"rt":1182.6000000000931,"response":{"pregunta21 likert":3},"question_order":[0],"trial_type":"survey-likert","trial_index":42,"time_elapsed":1484442,"internal_node_id":"0.0-5.0-37.0"},{"rt":49006.10000000009,"responses":"{\"pregunta19\":\"a) llevan un control grupal de su embarazo.\"}","question_order":"[0]","trial_type":"survey-multi-choice","trial_index":43,"time_elapsed":1533450,"internal_node_id":"0.0-5.0-38.0"},{"rt":2414.5,"response":{"pregunta19 likert":1},"question_order":[0],"trial_type":"survey-likert","trial_index":44,"time_elapsed":1535867,"internal_node_id":"0.0-5.0-39.0"},{"rt":29406.400000000373,"responses":"{\"pregunta16\":\"d) Bomberos necesita ser defendido de la injusticia social que reina en el país.\"}","question_order":"[0]","trial_type":"survey-multi-choice","trial_index":45,"time_elapsed":1565275,"internal_node_id":"0.0-5.0-40.0"},{"rt":1630.5,"response":{"pregunta16 likert":2},"question_order":[0],"trial_type":"survey-likert","trial_index":46,"time_elapsed":1566907,"internal_node_id":"0.0-5.0-41.0"},{"rt":96518.00000000047,"responses":"{\"pregunta12\":\"d) Homenajear a quienes murieron.\"}","question_order":"[0]","trial_type":"survey-multi-choice","trial_index":47,"time_elapsed":1663426,"internal_node_id":"0.0-5.0-42.0"},{"rt":1822.7999999998137,"response":{"pregunta12 likert":2},"question_order":[0],"trial_type":"survey-likert","trial_index":48,"time_elapsed":1665251,"internal_node_id":"0.0-5.0-43.0"},{"rt":63318.10000000009,"responses":"{\"pregunta20\":\"d) el hombre excesivo es inmoral.\"}","question_order":"[0]","trial_type":"survey-multi-choice","trial_index":49,"time_elapsed":1728571,"internal_node_id":"0.0-5.0-44.0"},{"rt":1685.8999999999069,"response":{"pregunta20 likert":2},"question_order":[0],"trial_type":"survey-likert","trial_index":50,"time_elapsed":1730259,"internal_node_id":"0.0-5.0-45.0"},{"rt":33021.89999999991,"responses":"{\"pregunta22\":\"a) El derecho a informar y el derecho a la privacidad son inconciliables.\"}","question_order":"[0]","trial_type":"survey-multi-choice","trial_index":51,"time_elapsed":1763283,"internal_node_id":"0.0-5.0-46.0"},{"rt":1310.3999999999069,"response":{"pregunta22 likert":3},"question_order":[0],"trial_type":"survey-likert","trial_index":52,"time_elapsed":1764595,"internal_node_id":"0.0-5.0-47.0"},{"rt":2995,"stimulus":"<p style=\"font-size: 120%\">Gracias por completar esta etapa del estudio. Ahora te invitamos a responder el cuestionario.<br><br></p>","response":0,"trial_type":"html-button-response","trial_index":53,"time_elapsed":1767595,"internal_node_id":"0.0-6.0"},{"rt":19677.5,"stimulus":"<h1 style=\"margin-top: 5%\">Cuestionario para la Evaluación de Metas Académicas</h1><p style=\"font-size: 120%; margin-left: 3%; margin-top: 5%\">Este es un cuestionario que permite conocer cuáles son los principales motivos por los que los estudiantes se esfuerzan en su trabajo académico. A continuación, se te presentarán una serie de afirmaciones acerca de los motivos que puedes tener para estudiar.<br>Te pedimos que contestes a dichas afirmaciones reflexionando sobre el contenido de cada una de ellas, que, aunque te parezcan semejantes, en realidad, no lo son.<br>NO HAY RESPUESTAS CORRECTAS o INCORRECTAS, sólo queremos que respondas con la mayor precisión y sinceridad posible a las preguntas que se plantean.","response":0,"trial_type":"html-button-response","trial_index":54,"time_elapsed":1787273,"internal_node_id":"0.0-7.0"},{"rt":71103.1000000001,"response":{"Metas cuestionario pregunta1":2,"Metas cuestionario pregunta2":4,"Metas cuestionario pregunta3":3,"Metas cuestionario pregunta4":2,"Metas cuestionario pregunta5":4,"Metas cuestionario pregunta6":2,"Metas cuestionario pregunta7":3,"Metas cuestionario pregunta8":3,"Metas cuestionario pregunta9":1,"Metas cuestionario pregunta10":0,"Metas cuestionario pregunta11":0,"Metas cuestionario pregunta12":1,"Metas cuestionario pregunta13":1,"Metas cuestionario pregunta14":0,"Metas cuestionario pregunta15":4,"Metas cuestionario pregunta16":2,"Metas cuestionario pregunta17":4,"Metas cuestionario pregunta18":4,"Metas cuestionario pregunta19":4,"Metas cuestionario pregunta20":4},"question_order":[0,1,2,3,4,5,6,7,8,9,10,11,12,13,14,15,16,17,18,19],"trial_type":"survey-likert","trial_index":55,"time_elapsed":1858382,"internal_node_id":"0.0-8.0"},{"rt":3271.7000000001863,"stimulus":"<p style=\"font-size: 120%\">Gracias por responder el cuestionario. Ahora te invitamos a seguir con el juego, que es muy breve.<br><br></p>","response":0,"trial_type":"html-button-response","trial_index":56,"time_elapsed":1861659,"internal_node_id":"0.0-9.0"},{"rt":8686.400000000373,"stimulus":"<h1>Juego</h1><p style=\"font-size: 120%;\">A continuación se te presentarán 16 pequeñas historias.<br>Por favor lee el texto presentado en cada una de ellas y luego haz click en el objeto de tu elección.<br>Si estás listo(a),<span style=\"color:red;\"> haz click en \"comenzar\"</span>.</p>","response":0,"trial_type":"html-button-response","trial_index":57,"time_elapsed":1870347,"internal_node_id":"0.0-10.0"},{"rt":9903.19999999972,"grid":[[1,1,1,1]],"target":[0,0],"response":[0,2],"correct":false,"juego":2,"trial_type":"serial-reaction-time-mouse","trial_index":58,"time_elapsed":1880252,"internal_node_id":"0.0-11.0-0.0"},{"rt":11710.899999999907,"grid":[[1,1,1,1]],"target":[0,0],"response":[0,2],"correct":false,"juego":8,"trial_type":"serial-reaction-time-mouse","trial_index":59,"time_elapsed":1891964,"internal_node_id":"0.0-11.0-1.0"},{"rt":8742.100000000093,"grid":[[1,1,1,1]],"target":[0,0],"response":[0,2],"correct":false,"juego":11,"trial_type":"serial-reaction-time-mouse","trial_index":60,"time_elapsed":1900708,"internal_node_id":"0.0-11.0-2.0"},{"rt":8693.899999999907,"grid":[[1,1,1,1]],"target":[0,0],"response":[0,0],"correct":true,"juego":12,"trial_type":"serial-reaction-time-mouse","trial_index":61,"time_elapsed":1909404,"internal_node_id":"0.0-11.0-3.0"},{"rt":6462.600000000093,"grid":[[1,1,1,1]],"target":[0,0],"response":[0,2],"correct":false,"juego":7,"trial_type":"serial-reaction-time-mouse","trial_index":62,"time_elapsed":1915869,"internal_node_id":"0.0-11.0-4.0"},{"rt":15890.700000000186,"grid":[[1,1,1,1],[1,1,1,1],[1,1,1,1],[1,1,1,1],[1,1,1,1],[1,1,1,1],[1,1,1,1],[1,1,1,1],[1,1,1,1]],"target":[0,0],"response":[7,2],"correct":false,"juego":15,"trial_type":"serial-reaction-time-mouse","trial_index":63,"time_elapsed":1931763,"internal_node_id":"0.0-11.0-5.0"},{"rt":2750.8000000002794,"grid":[[1],[1],[1],[1]],"target":[0,0],"response":[3,0],"correct":false,"juego":4,"trial_type":"serial-reaction-time-mouse","trial_index":64,"time_elapsed":1934515,"internal_node_id":"0.0-11.0-6.0"},{"rt":5814.100000000093,"grid":[[1,1,1,1],[1,1,1,1],[1,1,1,1],[1,1,1,1],[1,1,1,1],[1,1,1,1],[1,1,1,1],[1,1,1,1],[1,1,1,1]],"target":[0,0],"response":[3,2],"correct":false,"juego":14,"trial_type":"serial-reaction-time-mouse","trial_index":65,"time_elapsed":1940331,"internal_node_id":"0.0-11.0-7.0"},{"rt":5366.600000000093,"grid":[[1,1,1],[1,1,1],[1,1,1],[1,1,1],[1,1,1],[1,1,1],[1,1,1],[1,1,1],[1,1,1]],"target":[0,0],"response":[1,1],"correct":false,"juego":6,"trial_type":"serial-reaction-time-mouse","trial_index":66,"time_elapsed":1945700,"internal_node_id":"0.0-11.0-8.0"},{"rt":7013.300000000279,"grid":[[1,1,1],[1,1,1],[1,1,1],[1,1,1],[1,1,1],[1,1,1],[1,1,1],[1,1,1],[1,1,1]],"target":[0,0],"response":[1,2],"correct":false,"juego":10,"trial_type":"serial-reaction-time-mouse","trial_index":67,"time_elapsed":1952716,"internal_node_id":"0.0-11.0-9.0"},{"rt":7030.299999999814,"grid":[[1,1,1,1]],"target":[0,0],"response":[0,2],"correct":false,"juego":9,"trial_type":"serial-reaction-time-mouse","trial_index":68,"time_elapsed":1959749,"internal_node_id":"0.0-11.0-10.0"},{"rt":3508.600000000093,"grid":[[1,1,1,1]],"target":[0,0],"response":[0,2],"correct":false,"juego":1,"trial_type":"serial-reaction-time-mouse","trial_index":69,"time_elapsed":1963259,"internal_node_id":"0.0-11.0-11.0"},{"rt":5942.899999999907,"grid":[[1,1,1,1]],"target":[0,0],"response":[0,3],"correct":false,"juego":3,"trial_type":"serial-reaction-time-mouse","trial_index":70,"time_elapsed":1969204,"internal_node_id":"0.0-11.0-12.0"},{"rt":6374.399999999907,"grid":[[1,1,1],[1,1,1],[1,1,1],[1,1,1],[1,1,1],[1,1,1],[1,1,1],[1,1,1],[1,1,1]],"target":[0,0],"response":[1,1],"correct":false,"juego":13,"trial_type":"serial-reaction-time-mouse","trial_index":71,"time_elapsed":1975580,"internal_node_id":"0.0-11.0-13.0"},{"rt":6261.399999999907,"grid":[[1,1,1],[1,1,1],[1,1,1],[1,1,1],[1,1,1],[1,1,1],[1,1,1],[1,1,1],[1,1,1]],"target":[0,0],"response":[5,1],"correct":false,"juego":5,"trial_type":"serial-reaction-time-mouse","trial_index":72,"time_elapsed":1981845,"internal_node_id":"0.0-11.0-14.0"},{"rt":4084.100000000093,"stimulus":"<h1>Último juego</h1><p style=\"font-size: 130%;\">Tienes <span style=\"color:red\">25</span> segundos para recordar los pares de palabras que aparecerán a continuación. <br></p>","response":0,"trial_type":"html-button-response","trial_index":73,"time_elapsed":1985939,"internal_node_id":"0.0-12.0"},{"animation_sequence":[{"stimulus":"imagen_juego_interferencia.jpg","time":517.6000000000931},{"stimulus":"imagen_juego_interferencia.jpg","time":1002.8000000002794},{"stimulus":"imagen_juego_interferencia.jpg","time":1502.7000000001863},{"stimulus":"imagen_juego_interferencia.jpg","time":2006.8000000002794},{"stimulus":"imagen_juego_interferencia.jpg","time":2503.8000000002794},{"stimulus":"imagen_juego_interferencia.jpg","time":3008.4000000003725},{"stimulus":"imagen_juego_interferencia.jpg","time":3503},{"stimulus":"imagen_juego_interferencia.jpg","time":4003.9000000003725},{"stimulus":"imagen_juego_interferencia.jpg","time":4504},{"stimulus":"imagen_juego_interferencia.jpg","time":5006.800000000279},{"stimulus":"imagen_juego_interferencia.jpg","time":5509.600000000093},{"stimulus":"imagen_juego_interferencia.jpg","time":6007.200000000186},{"stimulus":"imagen_juego_interferencia.jpg","time":6502.600000000093},{"stimulus":"imagen_juego_interferencia.jpg","time":7003.700000000186},{"stimulus":"imagen_juego_interferencia.jpg","time":7503.600000000093},{"stimulus":"imagen_juego_interferencia.jpg","time":8004.600000000093},{"stimulus":"imagen_juego_interferencia.jpg","time":8510.700000000186},{"stimulus":"imagen_juego_interferencia.jpg","time":9007},{"stimulus":"imagen_juego_interferencia.jpg","time":9516.100000000093},{"stimulus":"imagen_juego_interferencia.jpg","time":10005.700000000186},{"stimulus":"imagen_juego_interferencia.jpg","time":10515.80000000028},{"stimulus":"imagen_juego_interferencia.jpg","time":11007.80000000028},{"stimulus":"imagen_juego_interferencia.jpg","time":11502.5},{"stimulus":"imagen_juego_interferencia.jpg","time":12009.100000000093},{"stimulus":"imagen_juego_interferencia.jpg","time":12501.200000000186},{"stimulus":"imagen_juego_interferencia.jpg","time":13000.80000000028},{"stimulus":"imagen_juego_interferencia.jpg","time":13504.30000000028},{"stimulus":"imagen_juego_interferencia.jpg","time":14008.200000000186},{"stimulus":"imagen_juego_interferencia.jpg","time":14506.30000000028},{"stimulus":"imagen_juego_interferencia.jpg","time":15002.400000000373},{"stimulus":"imagen_juego_interferencia.jpg","time":15516.700000000186},{"stimulus":"imagen_juego_interferencia.jpg","time":16005.900000000373},{"stimulus":"imagen_juego_interferencia.jpg","time":16501.5},{"stimulus":"imagen_juego_interferencia.jpg","time":17013.400000000373},{"stimulus":"imagen_juego_interferencia.jpg","time":17510.5},{"stimulus":"imagen_juego_interferencia.jpg","time":18008.700000000186},{"stimulus":"imagen_juego_interferencia.jpg","time":18517},{"stimulus":"imagen_juego_interferencia.jpg","time":19006.700000000186},{"stimulus":"imagen_juego_interferencia.jpg","time":19512.700000000186},{"stimulus":"imagen_juego_interferencia.jpg","time":20007.900000000373},{"stimulus":"imagen_juego_interferencia.jpg","time":20517.80000000028},{"stimulus":"imagen_juego_interferencia.jpg","time":21013.700000000186},{"stimulus":"imagen_juego_interferencia.jpg","time":21503.400000000373},{"stimulus":"imagen_juego_interferencia.jpg","time":22002.30000000028},{"stimulus":"imagen_juego_interferencia.jpg","time":22510.700000000186},{"stimulus":"imagen_juego_interferencia.jpg","time":23017.700000000186},{"stimulus":"imagen_juego_interferencia.jpg","time":23505.900000000373},{"stimulus":"imagen_juego_interferencia.jpg","time":24004.700000000186},{"stimulus":"imagen_juego_interferencia.jpg","time":24515.200000000186},{"stimulus":"imagen_juego_interferencia.jpg","time":25005.30000000028}],"response":[],"trial_type":"animation","trial_index":74,"time_elapsed":2011453,"internal_node_id":"0.0-13.0"},{"rt":11036.099999999627,"responses":"{\"pregunta interferencia3\":\"aluminio\"}","question_order":"[0]","trial_type":"survey-multi-choice-cuest","trial_index":75,"time_elapsed":2022491,"internal_node_id":"0.0-14.0-0.0"},{"rt":3181.7000000001863,"responses":"{\"pregunta interferencia1\":\"naranja\"}","question_order":"[0]","trial_type":"survey-multi-choice-cuest","trial_index":76,"time_elapsed":2025675,"internal_node_id":"0.0-14.0-1.0"},{"rt":6086.600000000093,"responses":"{\"pregunta interferencia2\":\"cucaracha\"}","question_order":"[0]","trial_type":"survey-multi-choice-cuest","trial_index":77,"time_elapsed":2031762,"internal_node_id":"0.0-14.0-2.0"},{"rt":5470,"responses":"{\"pregunta interferencia4\":\"contador\"}","question_order":"[0]","trial_type":"survey-multi-choice-cuest","trial_index":78,"time_elapsed":2037234,"internal_node_id":"0.0-14.0-3.0"},{"success":true,"trial_type":"fullscreen","trial_index":79,"time_elapsed":2038242,"internal_node_id":"0.0-15.0"},{"rt":18921.5,"responses":"{\"Telefono\":\"+56978836189\"}","trial_type":"survey-text","trial_index":80,"time_elapsed":2057169,"internal_node_id":"0.0-16.0"}]