[{"rt":19586.244999896735,"stimulus":"<h1 style=\"color:red; margin-top: 3%;\">¡Bienvenido(a)!</h1><p style=\"text-align:left; justify-content:space-between; margin-right: 5%; margin-left: 5%; margin-top: 5%\"> Antes de empezar el estudio, necesitamos que nos confirmes que estás de acuerdo con participar. Recuerda que tu participación es 100% voluntaria y que lo único que te pedimos es responder lo mejor que puedas. Recuerda también que el estudio incluye:</p><ol style=\"text-align:left; justify-content:space-between; margin-right: 5%; margin-left: 5%;\"><li> un ejercicio de resolución de preguntas de selección múltiple (30’),</li><li>un cuestionario breve (5’),</li><li>un juego muy breve (3’),</li></ol><p style=\"text-align:left; justify-content:space-between; margin-right: 5%; margin-left: 5%;\">Si quieres participar, haz clic en “Acepto” luego de leer lo siguiente:<br></p><p style=\"text-align:left; justify-content:space-between; margin-right: 5%; margin-left: 5%;\">Acepto participar en el estudio “Estrategias de lectura y resolución de preguntas de selección múltiple”, en los términos aquí señalados:<br></p><p style=\"text-align:left; justify-content:space-between; margin-right: 5%; margin-left: 5%;\"><a href=\"http://ciae.uchile.cl/download.php?file=noticias/Asentimiento.pdf\" target=\"_blank\">Link a la hoja de información del Consentimiento.</a></p><p style=\"text-align:left; justify-content:space-between; margin-right: 5%; margin-left: 5%;\">Declaro que he leído (o se me ha leído) y (he) comprendido, las condiciones de mi participación en este estudio. He tenido la oportunidad de hacer preguntas y éstas han sido respondidas. No tengo dudas al respecto.</p>","response":0,"condicion_MCQ":8,"condicion_JUEGO":8,"condicion_INTER":8,"numero_participante":8,"numero_version":1,"dimx":1536,"dimy":864,"color_profundidad":24,"pixel_profundidad":24,"Browser":"Google Chrome","dia":2,"mes":5,"hora":20,"minuto":7,"segundo":21,"trial_type":"html-button-response","trial_index":0,"time_elapsed":19591,"internal_node_id":"0.0-0.0"},{"success":true,"trial_type":"fullscreen","trial_index":1,"time_elapsed":56987,"internal_node_id":"0.0-1.0"},{"rt":155829.23500007018,"responses":"{\"Nombres\":\"Alexander Andres\",\"Apellidos\":\"Duran Milla\",\"Edad\":\"20\",\"Sexo\":\"Hombre\",\"Curso\":\"sección 205\",\"Colegio\":\"Universidad Andrés Bello\",\"Contacto\":\"alexander.duranmilla@gmail.com\"}","trial_type":"survey-text","trial_index":2,"time_elapsed":212850,"internal_node_id":"0.0-2.0"},{"success":true,"timeout":false,"failed_images":[],"failed_audio":[],"failed_video":[],"trial_type":"preload","trial_index":3,"time_elapsed":214934,"internal_node_id":"0.0-3.0"},{"rt":21529.164999723434,"stimulus":"<h1 style:\"margin-top: 5%;\">Ejercicios de Comprensión de Lectura de la Universidad de Chile</h1><p style=\"font-size: 120%;\">En esta actividad, debes responder 24 preguntas de selección múltiple. Cada pregunta presenta 4 respuestas alternativas, pero sólo una de ellas es correcta. Por lo tanto, debes escoger una sola alternativa para cada pregunta. Además, debes reportar qué tan seguro(a) estás de la respuesta que das, con un:</p><ol style=\"font-size: 120%;text-align:left;margin-left: 40%;\"><li>No estoy seguro(a) para nada</li><li>No estoy muy seguro(a)</li><li>Estoy bastante seguro(a)</li><li>Estoy totalmente seguro(a)</li></ol><p style=\"font-size: 120%;\">Por favor lee bien los enunciados antes de responder. ¡Éxito!</p>","response":0,"trial_type":"html-button-response","trial_index":4,"time_elapsed":236464,"internal_node_id":"0.0-4.0"},{"rt":76020.68000007421,"responses":"{\"pregunta14\":\"b) sólo las leyes bastan para gobernarse.\"}","question_order":"[0]","trial_type":"survey-multi-choice","trial_index":5,"time_elapsed":312492,"internal_node_id":"0.0-5.0-0.0"},{"rt":4554.059999994934,"response":{"pregunta14 likert":1},"question_order":[0],"trial_type":"survey-likert","trial_index":6,"time_elapsed":317050,"internal_node_id":"0.0-5.0-1.0"},{"rt":37690.684999804944,"responses":"{\"pregunta24\":\"a) la muerte es distinta en las grandes ciudades.\"}","question_order":"[0]","trial_type":"survey-multi-choice","trial_index":7,"time_elapsed":354741,"internal_node_id":"0.0-5.0-2.0"},{"rt":3465.1649999432266,"response":{"pregunta24 likert":1},"question_order":[0],"trial_type":"survey-likert","trial_index":8,"time_elapsed":358208,"internal_node_id":"0.0-5.0-3.0"},{"rt":66258.88000009581,"responses":"{\"pregunta22\":\"b) Se necesita un marco legal para delimitar lo público y lo privado en materia informativa.\"}","question_order":"[0]","trial_type":"survey-multi-choice","trial_index":9,"time_elapsed":424472,"internal_node_id":"0.0-5.0-4.0"},{"rt":2961.4399997517467,"response":{"pregunta22 likert":2},"question_order":[0],"trial_type":"survey-likert","trial_index":10,"time_elapsed":427436,"internal_node_id":"0.0-5.0-5.0"},{"rt":68507.77000002563,"responses":"{\"pregunta11\":\"b) Provocar el deseo de la adquisición vertiginosa.\"}","question_order":"[0]","trial_type":"survey-multi-choice","trial_index":11,"time_elapsed":495946,"internal_node_id":"0.0-5.0-6.0"},{"rt":4738.789999857545,"response":{"pregunta11 likert":3},"question_order":[0],"trial_type":"survey-likert","trial_index":12,"time_elapsed":500688,"internal_node_id":"0.0-5.0-7.0"},{"rt":70348.20000035688,"responses":"{\"pregunta7\":\"a) se da como existente, y sólo se discute su relación con el cuerpo.\"}","question_order":"[0]","trial_type":"survey-multi-choice","trial_index":13,"time_elapsed":571036,"internal_node_id":"0.0-5.0-8.0"},{"rt":3597.629999741912,"response":{"pregunta7 likert":1},"question_order":[0],"trial_type":"survey-likert","trial_index":14,"time_elapsed":574637,"internal_node_id":"0.0-5.0-9.0"},{"rt":66127.8900001198,"responses":"{\"pregunta12\":\"a) Atraer a los turistas.\"}","question_order":"[0]","trial_type":"survey-multi-choice","trial_index":15,"time_elapsed":640767,"internal_node_id":"0.0-5.0-10.0"},{"rt":2880.8749997988343,"response":{"pregunta12 likert":3},"question_order":[0],"trial_type":"survey-likert","trial_index":16,"time_elapsed":643650,"internal_node_id":"0.0-5.0-11.0"},{"rt":59441.45999988541,"responses":"{\"pregunta23\":\"b) el jardinero estará muerto al día siguiente.\"}","question_order":"[0]","trial_type":"survey-multi-choice","trial_index":17,"time_elapsed":703099,"internal_node_id":"0.0-5.0-12.0"},{"rt":3212.9549998790026,"response":{"pregunta23 likert":3},"question_order":[0],"trial_type":"survey-likert","trial_index":18,"time_elapsed":706314,"internal_node_id":"0.0-5.0-13.0"},{"rt":94575.52500022575,"responses":"{\"pregunta19\":\"a) sufren dolores de espalda.\"}","question_order":"[0]","trial_type":"survey-multi-choice","trial_index":19,"time_elapsed":800890,"internal_node_id":"0.0-5.0-14.0"},{"rt":2453.7899997085333,"response":{"pregunta19 likert":1},"question_order":[0],"trial_type":"survey-likert","trial_index":20,"time_elapsed":803347,"internal_node_id":"0.0-5.0-15.0"},{"rt":60343.90500001609,"responses":"{\"pregunta17\":\"d) A la influencia de grupos que rechazaban su música.\"}","question_order":"[0]","trial_type":"survey-multi-choice","trial_index":21,"time_elapsed":863694,"internal_node_id":"0.0-5.0-16.0"},{"rt":4420.105000026524,"response":{"pregunta17 likert":3},"question_order":[0],"trial_type":"survey-likert","trial_index":22,"time_elapsed":868116,"internal_node_id":"0.0-5.0-17.0"},{"rt":39595.304999966174,"responses":"{\"pregunta2\":\"c) A la relación entre pensamiento y estructura social.\"}","question_order":"[0]","trial_type":"survey-multi-choice","trial_index":23,"time_elapsed":907714,"internal_node_id":"0.0-5.0-18.0"},{"rt":2796.700000297278,"response":{"pregunta2 likert":0},"question_order":[0],"trial_type":"survey-likert","trial_index":24,"time_elapsed":910514,"internal_node_id":"0.0-5.0-19.0"},{"rt":59996.35000014678,"responses":"{\"pregunta18\":\"a) El receptor es habitualmente pasivo frente a la publicidad.\"}","question_order":"[0]","trial_type":"survey-multi-choice","trial_index":25,"time_elapsed":970508,"internal_node_id":"0.0-5.0-20.0"},{"rt":4944.95000038296,"response":{"pregunta18 likert":2},"question_order":[0],"trial_type":"survey-likert","trial_index":26,"time_elapsed":975455,"internal_node_id":"0.0-5.0-21.0"},{"rt":91982.07499971613,"responses":"{\"pregunta8\":\"b) Un asilo y un campo de concentración son instituciones similares.\"}","question_order":"[0]","trial_type":"survey-multi-choice","trial_index":27,"time_elapsed":1067445,"internal_node_id":"0.0-5.0-22.0"},{"rt":3911.840000189841,"response":{"pregunta8 likert":2},"question_order":[0],"trial_type":"survey-likert","trial_index":28,"time_elapsed":1071359,"internal_node_id":"0.0-5.0-23.0"},{"rt":36980.615000240505,"responses":"{\"pregunta9\":\"b) preparar los recuerdos del mañana.\"}","question_order":"[0]","trial_type":"survey-multi-choice","trial_index":29,"time_elapsed":1108338,"internal_node_id":"0.0-5.0-24.0"},{"rt":2595.334999728948,"response":{"pregunta9 likert":3},"question_order":[0],"trial_type":"survey-likert","trial_index":30,"time_elapsed":1110935,"internal_node_id":"0.0-5.0-25.0"},{"rt":41777.20500016585,"responses":"{\"pregunta5\":\"d) Los momentos triviales de los viajes, en la escritura se vuelven significativos.\"}","question_order":"[0]","trial_type":"survey-multi-choice","trial_index":31,"time_elapsed":1152715,"internal_node_id":"0.0-5.0-26.0"},{"rt":3632.244999986142,"response":{"pregunta5 likert":3},"question_order":[0],"trial_type":"survey-likert","trial_index":32,"time_elapsed":1156350,"internal_node_id":"0.0-5.0-27.0"},{"rt":42340.480000246316,"responses":"{\"pregunta3\":\"c) Las grandes civilizaciones autóctonas.\"}","question_order":"[0]","trial_type":"survey-multi-choice","trial_index":33,"time_elapsed":1198698,"internal_node_id":"0.0-5.0-28.0"},{"rt":3770.38999972865,"response":{"pregunta3 likert":3},"question_order":[0],"trial_type":"survey-likert","trial_index":34,"time_elapsed":1202472,"internal_node_id":"0.0-5.0-29.0"},{"rt":42539.45000004023,"responses":"{\"pregunta6\":\"d) Orientar la opción estética de un grupo de personas en lo que se refiere a la decoración de interiores.\"}","question_order":"[0]","trial_type":"survey-multi-choice","trial_index":35,"time_elapsed":1245013,"internal_node_id":"0.0-5.0-30.0"},{"rt":3489.479999989271,"response":{"pregunta6 likert":0},"question_order":[0],"trial_type":"survey-likert","trial_index":36,"time_elapsed":1248505,"internal_node_id":"0.0-5.0-31.0"},{"rt":60802.65499977395,"responses":"{\"pregunta4\":\"d) En la literatura como en la vida, lo importante son las preguntas.\"}","question_order":"[0]","trial_type":"survey-multi-choice","trial_index":37,"time_elapsed":1309306,"internal_node_id":"0.0-5.0-32.0"},{"rt":4243.0549999699,"response":{"pregunta4 likert":1},"question_order":[0],"trial_type":"survey-likert","trial_index":38,"time_elapsed":1313551,"internal_node_id":"0.0-5.0-33.0"},{"rt":49307.195000350475,"responses":"{\"pregunta10\":\"c) religiosos y precavidos.\"}","question_order":"[0]","trial_type":"survey-multi-choice","trial_index":39,"time_elapsed":1362864,"internal_node_id":"0.0-5.0-34.0"},{"rt":4103.434999939054,"response":{"pregunta10 likert":2},"question_order":[0],"trial_type":"survey-likert","trial_index":40,"time_elapsed":1366971,"internal_node_id":"0.0-5.0-35.0"},{"rt":20447.40500021726,"responses":"{\"pregunta21\":\"b) Nuestra economía vivirá un proceso de ajuste a la nueva realidad.\"}","question_order":"[0]","trial_type":"survey-multi-choice","trial_index":41,"time_elapsed":1387422,"internal_node_id":"0.0-5.0-36.0"},{"rt":3406.6600003279746,"response":{"pregunta21 likert":3},"question_order":[0],"trial_type":"survey-likert","trial_index":42,"time_elapsed":1390831,"internal_node_id":"0.0-5.0-37.0"},{"rt":38000.690000131726,"responses":"{\"pregunta15\":\"d) el uranio es el elemento natural con el mayor número de protones en el núcleo.\"}","question_order":"[0]","trial_type":"survey-multi-choice","trial_index":43,"time_elapsed":1428834,"internal_node_id":"0.0-5.0-38.0"},{"rt":4991.67999997735,"response":{"pregunta15 likert":2},"question_order":[0],"trial_type":"survey-likert","trial_index":44,"time_elapsed":1433828,"internal_node_id":"0.0-5.0-39.0"},{"rt":39716.13999968395,"responses":"{\"pregunta1\":\"c) Aportan informaciones con las que se reconstruye el personaje dentro de un relato.\"}","question_order":"[0]","trial_type":"survey-multi-choice","trial_index":45,"time_elapsed":1473547,"internal_node_id":"0.0-5.0-40.0"},{"rt":4510.900000110269,"response":{"pregunta1 likert":2},"question_order":[0],"trial_type":"survey-likert","trial_index":46,"time_elapsed":1478060,"internal_node_id":"0.0-5.0-41.0"},{"rt":44639.174999669194,"responses":"{\"pregunta20\":\"d) el sujeto sufre con su modo de vida.\"}","question_order":"[0]","trial_type":"survey-multi-choice","trial_index":47,"time_elapsed":1522703,"internal_node_id":"0.0-5.0-42.0"},{"rt":3060.999999754131,"response":{"pregunta20 likert":2},"question_order":[0],"trial_type":"survey-likert","trial_index":48,"time_elapsed":1525767,"internal_node_id":"0.0-5.0-43.0"},{"rt":36097.02999982983,"responses":"{\"pregunta13\":\"b) A la inutilidad de tanto esfuerzo si el objetivo es el reposo.\"}","question_order":"[0]","trial_type":"survey-multi-choice","trial_index":49,"time_elapsed":1561866,"internal_node_id":"0.0-5.0-44.0"},{"rt":3156.514999922365,"response":{"pregunta13 likert":3},"question_order":[0],"trial_type":"survey-likert","trial_index":50,"time_elapsed":1565028,"internal_node_id":"0.0-5.0-45.0"},{"rt":26781.220000237226,"responses":"{\"pregunta16\":\"d) Bomberos debería tener acceso a un seguro médico, al que pueda recurrir en caso de accidente.\"}","question_order":"[0]","trial_type":"survey-multi-choice","trial_index":51,"time_elapsed":1591808,"internal_node_id":"0.0-5.0-46.0"},{"rt":2828.7900001741946,"response":{"pregunta16 likert":3},"question_order":[0],"trial_type":"survey-likert","trial_index":52,"time_elapsed":1594640,"internal_node_id":"0.0-5.0-47.0"},{"rt":1483.140000142157,"stimulus":"<p style=\"font-size: 120%\">Gracias por completar esta etapa del estudio. Ahora te invitamos a responder el cuestionario.<br><br></p>","response":0,"trial_type":"html-button-response","trial_index":53,"time_elapsed":1596132,"internal_node_id":"0.0-6.0"},{"rt":24166.39000037685,"stimulus":"<h1 style=\"margin-top: 5%\">Cuestionario para la Evaluación de Metas Académicas</h1><p style=\"font-size: 120%; margin-left: 3%; margin-top: 5%\">Este es un cuestionario que permite conocer cuáles son los principales motivos por los que los estudiantes se esfuerzan en su trabajo académico. A continuación, se te presentarán una serie de afirmaciones acerca de los motivos que puedes tener para estudiar.<br>Te pedimos que contestes a dichas afirmaciones reflexionando sobre el contenido de cada una de ellas, que, aunque te parezcan semejantes, en realidad, no lo son.<br>NO HAY RESPUESTAS CORRECTAS o INCORRECTAS, sólo queremos que respondas con la mayor precisión y sinceridad posible a las preguntas que se plantean.","response":0,"trial_type":"html-button-response","trial_index":54,"time_elapsed":1620301,"internal_node_id":"0.0-7.0"},{"rt":115757.9600000754,"response":{"Metas cuestionario pregunta1":1,"Metas cuestionario pregunta2":2,"Metas cuestionario pregunta3":3,"Metas cuestionario pregunta4":0,"Metas cuestionario pregunta5":3,"Metas cuestionario pregunta6":3,"Metas cuestionario pregunta7":3,"Metas cuestionario pregunta8":3,"Metas cuestionario pregunta9":0,"Metas cuestionario pregunta10":0,"Metas cuestionario pregunta11":1,"Metas cuestionario pregunta12":3,"Metas cuestionario pregunta13":4,"Metas cuestionario pregunta14":0,"Metas cuestionario pregunta15":4,"Metas cuestionario pregunta16":4,"Metas cuestionario pregunta17":4,"Metas cuestionario pregunta18":4,"Metas cuestionario pregunta19":4,"Metas cuestionario pregunta20":4},"question_order":[0,1,2,3,4,5,6,7,8,9,10,11,12,13,14,15,16,17,18,19],"trial_type":"survey-likert","trial_index":55,"time_elapsed":1736065,"internal_node_id":"0.0-8.0"},{"rt":1894.8400001972914,"stimulus":"<p style=\"font-size: 120%\">Gracias por responder el cuestionario. Ahora te invitamos a seguir con el juego, que es muy breve.<br><br></p>","response":0,"trial_type":"html-button-response","trial_index":56,"time_elapsed":1737968,"internal_node_id":"0.0-9.0"},{"rt":6314.745000097901,"stimulus":"<h1>Juego</h1><p style=\"font-size: 120%;\">A continuación se te presentarán 16 pequeñas historias.<br>Por favor lee el texto presentado en cada una de ellas y luego haz click en el objeto de tu elección.<br>Si estás listo(a),<span style=\"color:red;\"> haz click en \"comenzar\"</span>.</p>","response":0,"trial_type":"html-button-response","trial_index":57,"time_elapsed":1744285,"internal_node_id":"0.0-10.0"},{"rt":9728.33999991417,"grid":[[1,1,1],[1,1,1],[1,1,1],[1,1,1],[1,1,1],[1,1,1],[1,1,1],[1,1,1],[1,1,1]],"target":[0,0],"response":[3,1],"correct":false,"juego":13,"trial_type":"serial-reaction-time-mouse","trial_index":58,"time_elapsed":1754018,"internal_node_id":"0.0-11.0-0.0"},{"rt":3903.8949999958277,"grid":[[1,1,1,1]],"target":[0,0],"response":[0,2],"correct":false,"juego":9,"trial_type":"serial-reaction-time-mouse","trial_index":59,"time_elapsed":1757927,"internal_node_id":"0.0-11.0-1.0"},{"rt":8039.700000081211,"grid":[[1,1,1,1]],"target":[0,0],"response":[0,0],"correct":true,"juego":3,"trial_type":"serial-reaction-time-mouse","trial_index":60,"time_elapsed":1765969,"internal_node_id":"0.0-11.0-2.0"},{"rt":6631.449999753386,"grid":[[1,1,1,1]],"target":[0,0],"response":[0,1],"correct":false,"juego":2,"trial_type":"serial-reaction-time-mouse","trial_index":61,"time_elapsed":1772602,"internal_node_id":"0.0-11.0-3.0"},{"rt":9209.770000074059,"grid":[[1,1,1,1]],"target":[0,0],"response":[0,0],"correct":true,"juego":11,"trial_type":"serial-reaction-time-mouse","trial_index":62,"time_elapsed":1781814,"internal_node_id":"0.0-11.0-4.0"},{"rt":4771.550000179559,"grid":[[1,1,1],[1,1,1],[1,1,1],[1,1,1],[1,1,1],[1,1,1],[1,1,1],[1,1,1],[1,1,1]],"target":[0,0],"response":[1,1],"correct":false,"juego":5,"trial_type":"serial-reaction-time-mouse","trial_index":63,"time_elapsed":1786589,"internal_node_id":"0.0-11.0-5.0"},{"rt":9051.055000163615,"grid":[[1,1,1,1]],"target":[0,0],"response":[0,2],"correct":false,"juego":12,"trial_type":"serial-reaction-time-mouse","trial_index":64,"time_elapsed":1795642,"internal_node_id":"0.0-11.0-6.0"},{"rt":9375.179999973625,"grid":[[1,1,1,1]],"target":[0,0],"response":[0,1],"correct":false,"juego":8,"trial_type":"serial-reaction-time-mouse","trial_index":65,"time_elapsed":1805018,"internal_node_id":"0.0-11.0-7.0"},{"rt":8356.670000124723,"grid":[[1,1,1,1],[1,1,1,1],[1,1,1,1],[1,1,1,1],[1,1,1,1],[1,1,1,1],[1,1,1,1],[1,1,1,1],[1,1,1,1]],"target":[0,0],"response":[3,2],"correct":false,"juego":15,"trial_type":"serial-reaction-time-mouse","trial_index":66,"time_elapsed":1813378,"internal_node_id":"0.0-11.0-8.0"},{"rt":3086.505000013858,"grid":[[1,1,1],[1,1,1],[1,1,1],[1,1,1],[1,1,1],[1,1,1],[1,1,1],[1,1,1],[1,1,1]],"target":[0,0],"response":[1,1],"correct":false,"juego":6,"trial_type":"serial-reaction-time-mouse","trial_index":67,"time_elapsed":1816467,"internal_node_id":"0.0-11.0-9.0"},{"rt":5414.67500012368,"grid":[[1,1,1,1]],"target":[0,0],"response":[0,0],"correct":true,"juego":1,"trial_type":"serial-reaction-time-mouse","trial_index":68,"time_elapsed":1821883,"internal_node_id":"0.0-11.0-10.0"},{"rt":1510.8599998056889,"grid":[[1],[1],[1],[1]],"target":[0,0],"response":[0,0],"correct":true,"juego":4,"trial_type":"serial-reaction-time-mouse","trial_index":69,"time_elapsed":1823396,"internal_node_id":"0.0-11.0-11.0"},{"rt":7717.79500041157,"grid":[[1,1,1,1],[1,1,1,1],[1,1,1,1],[1,1,1,1],[1,1,1,1],[1,1,1,1],[1,1,1,1],[1,1,1,1],[1,1,1,1]],"target":[0,0],"response":[3,1],"correct":false,"juego":14,"trial_type":"serial-reaction-time-mouse","trial_index":70,"time_elapsed":1831117,"internal_node_id":"0.0-11.0-12.0"},{"rt":7573.0449999682605,"grid":[[1,1,1,1]],"target":[0,0],"response":[0,2],"correct":false,"juego":7,"trial_type":"serial-reaction-time-mouse","trial_index":71,"time_elapsed":1838692,"internal_node_id":"0.0-11.0-13.0"},{"rt":4356.929999776185,"grid":[[1,1,1],[1,1,1],[1,1,1],[1,1,1],[1,1,1],[1,1,1],[1,1,1],[1,1,1],[1,1,1]],"target":[0,0],"response":[7,2],"correct":false,"juego":10,"trial_type":"serial-reaction-time-mouse","trial_index":72,"time_elapsed":1843053,"internal_node_id":"0.0-11.0-14.0"}]