[{"rt":20345.79999999999,"stimulus":"<h1 style=\"color:red; margin-top: 3%;\">¡Bienvenido(a)!</h1><p style=\"text-align:left; justify-content:space-between; margin-right: 5%; margin-left: 5%; margin-top: 5%\"> Antes de empezar el estudio, necesitamos que nos confirmes que estás de acuerdo con participar. Recuerda que tu participación es 100% voluntaria y que lo único que te pedimos es responder lo mejor que puedas. Recuerda también que el estudio incluye:</p><ol style=\"text-align:left; justify-content:space-between; margin-right: 5%; margin-left: 5%;\"><li> un ejercicio de resolución de preguntas de selección múltiple (30’),</li><li>un cuestionario breve (5’),</li><li>un juego muy breve (3’),</li></ol><p style=\"text-align:left; justify-content:space-between; margin-right: 5%; margin-left: 5%;\">Si quieres participar, haz clic en “Acepto” luego de leer lo siguiente:<br></p><p style=\"text-align:left; justify-content:space-between; margin-right: 5%; margin-left: 5%;\">Acepto participar en el estudio “Estrategias de lectura y resolución de preguntas de selección múltiple”, en los términos aquí señalados:<br></p><p style=\"text-align:left; justify-content:space-between; margin-right: 5%; margin-left: 5%;\"><a href=\"http://ciae.uchile.cl/download.php?file=noticias/Asentimiento.pdf\" target=\"_blank\">Link a la hoja de información del Consentimiento.</a></p><p style=\"text-align:left; justify-content:space-between; margin-right: 5%; margin-left: 5%;\">Declaro que he leído (o se me ha leído) y (he) comprendido, las condiciones de mi participación en este estudio. He tenido la oportunidad de hacer preguntas y éstas han sido respondidas. No tengo dudas al respecto.</p>","response":0,"condicion_MCQ":1,"condicion_JUEGO":13,"condicion_INTER":13,"numero_participante":85,"numero_version":1,"dimx":1366,"dimy":768,"color_profundidad":24,"pixel_profundidad":24,"Browser":"Google Chrome","dia":14,"mes":5,"hora":12,"minuto":48,"segundo":57,"trial_type":"html-button-response","trial_index":0,"time_elapsed":20353,"internal_node_id":"0.0-0.0"},{"success":true,"trial_type":"fullscreen","trial_index":1,"time_elapsed":28239,"internal_node_id":"0.0-1.0"},{"rt":105478.09999999998,"responses":"{\"Nombres\":\"Javier Nicolás\",\"Apellidos\":\"Sandoval Gajardo\",\"Edad\":\"18\",\"Sexo\":\"Hombre\",\"Curso\":\"Sección 218\",\"Colegio\":\"Universidad Andrés Bello\",\"Contacto\":\"sandojavier4@gmail.com\"}","trial_type":"survey-text","trial_index":2,"time_elapsed":133725,"internal_node_id":"0.0-2.0"},{"success":true,"timeout":false,"failed_images":[],"failed_audio":[],"failed_video":[],"trial_type":"preload","trial_index":3,"time_elapsed":136088,"internal_node_id":"0.0-3.0"},{"rt":18722.599999999977,"stimulus":"<h1 style:\"margin-top: 5%;\">Ejercicios de Comprensión de Lectura de la Universidad de Chile</h1><p style=\"font-size: 120%;\">En esta actividad, debes responder 24 preguntas de selección múltiple. Cada pregunta presenta 4 respuestas alternativas, pero sólo una de ellas es correcta. Por lo tanto, debes escoger una sola alternativa para cada pregunta. Además, debes reportar qué tan seguro(a) estás de la respuesta que das, con un:</p><ol style=\"font-size: 120%;text-align:left;margin-left: 40%;\"><li>No estoy seguro(a) para nada</li><li>No estoy muy seguro(a)</li><li>Estoy bastante seguro(a)</li><li>Estoy totalmente seguro(a)</li></ol><p style=\"font-size: 120%;\">Por favor lee bien los enunciados antes de responder. ¡Éxito!</p>","response":0,"trial_type":"html-button-response","trial_index":4,"time_elapsed":154812,"internal_node_id":"0.0-4.0"},{"rt":48158.5,"responses":"{\"pregunta17\":\"c) A la inexistencia de un recinto adecuado para el recital.\"}","question_order":"[0]","trial_type":"survey-multi-choice","trial_index":5,"time_elapsed":202977,"internal_node_id":"0.0-5.0-0.0"},{"rt":3357.8000000000466,"response":{"pregunta17 likert":3},"question_order":[0],"trial_type":"survey-likert","trial_index":6,"time_elapsed":206337,"internal_node_id":"0.0-5.0-1.0"},{"rt":35005.29999999993,"responses":"{\"pregunta23\":\"d) el jardinero estará muerto al día siguiente.\"}","question_order":"[0]","trial_type":"survey-multi-choice","trial_index":7,"time_elapsed":241345,"internal_node_id":"0.0-5.0-2.0"},{"rt":2109.899999999907,"response":{"pregunta23 likert":3},"question_order":[0],"trial_type":"survey-likert","trial_index":8,"time_elapsed":243457,"internal_node_id":"0.0-5.0-3.0"},{"rt":73157.8999999999,"responses":"{\"pregunta1\":\"a) Aportan informaciones con las que se reconstruye el personaje dentro de un relato.\"}","question_order":"[0]","trial_type":"survey-multi-choice","trial_index":9,"time_elapsed":316617,"internal_node_id":"0.0-5.0-4.0"},{"rt":2950.4000000000233,"response":{"pregunta1 likert":2},"question_order":[0],"trial_type":"survey-likert","trial_index":10,"time_elapsed":319569,"internal_node_id":"0.0-5.0-5.0"},{"rt":67278.20000000007,"responses":"{\"pregunta11\":\"d) Provocar el deseo de la adquisición vertiginosa.\"}","question_order":"[0]","trial_type":"survey-multi-choice","trial_index":11,"time_elapsed":386849,"internal_node_id":"0.0-5.0-6.0"},{"rt":1741.5999999999767,"response":{"pregunta11 likert":3},"question_order":[0],"trial_type":"survey-likert","trial_index":12,"time_elapsed":388592,"internal_node_id":"0.0-5.0-7.0"},{"rt":60271,"responses":"{\"pregunta7\":\"a) es una realidad discutida por algunos.\"}","question_order":"[0]","trial_type":"survey-multi-choice","trial_index":13,"time_elapsed":448865,"internal_node_id":"0.0-5.0-8.0"},{"rt":1518.3000000000466,"response":{"pregunta7 likert":3},"question_order":[0],"trial_type":"survey-likert","trial_index":14,"time_elapsed":450385,"internal_node_id":"0.0-5.0-9.0"},{"rt":58134.30000000005,"responses":"{\"pregunta9\":\"c) preparar los recuerdos del mañana.\"}","question_order":"[0]","trial_type":"survey-multi-choice","trial_index":15,"time_elapsed":508520,"internal_node_id":"0.0-5.0-10.0"},{"rt":1981.7000000000698,"response":{"pregunta9 likert":3},"question_order":[0],"trial_type":"survey-likert","trial_index":16,"time_elapsed":510503,"internal_node_id":"0.0-5.0-11.0"},{"rt":38878.69999999995,"responses":"{\"pregunta2\":\"b) A la relación entre civilización y sociedad.\"}","question_order":"[0]","trial_type":"survey-multi-choice","trial_index":17,"time_elapsed":549384,"internal_node_id":"0.0-5.0-12.0"},{"rt":2389.8000000000466,"response":{"pregunta2 likert":1},"question_order":[0],"trial_type":"survey-likert","trial_index":18,"time_elapsed":551776,"internal_node_id":"0.0-5.0-13.0"},{"rt":43518.20000000007,"responses":"{\"pregunta8\":\"c) El ser humano se comporta de acuerdo con las circunstancias.\"}","question_order":"[0]","trial_type":"survey-multi-choice","trial_index":19,"time_elapsed":595297,"internal_node_id":"0.0-5.0-14.0"},{"rt":1694.3999999999069,"response":{"pregunta8 likert":3},"question_order":[0],"trial_type":"survey-likert","trial_index":20,"time_elapsed":596993,"internal_node_id":"0.0-5.0-15.0"},{"rt":116958,"responses":"{\"pregunta5\":\"a) La escritura olvida los momentos insignificantes de los viajes.\"}","question_order":"[0]","trial_type":"survey-multi-choice","trial_index":21,"time_elapsed":713954,"internal_node_id":"0.0-5.0-16.0"},{"rt":1902.1000000000931,"response":{"pregunta5 likert":2},"question_order":[0],"trial_type":"survey-likert","trial_index":22,"time_elapsed":715857,"internal_node_id":"0.0-5.0-17.0"},{"rt":51278.10000000009,"responses":"{\"pregunta3\":\"c) Las grandes civilizaciones autóctonas.\"}","question_order":"[0]","trial_type":"survey-multi-choice","trial_index":23,"time_elapsed":767138,"internal_node_id":"0.0-5.0-18.0"},{"rt":2478,"response":{"pregunta3 likert":3},"question_order":[0],"trial_type":"survey-likert","trial_index":24,"time_elapsed":769618,"internal_node_id":"0.0-5.0-19.0"},{"rt":44750.09999999986,"responses":"{\"pregunta14\":\"a) el mejor emperador es el que está muerto.\"}","question_order":"[0]","trial_type":"survey-multi-choice","trial_index":25,"time_elapsed":814369,"internal_node_id":"0.0-5.0-20.0"},{"rt":1726.8000000000466,"response":{"pregunta14 likert":2},"question_order":[0],"trial_type":"survey-likert","trial_index":26,"time_elapsed":816098,"internal_node_id":"0.0-5.0-21.0"},{"rt":25350.399999999907,"responses":"{\"pregunta24\":\"c) la muerte es distinta en las grandes ciudades.\"}","question_order":"[0]","trial_type":"survey-multi-choice","trial_index":27,"time_elapsed":841449,"internal_node_id":"0.0-5.0-22.0"},{"rt":1310.3000000000466,"response":{"pregunta24 likert":3},"question_order":[0],"trial_type":"survey-likert","trial_index":28,"time_elapsed":842761,"internal_node_id":"0.0-5.0-23.0"},{"rt":40031.09999999986,"responses":"{\"pregunta13\":\"b) A la inutilidad de tanto esfuerzo si el objetivo es el reposo.\"}","question_order":"[0]","trial_type":"survey-multi-choice","trial_index":29,"time_elapsed":882793,"internal_node_id":"0.0-5.0-24.0"},{"rt":1718,"response":{"pregunta13 likert":2},"question_order":[0],"trial_type":"survey-likert","trial_index":30,"time_elapsed":884513,"internal_node_id":"0.0-5.0-25.0"},{"rt":43582.39999999991,"responses":"{\"pregunta10\":\"d) ritualistas y obsesivos.\"}","question_order":"[0]","trial_type":"survey-multi-choice","trial_index":31,"time_elapsed":928098,"internal_node_id":"0.0-5.0-26.0"},{"rt":1622.0999999998603,"response":{"pregunta10 likert":2},"question_order":[0],"trial_type":"survey-likert","trial_index":32,"time_elapsed":929722,"internal_node_id":"0.0-5.0-27.0"},{"rt":131662.29999999993,"responses":"{\"pregunta18\":\"b) El receptor es habitualmente pasivo frente a la publicidad.\"}","question_order":"[0]","trial_type":"survey-multi-choice","trial_index":33,"time_elapsed":1061386,"internal_node_id":"0.0-5.0-28.0"},{"rt":1333.9000000003725,"response":{"pregunta18 likert":2},"question_order":[0],"trial_type":"survey-likert","trial_index":34,"time_elapsed":1062722,"internal_node_id":"0.0-5.0-29.0"},{"rt":275341.8999999999,"responses":"{\"pregunta4\":\"c) En la literatura, el narrador expresa su voluntad de libertad.\"}","question_order":"[0]","trial_type":"survey-multi-choice","trial_index":35,"time_elapsed":1338066,"internal_node_id":"0.0-5.0-30.0"},{"rt":1614.6000000000931,"response":{"pregunta4 likert":3},"question_order":[0],"trial_type":"survey-likert","trial_index":36,"time_elapsed":1339683,"internal_node_id":"0.0-5.0-31.0"},{"rt":26701.69999999972,"responses":"{\"pregunta15\":\"d) la creación de elementos químicos artificiales ha resultado de la manipulación del uranio.\"}","question_order":"[0]","trial_type":"survey-multi-choice","trial_index":37,"time_elapsed":1366386,"internal_node_id":"0.0-5.0-32.0"},{"rt":1373.3999999999069,"response":{"pregunta15 likert":1},"question_order":[0],"trial_type":"survey-likert","trial_index":38,"time_elapsed":1367762,"internal_node_id":"0.0-5.0-33.0"},{"rt":89918.90000000037,"responses":"{\"pregunta6\":\"d) Presentar positivamente las diversas tendencias del diseño de interiores a través de un comentario.\"}","question_order":"[0]","trial_type":"survey-multi-choice","trial_index":39,"time_elapsed":1457682,"internal_node_id":"0.0-5.0-34.0"},{"rt":1221.8999999999069,"response":{"pregunta6 likert":3},"question_order":[0],"trial_type":"survey-likert","trial_index":40,"time_elapsed":1458906,"internal_node_id":"0.0-5.0-35.0"},{"rt":24349.899999999907,"responses":"{\"pregunta21\":\"d) El TLC causará una completa transformación de la economía chilena.\"}","question_order":"[0]","trial_type":"survey-multi-choice","trial_index":41,"time_elapsed":1483258,"internal_node_id":"0.0-5.0-36.0"},{"rt":1182.6000000000931,"response":{"pregunta21 likert":3},"question_order":[0],"trial_type":"survey-likert","trial_index":42,"time_elapsed":1484442,"internal_node_id":"0.0-5.0-37.0"},{"rt":49006.10000000009,"responses":"{\"pregunta19\":\"a) llevan un control grupal de su embarazo.\"}","question_order":"[0]","trial_type":"survey-multi-choice","trial_index":43,"time_elapsed":1533450,"internal_node_id":"0.0-5.0-38.0"},{"rt":2414.5,"response":{"pregunta19 likert":1},"question_order":[0],"trial_type":"survey-likert","trial_index":44,"time_elapsed":1535867,"internal_node_id":"0.0-5.0-39.0"},{"rt":29406.400000000373,"responses":"{\"pregunta16\":\"d) Bomberos necesita ser defendido de la injusticia social que reina en el país.\"}","question_order":"[0]","trial_type":"survey-multi-choice","trial_index":45,"time_elapsed":1565275,"internal_node_id":"0.0-5.0-40.0"},{"rt":1630.5,"response":{"pregunta16 likert":2},"question_order":[0],"trial_type":"survey-likert","trial_index":46,"time_elapsed":1566907,"internal_node_id":"0.0-5.0-41.0"},{"rt":96518.00000000047,"responses":"{\"pregunta12\":\"d) Homenajear a quienes murieron.\"}","question_order":"[0]","trial_type":"survey-multi-choice","trial_index":47,"time_elapsed":1663426,"internal_node_id":"0.0-5.0-42.0"},{"rt":1822.7999999998137,"response":{"pregunta12 likert":2},"question_order":[0],"trial_type":"survey-likert","trial_index":48,"time_elapsed":1665251,"internal_node_id":"0.0-5.0-43.0"},{"rt":63318.10000000009,"responses":"{\"pregunta20\":\"d) el hombre excesivo es inmoral.\"}","question_order":"[0]","trial_type":"survey-multi-choice","trial_index":49,"time_elapsed":1728571,"internal_node_id":"0.0-5.0-44.0"},{"rt":1685.8999999999069,"response":{"pregunta20 likert":2},"question_order":[0],"trial_type":"survey-likert","trial_index":50,"time_elapsed":1730259,"internal_node_id":"0.0-5.0-45.0"},{"rt":33021.89999999991,"responses":"{\"pregunta22\":\"a) El derecho a informar y el derecho a la privacidad son inconciliables.\"}","question_order":"[0]","trial_type":"survey-multi-choice","trial_index":51,"time_elapsed":1763283,"internal_node_id":"0.0-5.0-46.0"},{"rt":1310.3999999999069,"response":{"pregunta22 likert":3},"question_order":[0],"trial_type":"survey-likert","trial_index":52,"time_elapsed":1764595,"internal_node_id":"0.0-5.0-47.0"}]