[{"rt":14816.74500007648,"stimulus":"<h1 style=\"color:red; margin-top: 3%;\">¡Bienvenido(a)!</h1><p style=\"text-align:left; justify-content:space-between; margin-right: 5%; margin-left: 5%; margin-top: 5%\"> Antes de empezar el estudio, necesitamos que nos confirmes que estás de acuerdo con participar. Recuerda que tu participación es 100% voluntaria y que lo único que te pedimos es responder lo mejor que puedas. Recuerda también que el estudio incluye:</p><ol style=\"text-align:left; justify-content:space-between; margin-right: 5%; margin-left: 5%;\"><li> un ejercicio de resolución de preguntas de selección múltiple (30’),</li><li>un cuestionario breve (5’),</li><li>un juego muy breve (3’),</li></ol><p style=\"text-align:left; justify-content:space-between; margin-right: 5%; margin-left: 5%;\">Si quieres participar, haz clic en “Acepto” luego de leer lo siguiente:<br></p><p style=\"text-align:left; justify-content:space-between; margin-right: 5%; margin-left: 5%;\">Acepto participar en el estudio “Estrategias de lectura y resolución de preguntas de selección múltiple”, en los términos aquí señalados:<br></p><p style=\"text-align:left; justify-content:space-between; margin-right: 5%; margin-left: 5%;\"><a href=\"http://ciae.uchile.cl/download.php?file=noticias/Asentimiento.pdf\" target=\"_blank\">Link a la hoja de información del Consentimiento.</a></p><p style=\"text-align:left; justify-content:space-between; margin-right: 5%; margin-left: 5%;\">Declaro que he leído (o se me ha leído) y (he) comprendido, las condiciones de mi participación en este estudio. He tenido la oportunidad de hacer preguntas y éstas han sido respondidas. No tengo dudas al respecto.</p>","response":0,"condicion_MCQ":9,"condicion_JUEGO":21,"condicion_INTER":21,"numero_participante":21,"numero_version":1,"dimx":1920,"dimy":1080,"color_profundidad":24,"pixel_profundidad":24,"Browser":"Google Chrome","dia":3,"mes":5,"hora":8,"minuto":58,"segundo":20,"trial_type":"html-button-response","trial_index":0,"time_elapsed":14820,"internal_node_id":"0.0-0.0"},{"success":true,"trial_type":"fullscreen","trial_index":1,"time_elapsed":42244,"internal_node_id":"0.0-1.0"},{"rt":83318.77499993425,"responses":"{\"Nombres\":\"Benjamín Emilio\",\"Apellidos\":\"Fernández Ruiz\",\"Edad\":\"21\",\"Sexo\":\"hombre\",\"Curso\":\"sección 204\",\"Colegio\":\"U Andres Bello\",\"Contacto\":\"benjaminfernandez1999@gmail.com\"}","trial_type":"survey-text","trial_index":2,"time_elapsed":125569,"internal_node_id":"0.0-2.0"},{"success":true,"timeout":false,"failed_images":[],"failed_audio":[],"failed_video":[],"trial_type":"preload","trial_index":3,"time_elapsed":126572,"internal_node_id":"0.0-3.0"},{"rt":12172.61500004679,"stimulus":"<h1 style:\"margin-top: 5%;\">Ejercicios de Comprensión de Lectura de la Universidad de Chile</h1><p style=\"font-size: 120%;\">En esta actividad, debes responder 24 preguntas de selección múltiple. Cada pregunta presenta 4 respuestas alternativas, pero sólo una de ellas es correcta. Por lo tanto, debes escoger una sola alternativa para cada pregunta. Además, debes reportar qué tan seguro(a) estás de la respuesta que das, con un:</p><ol style=\"font-size: 120%;text-align:left;margin-left: 40%;\"><li>No estoy seguro(a) para nada</li><li>No estoy muy seguro(a)</li><li>Estoy bastante seguro(a)</li><li>Estoy totalmente seguro(a)</li></ol><p style=\"font-size: 120%;\">Por favor lee bien los enunciados antes de responder. ¡Éxito!</p>","response":0,"trial_type":"html-button-response","trial_index":4,"time_elapsed":138746,"internal_node_id":"0.0-4.0"},{"rt":128997.55500000902,"responses":"{\"pregunta8\":\"b) El ser humano se comporta de acuerdo con las circunstancias.\"}","question_order":"[0]","trial_type":"survey-multi-choice","trial_index":5,"time_elapsed":267745,"internal_node_id":"0.0-5.0-0.0"},{"rt":2718.1899999268353,"response":{"pregunta8 likert":2},"question_order":[0],"trial_type":"survey-likert","trial_index":6,"time_elapsed":270465,"internal_node_id":"0.0-5.0-1.0"},{"rt":132850.97999998834,"responses":"{\"pregunta7\":\"b) es un concepto introducido en la cultura por Platón.\"}","question_order":"[0]","trial_type":"survey-multi-choice","trial_index":7,"time_elapsed":403317,"internal_node_id":"0.0-5.0-2.0"},{"rt":1250.289999996312,"response":{"pregunta7 likert":3},"question_order":[0],"trial_type":"survey-likert","trial_index":8,"time_elapsed":404569,"internal_node_id":"0.0-5.0-3.0"},{"rt":179005.1000000676,"responses":"{\"pregunta18\":\"a) El receptor es habitualmente pasivo frente a la publicidad.\"}","question_order":"[0]","trial_type":"survey-multi-choice","trial_index":9,"time_elapsed":583575,"internal_node_id":"0.0-5.0-4.0"},{"rt":1754.4149999739602,"response":{"pregunta18 likert":3},"question_order":[0],"trial_type":"survey-likert","trial_index":10,"time_elapsed":585331,"internal_node_id":"0.0-5.0-5.0"},{"rt":147605.9200000018,"responses":"{\"pregunta12\":\"c) Homenajear a quienes murieron.\"}","question_order":"[0]","trial_type":"survey-multi-choice","trial_index":11,"time_elapsed":732938,"internal_node_id":"0.0-5.0-6.0"},{"rt":1381.5500000491738,"response":{"pregunta12 likert":3},"question_order":[0],"trial_type":"survey-likert","trial_index":12,"time_elapsed":734321,"internal_node_id":"0.0-5.0-7.0"},{"rt":280814.469999983,"responses":"{\"pregunta14\":\"d) el mejor emperador es el que está muerto.\"}","question_order":"[0]","trial_type":"survey-multi-choice","trial_index":13,"time_elapsed":1015136,"internal_node_id":"0.0-5.0-8.0"},{"rt":1426.1150000384077,"response":{"pregunta14 likert":3},"question_order":[0],"trial_type":"survey-likert","trial_index":14,"time_elapsed":1016564,"internal_node_id":"0.0-5.0-9.0"},{"rt":204139.45999997668,"responses":"{\"pregunta3\":\"d) El inicio de la civilización china.\"}","question_order":"[0]","trial_type":"survey-multi-choice","trial_index":15,"time_elapsed":1220704,"internal_node_id":"0.0-5.0-10.0"},{"rt":1026.5349999535829,"response":{"pregunta3 likert":3},"question_order":[0],"trial_type":"survey-likert","trial_index":16,"time_elapsed":1221732,"internal_node_id":"0.0-5.0-11.0"},{"rt":228564.37999999616,"responses":"{\"pregunta23\":\"a) la Muerte vaticina el futuro mediante gestos.\"}","question_order":"[0]","trial_type":"survey-multi-choice","trial_index":17,"time_elapsed":1450297,"internal_node_id":"0.0-5.0-12.0"},{"rt":1353.605000069365,"response":{"pregunta23 likert":1},"question_order":[0],"trial_type":"survey-likert","trial_index":18,"time_elapsed":1451652,"internal_node_id":"0.0-5.0-13.0"},{"rt":35425.450000097044,"responses":"{\"pregunta6\":\"a) Promover la asistencia a un evento específico de decoración a través de una atractiva descripción.\"}","question_order":"[0]","trial_type":"survey-multi-choice","trial_index":19,"time_elapsed":1487079,"internal_node_id":"0.0-5.0-14.0"},{"rt":1202.6300000725314,"response":{"pregunta6 likert":3},"question_order":[0],"trial_type":"survey-likert","trial_index":20,"time_elapsed":1488283,"internal_node_id":"0.0-5.0-15.0"},{"rt":47019.48000001721,"responses":"{\"pregunta11\":\"c) Provocar el deseo de la adquisición vertiginosa.\"}","question_order":"[0]","trial_type":"survey-multi-choice","trial_index":21,"time_elapsed":1535303,"internal_node_id":"0.0-5.0-16.0"},{"rt":1436.0800000140443,"response":{"pregunta11 likert":3},"question_order":[0],"trial_type":"survey-likert","trial_index":22,"time_elapsed":1536741,"internal_node_id":"0.0-5.0-17.0"},{"rt":35009.60500002839,"responses":"{\"pregunta13\":\"d) A la inutilidad de tanto esfuerzo si el objetivo es el reposo.\"}","question_order":"[0]","trial_type":"survey-multi-choice","trial_index":23,"time_elapsed":1571751,"internal_node_id":"0.0-5.0-18.0"},{"rt":1170.3399999532849,"response":{"pregunta13 likert":3},"question_order":[0],"trial_type":"survey-likert","trial_index":24,"time_elapsed":1572922,"internal_node_id":"0.0-5.0-19.0"},{"rt":24800.245000049472,"responses":"{\"pregunta21\":\"c) El TLC causará una completa transformación de la economía chilena.\"}","question_order":"[0]","trial_type":"survey-multi-choice","trial_index":25,"time_elapsed":1597724,"internal_node_id":"0.0-5.0-20.0"},{"rt":1132.9749999567866,"response":{"pregunta21 likert":3},"question_order":[0],"trial_type":"survey-likert","trial_index":26,"time_elapsed":1598858,"internal_node_id":"0.0-5.0-21.0"},{"rt":245928.8800000213,"responses":"{\"pregunta5\":\"d) En los viajes es esencial el momento mismo de la escritura.\"}","question_order":"[0]","trial_type":"survey-multi-choice","trial_index":27,"time_elapsed":1844788,"internal_node_id":"0.0-5.0-22.0"},{"rt":1110.6550000840798,"response":{"pregunta5 likert":1},"question_order":[0],"trial_type":"survey-likert","trial_index":28,"time_elapsed":1845900,"internal_node_id":"0.0-5.0-23.0"},{"rt":69559.85499999952,"responses":"{\"pregunta20\":\"b) para Aristóteles la virtud estaba en el justo equilibrio.\"}","question_order":"[0]","trial_type":"survey-multi-choice","trial_index":29,"time_elapsed":1915461,"internal_node_id":"0.0-5.0-24.0"},{"rt":1921.3650000747293,"response":{"pregunta20 likert":2},"question_order":[0],"trial_type":"survey-likert","trial_index":30,"time_elapsed":1917383,"internal_node_id":"0.0-5.0-25.0"},{"rt":31039.3299999414,"responses":"{\"pregunta22\":\"b) Se necesita un marco legal para delimitar lo público y lo privado en materia informativa.\"}","question_order":"[0]","trial_type":"survey-multi-choice","trial_index":31,"time_elapsed":1948424,"internal_node_id":"0.0-5.0-26.0"},{"rt":2423.729999922216,"response":{"pregunta22 likert":3},"question_order":[0],"trial_type":"survey-likert","trial_index":32,"time_elapsed":1950848,"internal_node_id":"0.0-5.0-27.0"},{"rt":26066.565000102855,"responses":"{\"pregunta15\":\"a) a partir de la manipulación del núcleo se han creado elementos químicos naturales.\"}","question_order":"[0]","trial_type":"survey-multi-choice","trial_index":33,"time_elapsed":1976916,"internal_node_id":"0.0-5.0-28.0"},{"rt":1572.4199999822304,"response":{"pregunta15 likert":2},"question_order":[0],"trial_type":"survey-likert","trial_index":34,"time_elapsed":1978490,"internal_node_id":"0.0-5.0-29.0"},{"rt":160885.61999995727,"responses":"{\"pregunta4\":\"a) En la literatura, el narrador expresa su voluntad de libertad.\"}","question_order":"[0]","trial_type":"survey-multi-choice","trial_index":35,"time_elapsed":2139376,"internal_node_id":"0.0-5.0-30.0"},{"rt":1129.8850000603124,"response":{"pregunta4 likert":3},"question_order":[0],"trial_type":"survey-likert","trial_index":36,"time_elapsed":2140507,"internal_node_id":"0.0-5.0-31.0"},{"rt":25704.619999974966,"responses":"{\"pregunta10\":\"b) ritualistas y obsesivos.\"}","question_order":"[0]","trial_type":"survey-multi-choice","trial_index":37,"time_elapsed":2166213,"internal_node_id":"0.0-5.0-32.0"},{"rt":1648.1999999377877,"response":{"pregunta10 likert":3},"question_order":[0],"trial_type":"survey-likert","trial_index":38,"time_elapsed":2167862,"internal_node_id":"0.0-5.0-33.0"},{"rt":47822.56000000052,"responses":"{\"pregunta17\":\"a) A la influencia de grupos que rechazaban su música.\"}","question_order":"[0]","trial_type":"survey-multi-choice","trial_index":39,"time_elapsed":2215685,"internal_node_id":"0.0-5.0-34.0"},{"rt":1403.485000017099,"response":{"pregunta17 likert":3},"question_order":[0],"trial_type":"survey-likert","trial_index":40,"time_elapsed":2217090,"internal_node_id":"0.0-5.0-35.0"},{"rt":43771.16500004195,"responses":"{\"pregunta2\":\"b) A la relación entre civilización y sociedad.\"}","question_order":"[0]","trial_type":"survey-multi-choice","trial_index":41,"time_elapsed":2260862,"internal_node_id":"0.0-5.0-36.0"},{"rt":1302.7199999196455,"response":{"pregunta2 likert":1},"question_order":[0],"trial_type":"survey-likert","trial_index":42,"time_elapsed":2262166,"internal_node_id":"0.0-5.0-37.0"},{"rt":162092.34500001185,"responses":"{\"pregunta9\":\"c) un recuerdo nostálgico.\"}","question_order":"[0]","trial_type":"survey-multi-choice","trial_index":43,"time_elapsed":2424259,"internal_node_id":"0.0-5.0-38.0"},{"rt":1206.8600000347942,"response":{"pregunta9 likert":2},"question_order":[0],"trial_type":"survey-likert","trial_index":44,"time_elapsed":2425467,"internal_node_id":"0.0-5.0-39.0"},{"rt":5968.899999978021,"responses":"{\"pregunta1\":\"c) Aportan informaciones con las que se reconstruye el personaje dentro de un relato.\"}","question_order":"[0]","trial_type":"survey-multi-choice","trial_index":45,"time_elapsed":2431437,"internal_node_id":"0.0-5.0-40.0"},{"rt":1082.1800000267103,"response":{"pregunta1 likert":2},"question_order":[0],"trial_type":"survey-likert","trial_index":46,"time_elapsed":2432520,"internal_node_id":"0.0-5.0-41.0"},{"rt":1713.4749999968335,"responses":"{\"pregunta19\":\"b) tienen dificultades durante el parto.\"}","question_order":"[0]","trial_type":"survey-multi-choice","trial_index":47,"time_elapsed":2434235,"internal_node_id":"0.0-5.0-42.0"},{"rt":854.1549999499694,"response":{"pregunta19 likert":2},"question_order":[0],"trial_type":"survey-likert","trial_index":48,"time_elapsed":2435090,"internal_node_id":"0.0-5.0-43.0"},{"rt":1556.0650000115857,"responses":"{\"pregunta24\":\"d) en Nueva York, París o Londres, la muerte es tema superado.\"}","question_order":"[0]","trial_type":"survey-multi-choice","trial_index":49,"time_elapsed":2436647,"internal_node_id":"0.0-5.0-44.0"},{"rt":1705.9750000480562,"response":{"pregunta24 likert":2},"question_order":[0],"trial_type":"survey-likert","trial_index":50,"time_elapsed":2438354,"internal_node_id":"0.0-5.0-45.0"},{"rt":1048.0800000950694,"responses":"{\"pregunta16\":\"c) Por el riesgo que corren diariamente, los bomberos deberían tener mejores condiciones de seguridad.\"}","question_order":"[0]","trial_type":"survey-multi-choice","trial_index":51,"time_elapsed":2439403,"internal_node_id":"0.0-5.0-46.0"},{"rt":1949.0699999732897,"response":{"pregunta16 likert":1},"question_order":[0],"trial_type":"survey-likert","trial_index":52,"time_elapsed":2441353,"internal_node_id":"0.0-5.0-47.0"},{"rt":2297.2749999025837,"stimulus":"<p style=\"font-size: 120%\">Gracias por completar esta etapa del estudio. Ahora te invitamos a responder el cuestionario.<br><br></p>","response":0,"trial_type":"html-button-response","trial_index":53,"time_elapsed":2443653,"internal_node_id":"0.0-6.0"},{"rt":3467.1399999642745,"stimulus":"<h1 style=\"margin-top: 5%\">Cuestionario para la Evaluación de Metas Académicas</h1><p style=\"font-size: 120%; margin-left: 3%; margin-top: 5%\">Este es un cuestionario que permite conocer cuáles son los principales motivos por los que los estudiantes se esfuerzan en su trabajo académico. A continuación, se te presentarán una serie de afirmaciones acerca de los motivos que puedes tener para estudiar.<br>Te pedimos que contestes a dichas afirmaciones reflexionando sobre el contenido de cada una de ellas, que, aunque te parezcan semejantes, en realidad, no lo son.<br>NO HAY RESPUESTAS CORRECTAS o INCORRECTAS, sólo queremos que respondas con la mayor precisión y sinceridad posible a las preguntas que se plantean.","response":0,"trial_type":"html-button-response","trial_index":54,"time_elapsed":2447121,"internal_node_id":"0.0-7.0"},{"rt":64636.96999999229,"response":{"Metas cuestionario pregunta1":3,"Metas cuestionario pregunta2":4,"Metas cuestionario pregunta3":4,"Metas cuestionario pregunta4":4,"Metas cuestionario pregunta5":3,"Metas cuestionario pregunta6":3,"Metas cuestionario pregunta7":3,"Metas cuestionario pregunta8":3,"Metas cuestionario pregunta9":1,"Metas cuestionario pregunta10":1,"Metas cuestionario pregunta11":1,"Metas cuestionario pregunta12":3,"Metas cuestionario pregunta13":2,"Metas cuestionario pregunta14":2,"Metas cuestionario pregunta15":3,"Metas cuestionario pregunta16":4,"Metas cuestionario pregunta17":4,"Metas cuestionario pregunta18":4,"Metas cuestionario pregunta19":4,"Metas cuestionario pregunta20":4},"question_order":[0,1,2,3,4,5,6,7,8,9,10,11,12,13,14,15,16,17,18,19],"trial_type":"survey-likert","trial_index":55,"time_elapsed":2511762,"internal_node_id":"0.0-8.0"}]