[{"rt":5502.800000011921,"stimulus":"<h1 style=\"color:red; margin-top: 3%;\">¡Bienvenido(a)!</h1><p style=\"text-align:left; justify-content:space-between; margin-right: 5%; margin-left: 5%; margin-top: 5%\"> Antes de empezar el estudio, necesitamos que nos confirmes que estás de acuerdo con participar. Recuerda que tu participación es 100% voluntaria y que lo único que te pedimos es responder lo mejor que puedas. Recuerda también que el estudio incluye:</p><ol style=\"text-align:left; justify-content:space-between; margin-right: 5%; margin-left: 5%;\"><li> un ejercicio de resolución de preguntas de selección múltiple (30’),</li><li>un cuestionario breve (5’),</li><li>un juego muy breve (3’),</li></ol><p style=\"text-align:left; justify-content:space-between; margin-right: 5%; margin-left: 5%;\">Si quieres participar, haz clic en “Acepto” luego de leer lo siguiente:<br></p><p style=\"text-align:left; justify-content:space-between; margin-right: 5%; margin-left: 5%;\">Acepto participar en el estudio “Estrategias de lectura y resolución de preguntas de selección múltiple”, en los términos aquí señalados:<br></p><p style=\"text-align:left; justify-content:space-between; margin-right: 5%; margin-left: 5%;\"><a href=\"http://ciae.uchile.cl/download.php?file=noticias/Asentimiento.pdf\" target=\"_blank\">Link a la hoja de información del Consentimiento.</a></p><p style=\"text-align:left; justify-content:space-between; margin-right: 5%; margin-left: 5%;\">Declaro que he leído (o se me ha leído) y (he) comprendido, las condiciones de mi participación en este estudio. He tenido la oportunidad de hacer preguntas y éstas han sido respondidas. No tengo dudas al respecto.</p>","response":0,"condicion_MCQ":5,"condicion_JUEGO":17,"condicion_INTER":17,"numero_participante":89,"numero_version":1,"dimx":1360,"dimy":768,"color_profundidad":24,"pixel_profundidad":24,"Browser":"Google Chrome","dia":14,"mes":5,"hora":21,"minuto":53,"segundo":10,"trial_type":"html-button-response","trial_index":0,"time_elapsed":5505,"internal_node_id":"0.0-0.0"},{"success":true,"trial_type":"fullscreen","trial_index":1,"time_elapsed":11448,"internal_node_id":"0.0-1.0"},{"rt":52383.79999999702,"responses":"{\"Nombres\":\"Marcelo Alberto\",\"Apellidos\":\"Morales Escudero\",\"Edad\":\"17\",\"Sexo\":\"Hombre\",\"Curso\":\"4to medio\",\"Colegio\":\"Salesianos Alameda\",\"Contacto\":\"marcelo.alberto178@gmail.com\"}","trial_type":"survey-text","trial_index":2,"time_elapsed":63839,"internal_node_id":"0.0-2.0"},{"success":true,"timeout":false,"failed_images":[],"failed_audio":[],"failed_video":[],"trial_type":"preload","trial_index":3,"time_elapsed":64924,"internal_node_id":"0.0-3.0"},{"rt":12207.39999999106,"stimulus":"<h1 style:\"margin-top: 5%;\">Ejercicios de Comprensión de Lectura de la Universidad de Chile</h1><p style=\"font-size: 120%;\">En esta actividad, debes responder 24 preguntas de selección múltiple. Cada pregunta presenta 4 respuestas alternativas, pero sólo una de ellas es correcta. Por lo tanto, debes escoger una sola alternativa para cada pregunta. Además, debes reportar qué tan seguro(a) estás de la respuesta que das, con un:</p><ol style=\"font-size: 120%;text-align:left;margin-left: 40%;\"><li>No estoy seguro(a) para nada</li><li>No estoy muy seguro(a)</li><li>Estoy bastante seguro(a)</li><li>Estoy totalmente seguro(a)</li></ol><p style=\"font-size: 120%;\">Por favor lee bien los enunciados antes de responder. ¡Éxito!</p>","response":0,"trial_type":"html-button-response","trial_index":4,"time_elapsed":77133,"internal_node_id":"0.0-4.0"},{"rt":50915.79999999702,"responses":"{\"pregunta24\":\"b) para el mexicano, la muerte es cotidiana.\"}","question_order":"[0]","trial_type":"survey-multi-choice","trial_index":5,"time_elapsed":128050,"internal_node_id":"0.0-5.0-0.0"},{"rt":10491.90000000596,"response":{"pregunta24 likert":1},"question_order":[0],"trial_type":"survey-likert","trial_index":6,"time_elapsed":138545,"internal_node_id":"0.0-5.0-1.0"},{"rt":155238.09999999404,"responses":"{\"pregunta17\":\"d) A la inexistencia de un recinto adecuado para el recital.\"}","question_order":"[0]","trial_type":"survey-multi-choice","trial_index":7,"time_elapsed":293786,"internal_node_id":"0.0-5.0-2.0"},{"rt":3332.9000000059605,"response":{"pregunta17 likert":1},"question_order":[0],"trial_type":"survey-likert","trial_index":8,"time_elapsed":297122,"internal_node_id":"0.0-5.0-3.0"},{"rt":76905.79999999702,"responses":"{\"pregunta23\":\"a) el jardinero estará muerto al día siguiente.\"}","question_order":"[0]","trial_type":"survey-multi-choice","trial_index":9,"time_elapsed":374030,"internal_node_id":"0.0-5.0-4.0"},{"rt":2477,"response":{"pregunta23 likert":3},"question_order":[0],"trial_type":"survey-likert","trial_index":10,"time_elapsed":376510,"internal_node_id":"0.0-5.0-5.0"},{"rt":46739.19999998808,"responses":"{\"pregunta15\":\"c) el uranio es el elemento natural con el mayor número de protones en el núcleo.\"}","question_order":"[0]","trial_type":"survey-multi-choice","trial_index":11,"time_elapsed":423252,"internal_node_id":"0.0-5.0-6.0"},{"rt":2309.9000000059605,"response":{"pregunta15 likert":3},"question_order":[0],"trial_type":"survey-likert","trial_index":12,"time_elapsed":425565,"internal_node_id":"0.0-5.0-7.0"},{"rt":129214.5,"responses":"{\"pregunta20\":\"d) para Aristóteles la virtud estaba en el justo equilibrio.\"}","question_order":"[0]","trial_type":"survey-multi-choice","trial_index":13,"time_elapsed":554782,"internal_node_id":"0.0-5.0-8.0"},{"rt":2716.7000000029802,"response":{"pregunta20 likert":3},"question_order":[0],"trial_type":"survey-likert","trial_index":14,"time_elapsed":557502,"internal_node_id":"0.0-5.0-9.0"},{"rt":126191.89999999106,"responses":"{\"pregunta19\":\"d) sufren dolores de espalda.\"}","question_order":"[0]","trial_type":"survey-multi-choice","trial_index":15,"time_elapsed":683696,"internal_node_id":"0.0-5.0-10.0"},{"rt":3348.800000011921,"response":{"pregunta19 likert":1},"question_order":[0],"trial_type":"survey-likert","trial_index":16,"time_elapsed":687048,"internal_node_id":"0.0-5.0-11.0"},{"rt":60361.79999999702,"responses":"{\"pregunta13\":\"c) A la inutilidad de tanto esfuerzo si el objetivo es el reposo.\"}","question_order":"[0]","trial_type":"survey-multi-choice","trial_index":17,"time_elapsed":747413,"internal_node_id":"0.0-5.0-12.0"},{"rt":6173.4000000059605,"response":{"pregunta13 likert":3},"question_order":[0],"trial_type":"survey-likert","trial_index":18,"time_elapsed":753589,"internal_node_id":"0.0-5.0-13.0"},{"rt":78416.79999999702,"responses":"{\"pregunta10\":\"a) ritualistas y obsesivos.\"}","question_order":"[0]","trial_type":"survey-multi-choice","trial_index":19,"time_elapsed":832009,"internal_node_id":"0.0-5.0-14.0"},{"rt":3613.7000000029802,"response":{"pregunta10 likert":3},"question_order":[0],"trial_type":"survey-likert","trial_index":20,"time_elapsed":835626,"internal_node_id":"0.0-5.0-15.0"},{"rt":47771.20000000298,"responses":"{\"pregunta3\":\"c) El inicio de la civilización china.\"}","question_order":"[0]","trial_type":"survey-multi-choice","trial_index":21,"time_elapsed":883400,"internal_node_id":"0.0-5.0-16.0"},{"rt":2555.8999999910593,"response":{"pregunta3 likert":3},"question_order":[0],"trial_type":"survey-likert","trial_index":22,"time_elapsed":885959,"internal_node_id":"0.0-5.0-17.0"},{"rt":101328.40000000596,"responses":"{\"pregunta4\":\"c) En la literatura como en la vida, lo importante son las preguntas.\"}","question_order":"[0]","trial_type":"survey-multi-choice","trial_index":23,"time_elapsed":987290,"internal_node_id":"0.0-5.0-18.0"},{"rt":3877.5,"response":{"pregunta4 likert":2},"question_order":[0],"trial_type":"survey-likert","trial_index":24,"time_elapsed":991171,"internal_node_id":"0.0-5.0-19.0"},{"rt":51849.29999999702,"responses":"{\"pregunta11\":\"a) Provocar el deseo de la adquisición vertiginosa.\"}","question_order":"[0]","trial_type":"survey-multi-choice","trial_index":25,"time_elapsed":1043023,"internal_node_id":"0.0-5.0-20.0"},{"rt":2076.4000000059605,"response":{"pregunta11 likert":3},"question_order":[0],"trial_type":"survey-likert","trial_index":26,"time_elapsed":1045103,"internal_node_id":"0.0-5.0-21.0"},{"rt":111128,"responses":"{\"pregunta2\":\"b) A la relación entre pensamiento y estructura social.\"}","question_order":"[0]","trial_type":"survey-multi-choice","trial_index":27,"time_elapsed":1156234,"internal_node_id":"0.0-5.0-22.0"},{"rt":2445.9000000059605,"response":{"pregunta2 likert":3},"question_order":[0],"trial_type":"survey-likert","trial_index":28,"time_elapsed":1158683,"internal_node_id":"0.0-5.0-23.0"},{"rt":73456.20000000298,"responses":"{\"pregunta7\":\"a) es un concepto introducido en la cultura por Platón.\"}","question_order":"[0]","trial_type":"survey-multi-choice","trial_index":29,"time_elapsed":1232143,"internal_node_id":"0.0-5.0-24.0"},{"rt":2204.7999999970198,"response":{"pregunta7 likert":2},"question_order":[0],"trial_type":"survey-likert","trial_index":30,"time_elapsed":1234350,"internal_node_id":"0.0-5.0-25.0"},{"rt":34803.89999999106,"responses":"{\"pregunta21\":\"c) El TLC puede traer más dificultades que progresos.\"}","question_order":"[0]","trial_type":"survey-multi-choice","trial_index":31,"time_elapsed":1269157,"internal_node_id":"0.0-5.0-26.0"},{"rt":1885,"response":{"pregunta21 likert":2},"question_order":[0],"trial_type":"survey-likert","trial_index":32,"time_elapsed":1271045,"internal_node_id":"0.0-5.0-27.0"},{"rt":37212.20000000298,"responses":"{\"pregunta12\":\"b) Homenajear a quienes murieron.\"}","question_order":"[0]","trial_type":"survey-multi-choice","trial_index":33,"time_elapsed":1308260,"internal_node_id":"0.0-5.0-28.0"},{"rt":2004.9000000059605,"response":{"pregunta12 likert":3},"question_order":[0],"trial_type":"survey-likert","trial_index":34,"time_elapsed":1310267,"internal_node_id":"0.0-5.0-29.0"},{"rt":54626.29999999702,"responses":"{\"pregunta16\":\"c) Bomberos debería tener acceso a un seguro médico, al que pueda recurrir en caso de accidente.\"}","question_order":"[0]","trial_type":"survey-multi-choice","trial_index":35,"time_elapsed":1364897,"internal_node_id":"0.0-5.0-30.0"},{"rt":1677.5,"response":{"pregunta16 likert":3},"question_order":[0],"trial_type":"survey-likert","trial_index":36,"time_elapsed":1366577,"internal_node_id":"0.0-5.0-31.0"},{"rt":65985.69999998808,"responses":"{\"pregunta8\":\"d) El ser humano se comporta de acuerdo con las circunstancias.\"}","question_order":"[0]","trial_type":"survey-multi-choice","trial_index":37,"time_elapsed":1432565,"internal_node_id":"0.0-5.0-32.0"},{"rt":2205.4000000059605,"response":{"pregunta8 likert":3},"question_order":[0],"trial_type":"survey-likert","trial_index":38,"time_elapsed":1434773,"internal_node_id":"0.0-5.0-33.0"},{"rt":57865.79999999702,"responses":"{\"pregunta6\":\"d) Promover la asistencia a un evento específico de decoración a través de una atractiva descripción.\"}","question_order":"[0]","trial_type":"survey-multi-choice","trial_index":39,"time_elapsed":1492642,"internal_node_id":"0.0-5.0-34.0"},{"rt":1861.5,"response":{"pregunta6 likert":1},"question_order":[0],"trial_type":"survey-likert","trial_index":40,"time_elapsed":1494507,"internal_node_id":"0.0-5.0-35.0"},{"rt":67361.5,"responses":"{\"pregunta1\":\"b) Aportan informaciones con las que se reconstruye el personaje dentro de un relato.\"}","question_order":"[0]","trial_type":"survey-multi-choice","trial_index":41,"time_elapsed":1561871,"internal_node_id":"0.0-5.0-36.0"},{"rt":3517.7000000029802,"response":{"pregunta1 likert":1},"question_order":[0],"trial_type":"survey-likert","trial_index":42,"time_elapsed":1565391,"internal_node_id":"0.0-5.0-37.0"},{"rt":27723.60000000894,"responses":"{\"pregunta9\":\"a) preparar los recuerdos del mañana.\"}","question_order":"[0]","trial_type":"survey-multi-choice","trial_index":43,"time_elapsed":1593119,"internal_node_id":"0.0-5.0-38.0"},{"rt":2516.9000000059605,"response":{"pregunta9 likert":2},"question_order":[0],"trial_type":"survey-likert","trial_index":44,"time_elapsed":1595638,"internal_node_id":"0.0-5.0-39.0"},{"rt":32427.70000000298,"responses":"{\"pregunta22\":\"a) Se necesita un marco legal para delimitar lo público y lo privado en materia informativa.\"}","question_order":"[0]","trial_type":"survey-multi-choice","trial_index":45,"time_elapsed":1628069,"internal_node_id":"0.0-5.0-40.0"},{"rt":1820.7999999970198,"response":{"pregunta22 likert":2},"question_order":[0],"trial_type":"survey-likert","trial_index":46,"time_elapsed":1629892,"internal_node_id":"0.0-5.0-41.0"},{"rt":49602.90000000596,"responses":"{\"pregunta14\":\"d) la muerte de Wu Ti fue una bendición.\"}","question_order":"[0]","trial_type":"survey-multi-choice","trial_index":47,"time_elapsed":1679498,"internal_node_id":"0.0-5.0-42.0"},{"rt":3189.2999999970198,"response":{"pregunta14 likert":2},"question_order":[0],"trial_type":"survey-likert","trial_index":48,"time_elapsed":1682690,"internal_node_id":"0.0-5.0-43.0"},{"rt":73633.69999998808,"responses":"{\"pregunta18\":\"d) El receptor es habitualmente pasivo frente a la publicidad.\"}","question_order":"[0]","trial_type":"survey-multi-choice","trial_index":49,"time_elapsed":1756327,"internal_node_id":"0.0-5.0-44.0"},{"rt":1884.4000000059605,"response":{"pregunta18 likert":2},"question_order":[0],"trial_type":"survey-likert","trial_index":50,"time_elapsed":1758214,"internal_node_id":"0.0-5.0-45.0"},{"rt":48827.79999999702,"responses":"{\"pregunta5\":\"c) Los momentos triviales de los viajes, en la escritura se vuelven significativos.\"}","question_order":"[0]","trial_type":"survey-multi-choice","trial_index":51,"time_elapsed":1807045,"internal_node_id":"0.0-5.0-46.0"},{"rt":2260,"response":{"pregunta5 likert":3},"question_order":[0],"trial_type":"survey-likert","trial_index":52,"time_elapsed":1809307,"internal_node_id":"0.0-5.0-47.0"},{"rt":1507.800000011921,"stimulus":"<p style=\"font-size: 120%\">Gracias por completar esta etapa del estudio. Ahora te invitamos a responder el cuestionario.<br><br></p>","response":0,"trial_type":"html-button-response","trial_index":53,"time_elapsed":1810820,"internal_node_id":"0.0-6.0"},{"rt":19144,"stimulus":"<h1 style=\"margin-top: 5%\">Cuestionario para la Evaluación de Metas Académicas</h1><p style=\"font-size: 120%; margin-left: 3%; margin-top: 5%\">Este es un cuestionario que permite conocer cuáles son los principales motivos por los que los estudiantes se esfuerzan en su trabajo académico. A continuación, se te presentarán una serie de afirmaciones acerca de los motivos que puedes tener para estudiar.<br>Te pedimos que contestes a dichas afirmaciones reflexionando sobre el contenido de cada una de ellas, que, aunque te parezcan semejantes, en realidad, no lo son.<br>NO HAY RESPUESTAS CORRECTAS o INCORRECTAS, sólo queremos que respondas con la mayor precisión y sinceridad posible a las preguntas que se plantean.","response":0,"trial_type":"html-button-response","trial_index":54,"time_elapsed":1829965,"internal_node_id":"0.0-7.0"},{"rt":89553.39999999106,"response":{"Metas cuestionario pregunta1":1,"Metas cuestionario pregunta2":1,"Metas cuestionario pregunta3":2,"Metas cuestionario pregunta4":0,"Metas cuestionario pregunta5":0,"Metas cuestionario pregunta6":3,"Metas cuestionario pregunta7":2,"Metas cuestionario pregunta8":1,"Metas cuestionario pregunta9":0,"Metas cuestionario pregunta10":0,"Metas cuestionario pregunta11":0,"Metas cuestionario pregunta12":0,"Metas cuestionario pregunta13":0,"Metas cuestionario pregunta14":0,"Metas cuestionario pregunta15":0,"Metas cuestionario pregunta16":0,"Metas cuestionario pregunta17":3,"Metas cuestionario pregunta18":4,"Metas cuestionario pregunta19":4,"Metas cuestionario pregunta20":4},"question_order":[0,1,2,3,4,5,6,7,8,9,10,11,12,13,14,15,16,17,18,19],"trial_type":"survey-likert","trial_index":55,"time_elapsed":1919521,"internal_node_id":"0.0-8.0"},{"rt":1913.1000000089407,"stimulus":"<p style=\"font-size: 120%\">Gracias por responder el cuestionario. Ahora te invitamos a seguir con el juego, que es muy breve.<br><br></p>","response":0,"trial_type":"html-button-response","trial_index":56,"time_elapsed":1921438,"internal_node_id":"0.0-9.0"},{"rt":4231.79999999702,"stimulus":"<h1>Juego</h1><p style=\"font-size: 120%;\">A continuación se te presentarán 16 pequeñas historias.<br>Por favor lee el texto presentado en cada una de ellas y luego haz click en el objeto de tu elección.<br>Si estás listo(a),<span style=\"color:red;\"> haz click en \"comenzar\"</span>.</p>","response":0,"trial_type":"html-button-response","trial_index":57,"time_elapsed":1925671,"internal_node_id":"0.0-10.0"},{"rt":1765.7000000029802,"grid":[[1],[1],[1],[1]],"target":[0,0],"response":[1,0],"correct":false,"juego":4,"trial_type":"serial-reaction-time-mouse","trial_index":58,"time_elapsed":1927438,"internal_node_id":"0.0-11.0-0.0"},{"rt":34014.29999999702,"grid":[[1,1,1,1]],"target":[0,0],"response":[0,2],"correct":false,"juego":7,"trial_type":"serial-reaction-time-mouse","trial_index":59,"time_elapsed":1961453,"internal_node_id":"0.0-11.0-1.0"},{"rt":23222.79999999702,"grid":[[1,1,1],[1,1,1],[1,1,1],[1,1,1],[1,1,1],[1,1,1],[1,1,1],[1,1,1],[1,1,1]],"target":[0,0],"response":[7,0],"correct":false,"juego":10,"trial_type":"serial-reaction-time-mouse","trial_index":60,"time_elapsed":1984677,"internal_node_id":"0.0-11.0-2.0"},{"rt":8013.29999999702,"grid":[[1,1,1,1]],"target":[0,0],"response":[0,1],"correct":false,"juego":1,"trial_type":"serial-reaction-time-mouse","trial_index":61,"time_elapsed":1992691,"internal_node_id":"0.0-11.0-3.0"},{"rt":12327,"grid":[[1,1,1,1]],"target":[0,0],"response":[0,3],"correct":false,"juego":3,"trial_type":"serial-reaction-time-mouse","trial_index":62,"time_elapsed":2005019,"internal_node_id":"0.0-11.0-4.0"},{"rt":9080.5,"grid":[[1,1,1,1]],"target":[0,0],"response":[0,0],"correct":true,"juego":2,"trial_type":"serial-reaction-time-mouse","trial_index":63,"time_elapsed":2014100,"internal_node_id":"0.0-11.0-5.0"},{"rt":8372.90000000596,"grid":[[1,1,1],[1,1,1],[1,1,1],[1,1,1],[1,1,1],[1,1,1],[1,1,1],[1,1,1],[1,1,1]],"target":[0,0],"response":[7,1],"correct":false,"juego":6,"trial_type":"serial-reaction-time-mouse","trial_index":64,"time_elapsed":2022474,"internal_node_id":"0.0-11.0-6.0"},{"rt":4094.5,"grid":[[1,1,1],[1,1,1],[1,1,1],[1,1,1],[1,1,1],[1,1,1],[1,1,1],[1,1,1],[1,1,1]],"target":[0,0],"response":[1,1],"correct":false,"juego":5,"trial_type":"serial-reaction-time-mouse","trial_index":65,"time_elapsed":2026570,"internal_node_id":"0.0-11.0-7.0"},{"rt":18310.70000000298,"grid":[[1,1,1],[1,1,1],[1,1,1],[1,1,1],[1,1,1],[1,1,1],[1,1,1],[1,1,1],[1,1,1]],"target":[0,0],"response":[3,1],"correct":false,"juego":13,"trial_type":"serial-reaction-time-mouse","trial_index":66,"time_elapsed":2044882,"internal_node_id":"0.0-11.0-8.0"},{"rt":9919.70000000298,"grid":[[1,1,1,1]],"target":[0,0],"response":[0,0],"correct":true,"juego":12,"trial_type":"serial-reaction-time-mouse","trial_index":67,"time_elapsed":2054802,"internal_node_id":"0.0-11.0-9.0"},{"rt":15125.29999999702,"grid":[[1,1,1,1],[1,1,1,1],[1,1,1,1],[1,1,1,1],[1,1,1,1],[1,1,1,1],[1,1,1,1],[1,1,1,1],[1,1,1,1]],"target":[0,0],"response":[5,2],"correct":false,"juego":15,"trial_type":"serial-reaction-time-mouse","trial_index":68,"time_elapsed":2069929,"internal_node_id":"0.0-11.0-10.0"},{"rt":21782.70000000298,"grid":[[1,1,1,1]],"target":[0,0],"response":[0,0],"correct":true,"juego":8,"trial_type":"serial-reaction-time-mouse","trial_index":69,"time_elapsed":2091713,"internal_node_id":"0.0-11.0-11.0"},{"rt":6781.0999999940395,"grid":[[1,1,1,1]],"target":[0,0],"response":[0,2],"correct":false,"juego":9,"trial_type":"serial-reaction-time-mouse","trial_index":70,"time_elapsed":2098494,"internal_node_id":"0.0-11.0-12.0"},{"rt":10511.79999999702,"grid":[[1,1,1,1]],"target":[0,0],"response":[0,3],"correct":false,"juego":11,"trial_type":"serial-reaction-time-mouse","trial_index":71,"time_elapsed":2109007,"internal_node_id":"0.0-11.0-13.0"},{"rt":10430.5,"grid":[[1,1,1,1],[1,1,1,1],[1,1,1,1],[1,1,1,1],[1,1,1,1],[1,1,1,1],[1,1,1,1],[1,1,1,1],[1,1,1,1]],"target":[0,0],"response":[7,2],"correct":false,"juego":14,"trial_type":"serial-reaction-time-mouse","trial_index":72,"time_elapsed":2119439,"internal_node_id":"0.0-11.0-14.0"}]