[{"rt":48613.31000000064,"stimulus":"<h1 style=\"color:red; margin-top: 3%;\">¡Bienvenido(a)!</h1><p style=\"text-align:left; justify-content:space-between; margin-right: 5%; margin-left: 5%; margin-top: 5%\"> Antes de empezar el estudio, necesitamos que nos confirmes que estás de acuerdo con participar. Recuerda que tu participación es 100% voluntaria y que lo único que te pedimos es responder lo mejor que puedas. Recuerda también que el estudio incluye:</p><ol style=\"text-align:left; justify-content:space-between; margin-right: 5%; margin-left: 5%;\"><li> un ejercicio de resolución de preguntas de selección múltiple (30’),</li><li>un cuestionario breve (5’),</li><li>un juego muy breve (3’),</li></ol><p style=\"text-align:left; justify-content:space-between; margin-right: 5%; margin-left: 5%;\">Si quieres participar, haz clic en “Acepto” luego de leer lo siguiente:<br></p><p style=\"text-align:left; justify-content:space-between; margin-right: 5%; margin-left: 5%;\">Acepto participar en el estudio “Estrategias de lectura y resolución de preguntas de selección múltiple”, en los términos aquí señalados:<br></p><p style=\"text-align:left; justify-content:space-between; margin-right: 5%; margin-left: 5%;\"><a href=\"http://ciae.uchile.cl/download.php?file=noticias/Asentimiento.pdf\" target=\"_blank\">Link a la hoja de información del Consentimiento.</a></p><p style=\"text-align:left; justify-content:space-between; margin-right: 5%; margin-left: 5%;\">Declaro que he leído (o se me ha leído) y (he) comprendido, las condiciones de mi participación en este estudio. He tenido la oportunidad de hacer preguntas y éstas han sido respondidas. No tengo dudas al respecto.</p>","response":0,"condicion_MCQ":3,"condicion_INTER":15,"numero_participante":15,"numero_version":1,"dimx":1440,"dimy":900,"color_profundidad":24,"pixel_profundidad":24,"Browser":"Google Chrome","trial_type":"html-button-response","trial_index":0,"time_elapsed":48616,"internal_node_id":"0.0-0.0"},{"success":true,"trial_type":"fullscreen","trial_index":1,"time_elapsed":52916,"internal_node_id":"0.0-1.0"},{"rt":67125.00999999975,"responses":"{\"Nombres\":\"Sebastian Ignacio\",\"Apellidos\":\"Burgos Gomez\",\"Edad\":\"19\",\"Sexo\":\"hombre\",\"Curso\":\"primer año\",\"Colegio\":\"U Andres belo\",\"Contacto\":\"burgos050219@gmail.com\"}","trial_type":"survey-text","trial_index":2,"time_elapsed":120058,"internal_node_id":"0.0-2.0"},{"success":true,"timeout":false,"failed_images":[],"failed_audio":[],"failed_video":[],"trial_type":"preload","trial_index":3,"time_elapsed":120669,"internal_node_id":"0.0-3.0"},{"rt":21057.360000000714,"stimulus":"<h1 style:\"margin-top: 5%;\">Ejercicios de Comprensión de Lectura de la Universidad de Chile</h1><p style=\"font-size: 120%;\">En esta actividad, debes responder 30 preguntas de selección múltiple. Cada pregunta presenta 3 respuestas alternativas, pero sólo una de ellas es correcta. Por lo tanto, debes escoger una sola alternativa para cada pregunta. Además, debes reportar qué tan seguro(a) estás de la respuesta que das, con un:</p><ol style=\"font-size: 120%;text-align:left;margin-left: 40%;\"><li>No estoy seguro(a) para nada</li><li>No estoy muy seguro(a)</li><li>Estoy bastante seguro(a)</li><li>Estoy totalmente seguro(a)</li></ol><p style=\"font-size: 120%;\">Por favor lee bien los enunciados antes de responder. ¡Éxito!</p>","response":0,"trial_type":"html-button-response","trial_index":4,"time_elapsed":141727,"internal_node_id":"0.0-4.0"},{"rt":146380.6650000006,"responses":"{\"pregunta14\":\"c) preparar los recuerdos del mañana. \"}","question_order":"[0]","trial_type":"survey-multi-choice","trial_index":5,"time_elapsed":288110,"internal_node_id":"0.0-5.0-0.0"},{"rt":4268.379999999539,"response":{"pregunta14 likert":2},"question_order":[0],"trial_type":"survey-likert","trial_index":6,"time_elapsed":292381,"internal_node_id":"0.0-5.0-1.0"},{"rt":57226.95999999996,"responses":"{\"pregunta20\":\"a) la muerte de Wu Ti fue una bendición. \"}","question_order":"[0]","trial_type":"survey-multi-choice","trial_index":7,"time_elapsed":349610,"internal_node_id":"0.0-5.0-2.0"},{"rt":4996.359999999171,"response":{"pregunta20 likert":1},"question_order":[0],"trial_type":"survey-likert","trial_index":8,"time_elapsed":354608,"internal_node_id":"0.0-5.0-3.0"},{"rt":93864.46000000072,"responses":"{\"pregunta3\":\"b) El inicio de la dinastía Chang. \"}","question_order":"[0]","trial_type":"survey-multi-choice","trial_index":9,"time_elapsed":448474,"internal_node_id":"0.0-5.0-4.0"},{"rt":2609.2300000000396,"response":{"pregunta3 likert":2},"question_order":[0],"trial_type":"survey-likert","trial_index":10,"time_elapsed":451086,"internal_node_id":"0.0-5.0-5.0"},{"rt":55156.214999999094,"responses":"{\"pregunta5\":\"b) Los momentos triviales de los viajes, en la escritura se vuelven significativos. \"}","question_order":"[0]","trial_type":"survey-multi-choice","trial_index":11,"time_elapsed":506244,"internal_node_id":"0.0-5.0-6.0"},{"rt":2274.6399999996065,"response":{"pregunta5 likert":1},"question_order":[0],"trial_type":"survey-likert","trial_index":12,"time_elapsed":508520,"internal_node_id":"0.0-5.0-7.0"},{"rt":38659.17000000074,"responses":"{\"pregunta30\":\"a) la muerte es distinta en las grandes ciudades. \"}","question_order":"[0]","trial_type":"survey-multi-choice","trial_index":13,"time_elapsed":547182,"internal_node_id":"0.0-5.0-8.0"},{"rt":3438.9749999990454,"response":{"pregunta30 likert":2},"question_order":[0],"trial_type":"survey-likert","trial_index":14,"time_elapsed":550623,"internal_node_id":"0.0-5.0-9.0"},{"rt":56229.30500000075,"responses":"{\"pregunta17\":\"c) Atraer a los turistas. \"}","question_order":"[0]","trial_type":"survey-multi-choice","trial_index":15,"time_elapsed":606873,"internal_node_id":"0.0-5.0-10.0"},{"rt":3553.749999999185,"response":{"pregunta17 likert":3},"question_order":[0],"trial_type":"survey-likert","trial_index":16,"time_elapsed":610430,"internal_node_id":"0.0-5.0-11.0"},{"rt":51552.28999999957,"responses":"{\"pregunta24\":\"a) El receptor es habitualmente pasivo frente a la publicidad. \"}","question_order":"[0]","trial_type":"survey-multi-choice","trial_index":17,"time_elapsed":661990,"internal_node_id":"0.0-5.0-12.0"},{"rt":2415.2450000001118,"response":{"pregunta24 likert":2},"question_order":[0],"trial_type":"survey-likert","trial_index":18,"time_elapsed":664407,"internal_node_id":"0.0-5.0-13.0"},{"rt":25831.879999999772,"responses":"{\"pregunta22\":\"b) Por el riesgo que corren diariamente, los bomberos deberían tener mejores condiciones de seguridad. \"}","question_order":"[0]","trial_type":"survey-multi-choice","trial_index":19,"time_elapsed":690241,"internal_node_id":"0.0-5.0-14.0"},{"rt":2665.4600000001956,"response":{"pregunta22 likert":3},"question_order":[0],"trial_type":"survey-likert","trial_index":20,"time_elapsed":692908,"internal_node_id":"0.0-5.0-15.0"},{"rt":96974.50000000023,"responses":"{\"pregunta26\":\"b) el hombre excesivo es inmoral. \"}","question_order":"[0]","trial_type":"survey-multi-choice","trial_index":21,"time_elapsed":789887,"internal_node_id":"0.0-5.0-16.0"},{"rt":3008.2400000010384,"response":{"pregunta26 likert":2},"question_order":[0],"trial_type":"survey-likert","trial_index":22,"time_elapsed":792898,"internal_node_id":"0.0-5.0-17.0"},{"rt":35372.41999999969,"responses":"{\"pregunta2\":\"c) A la relación entre pensamiento y estructura social. \"}","question_order":"[0]","trial_type":"survey-multi-choice","trial_index":23,"time_elapsed":828272,"internal_node_id":"0.0-5.0-18.0"},{"rt":3053.7649999987334,"response":{"pregunta2 likert":1},"question_order":[0],"trial_type":"survey-likert","trial_index":24,"time_elapsed":831328,"internal_node_id":"0.0-5.0-19.0"},{"rt":62708.639999998966,"responses":"{\"pregunta18\":\"b) A la inutilidad de tanto esfuerzo si el objetivo es el reposo. \"}","question_order":"[0]","trial_type":"survey-multi-choice","trial_index":25,"time_elapsed":894039,"internal_node_id":"0.0-5.0-20.0"},{"rt":2163.4850000009174,"response":{"pregunta18 likert":1},"question_order":[0],"trial_type":"survey-likert","trial_index":26,"time_elapsed":896205,"internal_node_id":"0.0-5.0-21.0"},{"rt":85090.04499999911,"responses":"{\"pregunta19\":\"c) El hábito de la lectura y el progreso mantienen una relación inversamente proporcional. \"}","question_order":"[0]","trial_type":"survey-multi-choice","trial_index":27,"time_elapsed":981299,"internal_node_id":"0.0-5.0-22.0"},{"rt":1952.8600000012666,"response":{"pregunta19 likert":0},"question_order":[0],"trial_type":"survey-likert","trial_index":28,"time_elapsed":983254,"internal_node_id":"0.0-5.0-23.0"},{"rt":41395.63499999896,"responses":"{\"pregunta21\":\"b) a partir de la manipulación del núcleo se han creado elementos químicos naturales. \"}","question_order":"[0]","trial_type":"survey-multi-choice","trial_index":29,"time_elapsed":1024652,"internal_node_id":"0.0-5.0-24.0"},{"rt":4398.890000000363,"response":{"pregunta21 likert":1},"question_order":[0],"trial_type":"survey-likert","trial_index":30,"time_elapsed":1029053,"internal_node_id":"0.0-5.0-25.0"},{"rt":32922.07000000053,"responses":"{\"pregunta29\":\"c) la Muerte vaticina el futuro mediante gestos. \"}","question_order":"[0]","trial_type":"survey-multi-choice","trial_index":31,"time_elapsed":1061977,"internal_node_id":"0.0-5.0-26.0"},{"rt":21956.964999999385,"response":{"pregunta29 likert":2},"question_order":[0],"trial_type":"survey-likert","trial_index":32,"time_elapsed":1083936,"internal_node_id":"0.0-5.0-27.0"},{"rt":32170.630000000587,"responses":"{\"pregunta28\":\"a) Se necesita un marco legal para delimitar lo público y lo privado en materia informativa. \"}","question_order":"[0]","trial_type":"survey-multi-choice","trial_index":33,"time_elapsed":1116109,"internal_node_id":"0.0-5.0-28.0"},{"rt":2831.66999999946,"response":{"pregunta28 likert":2},"question_order":[0],"trial_type":"survey-likert","trial_index":34,"time_elapsed":1118942,"internal_node_id":"0.0-5.0-29.0"},{"rt":38710.995000001276,"responses":"{\"pregunta11\":\"b) Presentar positivamente las diversas tendencias del diseño de interiores a través de un comentario. \"}","question_order":"[0]","trial_type":"survey-multi-choice","trial_index":35,"time_elapsed":1157655,"internal_node_id":"0.0-5.0-30.0"},{"rt":3073.2850000006147,"response":{"pregunta11 likert":1},"question_order":[0],"trial_type":"survey-likert","trial_index":36,"time_elapsed":1160730,"internal_node_id":"0.0-5.0-31.0"},{"rt":12508.385000001173,"responses":"{\"pregunta16\":\"b) Provocar el deseo de la adquisición vertiginosa. \"}","question_order":"[0]","trial_type":"survey-multi-choice","trial_index":37,"time_elapsed":1173240,"internal_node_id":"0.0-5.0-32.0"},{"rt":2191.075000000652,"response":{"pregunta16 likert":3},"question_order":[0],"trial_type":"survey-likert","trial_index":38,"time_elapsed":1175433,"internal_node_id":"0.0-5.0-33.0"},{"rt":38041.54500000016,"responses":"{\"pregunta27\":\"b) Será difícil que las empresas nacionales compitan con las estadounidenses. \"}","question_order":"[0]","trial_type":"survey-multi-choice","trial_index":39,"time_elapsed":1213476,"internal_node_id":"0.0-5.0-34.0"},{"rt":1795.5549999987707,"response":{"pregunta27 likert":2},"question_order":[0],"trial_type":"survey-likert","trial_index":40,"time_elapsed":1215273,"internal_node_id":"0.0-5.0-35.0"},{"rt":22466.464999999618,"responses":"{\"pregunta7\":\"a) La imprenta y el papel han permitido el desarrollo de la civilización y la conservación de su cultura, y ambos son inventos chinos. \"}","question_order":"[0]","trial_type":"survey-multi-choice","trial_index":41,"time_elapsed":1237742,"internal_node_id":"0.0-5.0-36.0"},{"rt":2651.4799999985844,"response":{"pregunta7 likert":2},"question_order":[0],"trial_type":"survey-likert","trial_index":42,"time_elapsed":1240395,"internal_node_id":"0.0-5.0-37.0"},{"rt":31321.77499999851,"responses":"{\"pregunta6\":\"c) La aparición del Diccionario Académico ha sido polémica. \"}","question_order":"[0]","trial_type":"survey-multi-choice","trial_index":43,"time_elapsed":1271720,"internal_node_id":"0.0-5.0-38.0"},{"rt":1631.3850000007078,"response":{"pregunta6 likert":1},"question_order":[0],"trial_type":"survey-likert","trial_index":44,"time_elapsed":1273353,"internal_node_id":"0.0-5.0-39.0"},{"rt":1463.8799999994226,"responses":"{\"pregunta10\":\"a) La biónica puede asegurar nuestra existencia mediante la aplicación de técnicas copiadas de la naturaleza. \"}","question_order":"[0]","trial_type":"survey-multi-choice","trial_index":45,"time_elapsed":1274819,"internal_node_id":"0.0-5.0-40.0"},{"rt":1310.9250000016764,"response":{"pregunta10 likert":2},"question_order":[0],"trial_type":"survey-likert","trial_index":46,"time_elapsed":1276132,"internal_node_id":"0.0-5.0-41.0"},{"rt":17089.3899999992,"responses":"{\"pregunta13\":\"a) El concepto de normalidad es diferente para un psiquiatra que para nosotros. \"}","question_order":"[0]","trial_type":"survey-multi-choice","trial_index":47,"time_elapsed":1293223,"internal_node_id":"0.0-5.0-42.0"},{"rt":2477.2399999999907,"response":{"pregunta13 likert":1},"question_order":[0],"trial_type":"survey-likert","trial_index":48,"time_elapsed":1295703,"internal_node_id":"0.0-5.0-43.0"},{"rt":1630.119999999646,"responses":"{\"pregunta1\":\"c) Entregan una característica detallada del personaje, a través de la voz narrativa. \"}","question_order":"[0]","trial_type":"survey-multi-choice","trial_index":49,"time_elapsed":1297337,"internal_node_id":"0.0-5.0-44.0"},{"rt":1586.2500000002328,"response":{"pregunta1 likert":1},"question_order":[0],"trial_type":"survey-likert","trial_index":50,"time_elapsed":1298926,"internal_node_id":"0.0-5.0-45.0"},{"rt":72018.18499999889,"responses":"{\"pregunta25\":\"b) llevan un control grupal de su embarazo. \"}","question_order":"[0]","trial_type":"survey-multi-choice","trial_index":51,"time_elapsed":1370947,"internal_node_id":"0.0-5.0-46.0"},{"rt":2497.409999999916,"response":{"pregunta25 likert":2},"question_order":[0],"trial_type":"survey-likert","trial_index":52,"time_elapsed":1373447,"internal_node_id":"0.0-5.0-47.0"},{"rt":31750.369999999646,"responses":"{\"pregunta8\":\"b) Dar a conocer al ganador del premio Cervantes. \"}","question_order":"[0]","trial_type":"survey-multi-choice","trial_index":53,"time_elapsed":1405199,"internal_node_id":"0.0-5.0-48.0"},{"rt":3582.4300000004005,"response":{"pregunta8 likert":1},"question_order":[0],"trial_type":"survey-likert","trial_index":54,"time_elapsed":1408783,"internal_node_id":"0.0-5.0-49.0"},{"rt":148054.1999999988,"responses":"{\"pregunta4\":\"c) En la literatura como en la vida, todo es metáfora. \"}","question_order":"[0]","trial_type":"survey-multi-choice","trial_index":55,"time_elapsed":1556870,"internal_node_id":"0.0-5.0-50.0"},{"rt":1367.389999999432,"response":{"pregunta4 likert":1},"question_order":[0],"trial_type":"survey-likert","trial_index":56,"time_elapsed":1558240,"internal_node_id":"0.0-5.0-51.0"},{"rt":2171.7299999999814,"responses":"{\"pregunta12\":\"a) se da como existente, y sólo se discute su relación con el cuerpo. \"}","question_order":"[0]","trial_type":"survey-multi-choice","trial_index":57,"time_elapsed":1560414,"internal_node_id":"0.0-5.0-52.0"},{"rt":1245.9900000011548,"response":{"pregunta12 likert":1},"question_order":[0],"trial_type":"survey-likert","trial_index":58,"time_elapsed":1561662,"internal_node_id":"0.0-5.0-53.0"},{"rt":1494.5849999985658,"responses":"{\"pregunta9\":\"a) deben ser capaces de mantenerse económicamente de la misma forma que los hombres. \"}","question_order":"[0]","trial_type":"survey-multi-choice","trial_index":59,"time_elapsed":1563158,"internal_node_id":"0.0-5.0-54.0"},{"rt":1100.155000000028,"response":{"pregunta9 likert":2},"question_order":[0],"trial_type":"survey-likert","trial_index":60,"time_elapsed":1564260,"internal_node_id":"0.0-5.0-55.0"},{"rt":15053.714999999851,"responses":"{\"pregunta23\":\"b) A la influencia de grupos que rechazaban su música. \"}","question_order":"[0]","trial_type":"survey-multi-choice","trial_index":61,"time_elapsed":1579315,"internal_node_id":"0.0-5.0-56.0"},{"rt":3129.7149999991525,"response":{"pregunta23 likert":2},"question_order":[0],"trial_type":"survey-likert","trial_index":62,"time_elapsed":1582447,"internal_node_id":"0.0-5.0-57.0"},{"rt":43574.42499999888,"responses":"{\"pregunta15\":\"c) ritualistas y obsesivos. \"}","question_order":"[0]","trial_type":"survey-multi-choice","trial_index":63,"time_elapsed":1626024,"internal_node_id":"0.0-5.0-58.0"},{"rt":2043.780000000028,"response":{"pregunta15 likert":1},"question_order":[0],"trial_type":"survey-likert","trial_index":64,"time_elapsed":1628070,"internal_node_id":"0.0-5.0-59.0"},{"rt":1308.5200000004843,"stimulus":"<p style=\"font-size: 120%\">Gracias por completar esta etapa del estudio. Ahora te invitamos a responder el cuestionario.<br><br></p>","response":0,"trial_type":"html-button-response","trial_index":65,"time_elapsed":1629384,"internal_node_id":"0.0-6.0"},{"rt":7130.439999999013,"stimulus":"<h1 style=\"margin-top: 5%\">Cuestionario para la Evaluación de Metas Académicas</h1><p style=\"font-size: 120%; margin-left: 3%; margin-top: 5%\">Este es un cuestionario que permite conocer cuáles son los principales motivos por los que los estudiantes se esfuerzan en su trabajo académico. A continuación, se te presentarán una serie de afirmaciones acerca de los motivos que puedes tener para estudiar.<br>Te pedimos que contestes a dichas afirmaciones reflexionando sobre el contenido de cada una de ellas, que, aunque te parezcan semejantes, en realidad, no lo son.<br>NO HAY RESPUESTAS CORRECTAS o INCORRECTAS, sólo queremos que respondas con la mayor precisión y sinceridad posible a las preguntas que se plantean.","response":0,"trial_type":"html-button-response","trial_index":66,"time_elapsed":1636516,"internal_node_id":"0.0-7.0"},{"rt":74341.03499999945,"response":{"Metas cuestionario pregunta1":2,"Metas cuestionario pregunta2":3,"Metas cuestionario pregunta3":2,"Metas cuestionario pregunta4":3,"Metas cuestionario pregunta5":4,"Metas cuestionario pregunta6":2,"Metas cuestionario pregunta7":3,"Metas cuestionario pregunta8":4,"Metas cuestionario pregunta9":2,"Metas cuestionario pregunta10":1,"Metas cuestionario pregunta11":0,"Metas cuestionario pregunta12":0,"Metas cuestionario pregunta13":2,"Metas cuestionario pregunta14":0,"Metas cuestionario pregunta15":4,"Metas cuestionario pregunta16":4,"Metas cuestionario pregunta17":4,"Metas cuestionario pregunta18":4,"Metas cuestionario pregunta19":4,"Metas cuestionario pregunta20":4},"question_order":[0,1,2,3,4,5,6,7,8,9,10,11,12,13,14,15,16,17,18,19],"trial_type":"survey-likert","trial_index":67,"time_elapsed":1710866,"internal_node_id":"0.0-8.0"}]