[{"rt":15106.005000008736,"stimulus":"<h1 style=\"color:red; margin-top: 3%;\">¡Bienvenido(a)!</h1><p style=\"text-align:left; justify-content:space-between; margin-right: 5%; margin-left: 5%; margin-top: 5%\"> Antes de empezar el estudio, necesitamos que nos confirmes que estás de acuerdo con participar. Recuerda que tu participación es 100% voluntaria y que lo único que te pedimos es responder lo mejor que puedas. Recuerda también que el estudio incluye:</p><ol style=\"text-align:left; justify-content:space-between; margin-right: 5%; margin-left: 5%;\"><li> un ejercicio de resolución de preguntas de selección múltiple (30’),</li><li>un cuestionario breve (5’),</li><li>un juego muy breve (3’),</li></ol><p style=\"text-align:left; justify-content:space-between; margin-right: 5%; margin-left: 5%;\">Si quieres participar, haz clic en “Acepto” luego de leer lo siguiente:<br></p><p style=\"text-align:left; justify-content:space-between; margin-right: 5%; margin-left: 5%;\">Acepto participar en el estudio “Estrategias de lectura y resolución de preguntas de selección múltiple”, en los términos aquí señalados:<br></p><p style=\"text-align:left; justify-content:space-between; margin-right: 5%; margin-left: 5%;\"><a href=\"http://ciae.uchile.cl/download.php?file=noticias/Asentimiento.pdf\" target=\"_blank\">Link a la hoja de información del Consentimiento.</a></p><p style=\"text-align:left; justify-content:space-between; margin-right: 5%; margin-left: 5%;\">Declaro que he leído (o se me ha leído) y (he) comprendido, las condiciones de mi participación en este estudio. He tenido la oportunidad de hacer preguntas y éstas han sido respondidas. No tengo dudas al respecto.</p>","response":0,"condicion_MCQ":2,"condicion_INTER":14,"numero_participante":38,"numero_version":1,"dimx":1280,"dimy":720,"color_profundidad":24,"pixel_profundidad":24,"Browser":"Google Chrome","trial_type":"html-button-response","trial_index":0,"time_elapsed":15109,"internal_node_id":"0.0-0.0"},{"success":true,"trial_type":"fullscreen","trial_index":1,"time_elapsed":25347,"internal_node_id":"0.0-1.0"},{"rt":117167.21499999403,"responses":"{\"Nombres\":\"Tomás Ignacio\",\"Apellidos\":\"Durán Llancaqueo\",\"Edad\":\"18\",\"Sexo\":\"hombre\",\"Curso\":\"Sección 203\",\"Colegio\":\"Universidad Andrés Bello\",\"Contacto\":\"t.durnllancaqueo@uandresbello.edu\"}","trial_type":"survey-text","trial_index":2,"time_elapsed":142521,"internal_node_id":"0.0-2.0"},{"success":true,"timeout":false,"failed_images":[],"failed_audio":[],"failed_video":[],"trial_type":"preload","trial_index":3,"time_elapsed":142775,"internal_node_id":"0.0-3.0"},{"rt":11521.450000000186,"stimulus":"<h1 style:\"margin-top: 5%;\">Ejercicios de Comprensión de Lectura de la Universidad de Chile</h1><p style=\"font-size: 120%;\">En esta actividad, debes responder 30 preguntas de selección múltiple. Cada pregunta presenta 3 respuestas alternativas, pero sólo una de ellas es correcta. Por lo tanto, debes escoger una sola alternativa para cada pregunta. Además, debes reportar qué tan seguro(a) estás de la respuesta que das, con un:</p><ol style=\"font-size: 120%;text-align:left;margin-left: 40%;\"><li>No estoy seguro(a) para nada</li><li>No estoy muy seguro(a)</li><li>Estoy bastante seguro(a)</li><li>Estoy totalmente seguro(a)</li></ol><p style=\"font-size: 120%;\">Por favor lee bien los enunciados antes de responder. ¡Éxito!</p>","response":0,"trial_type":"html-button-response","trial_index":4,"time_elapsed":154298,"internal_node_id":"0.0-4.0"},{"rt":44439.985000004526,"responses":"{\"pregunta3\":\"a) El inicio de la dinastía Chang. \"}","question_order":"[0]","trial_type":"survey-multi-choice","trial_index":5,"time_elapsed":198739,"internal_node_id":"0.0-5.0-0.0"},{"rt":2911.629999987781,"response":{"pregunta3 likert":3},"question_order":[0],"trial_type":"survey-likert","trial_index":6,"time_elapsed":201652,"internal_node_id":"0.0-5.0-1.0"},{"rt":51306.26499999198,"responses":"{\"pregunta21\":\"c) la creación de elementos químicos artificiales ha resultado de la manipulación del uranio. \"}","question_order":"[0]","trial_type":"survey-multi-choice","trial_index":7,"time_elapsed":252960,"internal_node_id":"0.0-5.0-2.0"},{"rt":1407.550000003539,"response":{"pregunta21 likert":2},"question_order":[0],"trial_type":"survey-likert","trial_index":8,"time_elapsed":254369,"internal_node_id":"0.0-5.0-3.0"},{"rt":65511.52499997988,"responses":"{\"pregunta8\":\"a) Dar a conocer al ganador del premio Cervantes. \"}","question_order":"[0]","trial_type":"survey-multi-choice","trial_index":9,"time_elapsed":319882,"internal_node_id":"0.0-5.0-4.0"},{"rt":1763.95500000217,"response":{"pregunta8 likert":2},"question_order":[0],"trial_type":"survey-likert","trial_index":10,"time_elapsed":321647,"internal_node_id":"0.0-5.0-5.0"},{"rt":271174.70999999205,"responses":"{\"pregunta14\":\"c) un recuerdo nostálgico. \"}","question_order":"[0]","trial_type":"survey-multi-choice","trial_index":11,"time_elapsed":592823,"internal_node_id":"0.0-5.0-6.0"},{"rt":1625.9750000026543,"response":{"pregunta14 likert":2},"question_order":[0],"trial_type":"survey-likert","trial_index":12,"time_elapsed":594451,"internal_node_id":"0.0-5.0-7.0"},{"rt":72510.91499999166,"responses":"{\"pregunta7\":\"c) La imprenta y el papel han permitido el desarrollo de la civilización y la conservación de su cultura, y ambos son inventos chinos. \"}","question_order":"[0]","trial_type":"survey-multi-choice","trial_index":13,"time_elapsed":666962,"internal_node_id":"0.0-5.0-8.0"},{"rt":3057.410000008531,"response":{"pregunta7 likert":2},"question_order":[0],"trial_type":"survey-likert","trial_index":14,"time_elapsed":670021,"internal_node_id":"0.0-5.0-9.0"},{"rt":29673.84500001208,"responses":"{\"pregunta22\":\"a) Por el riesgo que corren diariamente, los bomberos deberían tener mejores condiciones de seguridad. \"}","question_order":"[0]","trial_type":"survey-multi-choice","trial_index":15,"time_elapsed":699696,"internal_node_id":"0.0-5.0-10.0"},{"rt":1617.0299999939743,"response":{"pregunta22 likert":3},"question_order":[0],"trial_type":"survey-likert","trial_index":16,"time_elapsed":701314,"internal_node_id":"0.0-5.0-11.0"},{"rt":77988.66499998257,"responses":"{\"pregunta10\":\"c) La biónica puede asegurar nuestra existencia mediante la aplicación de técnicas copiadas de la naturaleza. \"}","question_order":"[0]","trial_type":"survey-multi-choice","trial_index":17,"time_elapsed":779304,"internal_node_id":"0.0-5.0-12.0"},{"rt":1075.024999998277,"response":{"pregunta10 likert":2},"question_order":[0],"trial_type":"survey-likert","trial_index":18,"time_elapsed":780380,"internal_node_id":"0.0-5.0-13.0"},{"rt":73613.88499999885,"responses":"{\"pregunta19\":\"a) Las personas que leen son más flexibles en sus ideas y autónomas en su accionar. \"}","question_order":"[0]","trial_type":"survey-multi-choice","trial_index":19,"time_elapsed":853995,"internal_node_id":"0.0-5.0-14.0"},{"rt":1355.6600000010803,"response":{"pregunta19 likert":1},"question_order":[0],"trial_type":"survey-likert","trial_index":20,"time_elapsed":855352,"internal_node_id":"0.0-5.0-15.0"},{"rt":56104.12500001257,"responses":"{\"pregunta29\":\"a) el jardinero estará muerto al día siguiente. \"}","question_order":"[0]","trial_type":"survey-multi-choice","trial_index":21,"time_elapsed":911457,"internal_node_id":"0.0-5.0-16.0"},{"rt":1692.0049999898765,"response":{"pregunta29 likert":3},"question_order":[0],"trial_type":"survey-likert","trial_index":22,"time_elapsed":913151,"internal_node_id":"0.0-5.0-17.0"},{"rt":61554.15500001982,"responses":"{\"pregunta17\":\"c) Homenajear a quienes murieron. \"}","question_order":"[0]","trial_type":"survey-multi-choice","trial_index":23,"time_elapsed":974705,"internal_node_id":"0.0-5.0-18.0"},{"rt":1714.8750000051223,"response":{"pregunta17 likert":3},"question_order":[0],"trial_type":"survey-likert","trial_index":24,"time_elapsed":976421,"internal_node_id":"0.0-5.0-19.0"},{"rt":36454.78000000003,"responses":"{\"pregunta9\":\"b) pueden rendir exámenes para optar y obtener títulos profesionales igual que los hombres. \"}","question_order":"[0]","trial_type":"survey-multi-choice","trial_index":25,"time_elapsed":1012877,"internal_node_id":"0.0-5.0-20.0"},{"rt":1795.0499999860767,"response":{"pregunta9 likert":3},"question_order":[0],"trial_type":"survey-likert","trial_index":26,"time_elapsed":1014673,"internal_node_id":"0.0-5.0-21.0"},{"rt":52063.80000000354,"responses":"{\"pregunta25\":\"c) sufren dolores de espalda. \"}","question_order":"[0]","trial_type":"survey-multi-choice","trial_index":27,"time_elapsed":1066738,"internal_node_id":"0.0-5.0-22.0"},{"rt":1596.8149999971502,"response":{"pregunta25 likert":3},"question_order":[0],"trial_type":"survey-likert","trial_index":28,"time_elapsed":1068336,"internal_node_id":"0.0-5.0-23.0"},{"rt":290491.6750000266,"responses":"{\"pregunta15\":\"b) ritualistas y obsesivos. \"}","question_order":"[0]","trial_type":"survey-multi-choice","trial_index":29,"time_elapsed":1358829,"internal_node_id":"0.0-5.0-24.0"},{"rt":1403.229999996256,"response":{"pregunta15 likert":1},"question_order":[0],"trial_type":"survey-likert","trial_index":30,"time_elapsed":1360233,"internal_node_id":"0.0-5.0-25.0"},{"rt":1404.3900000106078,"responses":"{\"pregunta6\":\"a) Las voces extranjeras viven una tensión entre la aceptación y el rechazo. \"}","question_order":"[0]","trial_type":"survey-multi-choice","trial_index":31,"time_elapsed":1361639,"internal_node_id":"0.0-5.0-26.0"},{"rt":1092.015000001993,"response":{"pregunta6 likert":1},"question_order":[0],"trial_type":"survey-likert","trial_index":32,"time_elapsed":1362732,"internal_node_id":"0.0-5.0-27.0"},{"rt":1089.5299999974668,"responses":"{\"pregunta4\":\"c) Las personas importantes comparten el gusto por la literatura. \"}","question_order":"[0]","trial_type":"survey-multi-choice","trial_index":33,"time_elapsed":1363823,"internal_node_id":"0.0-5.0-28.0"},{"rt":935.8449999999721,"response":{"pregunta4 likert":2},"question_order":[0],"trial_type":"survey-likert","trial_index":34,"time_elapsed":1364760,"internal_node_id":"0.0-5.0-29.0"},{"rt":1284.7600000095554,"responses":"{\"pregunta27\":\"b) Nuestra economía vivirá un proceso de ajuste a la nueva realidad. \"}","question_order":"[0]","trial_type":"survey-multi-choice","trial_index":35,"time_elapsed":1366046,"internal_node_id":"0.0-5.0-30.0"},{"rt":1690.2199999894947,"response":{"pregunta27 likert":1},"question_order":[0],"trial_type":"survey-likert","trial_index":36,"time_elapsed":1367737,"internal_node_id":"0.0-5.0-31.0"},{"rt":39852.64999998617,"responses":"{\"pregunta13\":\"a) El ser humano se comporta de acuerdo con las circunstancias. \"}","question_order":"[0]","trial_type":"survey-multi-choice","trial_index":37,"time_elapsed":1407591,"internal_node_id":"0.0-5.0-32.0"},{"rt":1484.9749999993946,"response":{"pregunta13 likert":3},"question_order":[0],"trial_type":"survey-likert","trial_index":38,"time_elapsed":1409077,"internal_node_id":"0.0-5.0-33.0"},{"rt":1328.8199999951757,"responses":"{\"pregunta16\":\"b) Mostrar cuerpos que reflejan la máxima potencia. \"}","question_order":"[0]","trial_type":"survey-multi-choice","trial_index":39,"time_elapsed":1410407,"internal_node_id":"0.0-5.0-34.0"},{"rt":1196.0649999964517,"response":{"pregunta16 likert":2},"question_order":[0],"trial_type":"survey-likert","trial_index":40,"time_elapsed":1411604,"internal_node_id":"0.0-5.0-35.0"},{"rt":22214.939999976195,"responses":"{\"pregunta30\":\"c) la muerte es distinta en las grandes ciudades. \"}","question_order":"[0]","trial_type":"survey-multi-choice","trial_index":41,"time_elapsed":1433820,"internal_node_id":"0.0-5.0-36.0"},{"rt":3727.935000002617,"response":{"pregunta30 likert":3},"question_order":[0],"trial_type":"survey-likert","trial_index":42,"time_elapsed":1437549,"internal_node_id":"0.0-5.0-37.0"},{"rt":3853.854999993928,"responses":"{\"pregunta1\":\"b) Entregan una característica detallada del personaje, a través de la voz narrativa. \"}","question_order":"[0]","trial_type":"survey-multi-choice","trial_index":43,"time_elapsed":1441404,"internal_node_id":"0.0-5.0-38.0"},{"rt":1210.5999999912456,"response":{"pregunta1 likert":2},"question_order":[0],"trial_type":"survey-likert","trial_index":44,"time_elapsed":1442616,"internal_node_id":"0.0-5.0-39.0"},{"rt":3808.9550000149757,"responses":"{\"pregunta23\":\"b) A la temática satánica de las canciones del grupo. \"}","question_order":"[0]","trial_type":"survey-multi-choice","trial_index":45,"time_elapsed":1446426,"internal_node_id":"0.0-5.0-40.0"},{"rt":1563.9249999949243,"response":{"pregunta23 likert":1},"question_order":[0],"trial_type":"survey-likert","trial_index":46,"time_elapsed":1447991,"internal_node_id":"0.0-5.0-41.0"},{"rt":1971.720000001369,"responses":"{\"pregunta12\":\"a) es una noción que obedece a una visión pesimista de la vida. \"}","question_order":"[0]","trial_type":"survey-multi-choice","trial_index":47,"time_elapsed":1449964,"internal_node_id":"0.0-5.0-42.0"},{"rt":1288.6400000134017,"response":{"pregunta12 likert":2},"question_order":[0],"trial_type":"survey-likert","trial_index":48,"time_elapsed":1451254,"internal_node_id":"0.0-5.0-43.0"},{"rt":1810.6900000129826,"responses":"{\"pregunta24\":\"c) El receptor es habitualmente pasivo frente a la publicidad. \"}","question_order":"[0]","trial_type":"survey-multi-choice","trial_index":49,"time_elapsed":1453066,"internal_node_id":"0.0-5.0-44.0"},{"rt":1650.9700000169687,"response":{"pregunta24 likert":3},"question_order":[0],"trial_type":"survey-likert","trial_index":50,"time_elapsed":1454718,"internal_node_id":"0.0-5.0-45.0"},{"rt":1318.7500000058208,"responses":"{\"pregunta5\":\"a) Los momentos triviales de los viajes, en la escritura se vuelven significativos. \"}","question_order":"[0]","trial_type":"survey-multi-choice","trial_index":51,"time_elapsed":1456038,"internal_node_id":"0.0-5.0-46.0"},{"rt":927.0499999984168,"response":{"pregunta5 likert":1},"question_order":[0],"trial_type":"survey-likert","trial_index":52,"time_elapsed":1456966,"internal_node_id":"0.0-5.0-47.0"},{"rt":36118.63000001176,"responses":"{\"pregunta18\":\"a) A la inutilidad de tanto esfuerzo si el objetivo es el reposo. \"}","question_order":"[0]","trial_type":"survey-multi-choice","trial_index":53,"time_elapsed":1493086,"internal_node_id":"0.0-5.0-48.0"},{"rt":1796.6799999994691,"response":{"pregunta18 likert":3},"question_order":[0],"trial_type":"survey-likert","trial_index":54,"time_elapsed":1494884,"internal_node_id":"0.0-5.0-49.0"},{"rt":2186.645000008866,"responses":"{\"pregunta11\":\"c) Orientar la opción estética de un grupo de personas en lo que se refiere a la decoración de interiores. \"}","question_order":"[0]","trial_type":"survey-multi-choice","trial_index":55,"time_elapsed":1497072,"internal_node_id":"0.0-5.0-50.0"},{"rt":1927.285000012489,"response":{"pregunta11 likert":1},"question_order":[0],"trial_type":"survey-likert","trial_index":56,"time_elapsed":1499000,"internal_node_id":"0.0-5.0-51.0"},{"rt":1657.7349999861326,"responses":"{\"pregunta26\":\"c) el sujeto sufre con su modo de vida. \"}","question_order":"[0]","trial_type":"survey-multi-choice","trial_index":57,"time_elapsed":1500659,"internal_node_id":"0.0-5.0-52.0"},{"rt":1260.0650000094902,"response":{"pregunta26 likert":2},"question_order":[0],"trial_type":"survey-likert","trial_index":58,"time_elapsed":1501920,"internal_node_id":"0.0-5.0-53.0"},{"rt":18364.865000010468,"responses":"{\"pregunta2\":\"b) A la relación entre pensamiento y estructura social. \"}","question_order":"[0]","trial_type":"survey-multi-choice","trial_index":59,"time_elapsed":1520286,"internal_node_id":"0.0-5.0-54.0"},{"rt":1209.0800000005402,"response":{"pregunta2 likert":2},"question_order":[0],"trial_type":"survey-likert","trial_index":60,"time_elapsed":1521496,"internal_node_id":"0.0-5.0-55.0"},{"rt":28750.70499998401,"responses":"{\"pregunta28\":\"c) Se necesita un marco legal para delimitar lo público y lo privado en materia informativa. \"}","question_order":"[0]","trial_type":"survey-multi-choice","trial_index":61,"time_elapsed":1550248,"internal_node_id":"0.0-5.0-56.0"},{"rt":1781.749999994645,"response":{"pregunta28 likert":3},"question_order":[0],"trial_type":"survey-likert","trial_index":62,"time_elapsed":1552031,"internal_node_id":"0.0-5.0-57.0"},{"rt":5248.044999985723,"responses":"{\"pregunta20\":\"a) el mejor emperador es el que está muerto. \"}","question_order":"[0]","trial_type":"survey-multi-choice","trial_index":63,"time_elapsed":1557281,"internal_node_id":"0.0-5.0-58.0"},{"rt":1161.3849999848753,"response":{"pregunta20 likert":3},"question_order":[0],"trial_type":"survey-likert","trial_index":64,"time_elapsed":1558443,"internal_node_id":"0.0-5.0-59.0"}]