[{"rt":3768.189999740571,"stimulus":"<h1 style=\"color:red; margin-top: 3%;\">¡Bienvenido(a)!</h1><p style=\"text-align:left; justify-content:space-between; margin-right: 5%; margin-left: 5%; margin-top: 5%\"> Antes de empezar el estudio, necesitamos que nos confirmes que estás de acuerdo con participar. Recuerda que tu participación es 100% voluntaria y que lo único que te pedimos es responder lo mejor que puedas. Recuerda también que el estudio incluye:</p><ol style=\"text-align:left; justify-content:space-between; margin-right: 5%; margin-left: 5%;\"><li> un ejercicio de resolución de preguntas de selección múltiple (30’),</li><li>un cuestionario breve (5’),</li><li>un juego muy breve (3’),</li></ol><p style=\"text-align:left; justify-content:space-between; margin-right: 5%; margin-left: 5%;\">Si quieres participar, haz clic en “Acepto” luego de leer lo siguiente:<br></p><p style=\"text-align:left; justify-content:space-between; margin-right: 5%; margin-left: 5%;\">Acepto participar en el estudio “Estrategias de lectura y resolución de preguntas de selección múltiple”, en los términos aquí señalados:<br></p><p style=\"text-align:left; justify-content:space-between; margin-right: 5%; margin-left: 5%;\"><a href=\"http://ciae.uchile.cl/download.php?file=noticias/Asentimiento.pdf\" target=\"_blank\">Link a la hoja de información del Consentimiento.</a></p><p style=\"text-align:left; justify-content:space-between; margin-right: 5%; margin-left: 5%;\">Declaro que he leído (o se me ha leído) y (he) comprendido, las condiciones de mi participación en este estudio. He tenido la oportunidad de hacer preguntas y éstas han sido respondidas. No tengo dudas al respecto.</p>","response":0,"condicion_MCQ":3,"condicion_INTER":15,"numero_participante":15,"numero_version":2,"dimx":1366,"dimy":768,"color_profundidad":24,"pixel_profundidad":24,"Browser":"Google Chrome","trial_type":"html-button-response","trial_index":0,"time_elapsed":3779,"internal_node_id":"0.0-0.0"},{"success":true,"trial_type":"fullscreen","trial_index":1,"time_elapsed":5883,"internal_node_id":"0.0-1.0"},{"rt":105948.08499980718,"responses":"{\"Nombres\":\"Macarena Claudia\",\"Apellidos\":\"Lisperguer Rojas\",\"Edad\":\"20\",\"Sexo\":\"mujer\",\"Curso\":\"neuro\",\"Colegio\":\"Universidad Andres bello\",\"Contacto\":\"lisperguermacarena@gmail.com\"}","trial_type":"survey-text","trial_index":2,"time_elapsed":111916,"internal_node_id":"0.0-2.0"},{"success":true,"timeout":false,"failed_images":[],"failed_audio":[],"failed_video":[],"trial_type":"preload","trial_index":3,"time_elapsed":113467,"internal_node_id":"0.0-3.0"},{"rt":16820.445000194013,"stimulus":"<h1 style:\"margin-top: 5%;\">Ejercicios de Comprensión de Lectura de la Universidad de Chile</h1><p style=\"font-size: 120%;\">En esta actividad, debes responder 30 preguntas de selección múltiple. Cada pregunta presenta 3 respuestas alternativas, pero sólo una de ellas es correcta. Por lo tanto, debes escoger una sola alternativa para cada pregunta. Además, debes reportar qué tan seguro(a) estás de la respuesta que das, con un:</p><ol style=\"font-size: 120%;text-align:left;margin-left: 40%;\"><li>No estoy seguro(a) para nada</li><li>No estoy muy seguro(a)</li><li>Estoy bastante seguro(a)</li><li>Estoy totalmente seguro(a)</li></ol><p style=\"font-size: 120%;\">Por favor lee bien los enunciados antes de responder. ¡Éxito!</p>","response":0,"trial_type":"html-button-response","trial_index":4,"time_elapsed":130291,"internal_node_id":"0.0-4.0"},{"rt":46841.08999976888,"responses":"{\"pregunta3\":\"b) El inicio de la dinastía Chang. \"}","question_order":"[0]","trial_type":"survey-multi-choice","trial_index":5,"time_elapsed":177140,"internal_node_id":"0.0-5.0-0.0"},{"rt":3366.189999971539,"response":{"pregunta3 likert":1},"question_order":[0],"trial_type":"survey-likert","trial_index":6,"time_elapsed":180515,"internal_node_id":"0.0-5.0-1.0"},{"rt":39252.85999989137,"responses":"{\"pregunta4\":\"c) En la literatura como en la vida, todo es metáfora. \"}","question_order":"[0]","trial_type":"survey-multi-choice","trial_index":7,"time_elapsed":219781,"internal_node_id":"0.0-5.0-2.0"},{"rt":2467.494999989867,"response":{"pregunta4 likert":3},"question_order":[0],"trial_type":"survey-likert","trial_index":8,"time_elapsed":222254,"internal_node_id":"0.0-5.0-3.0"},{"rt":46987.730000168085,"responses":"{\"pregunta6\":\"b) Las voces extranjeras viven una tensión entre la aceptación y el rechazo. \"}","question_order":"[0]","trial_type":"survey-multi-choice","trial_index":9,"time_elapsed":269246,"internal_node_id":"0.0-5.0-4.0"},{"rt":2619.8450000956655,"response":{"pregunta6 likert":2},"question_order":[0],"trial_type":"survey-likert","trial_index":10,"time_elapsed":271871,"internal_node_id":"0.0-5.0-5.0"},{"rt":32582.795000169426,"responses":"{\"pregunta11\":\"c) Promover la asistencia a un evento específico de decoración a través de una atractiva descripción. \"}","question_order":"[0]","trial_type":"survey-multi-choice","trial_index":11,"time_elapsed":304460,"internal_node_id":"0.0-5.0-6.0"},{"rt":2189.1250000335276,"response":{"pregunta11 likert":3},"question_order":[0],"trial_type":"survey-likert","trial_index":12,"time_elapsed":306662,"internal_node_id":"0.0-5.0-7.0"},{"rt":44659.84999993816,"responses":"{\"pregunta12\":\"c) es una realidad discutida por algunos. \"}","question_order":"[0]","trial_type":"survey-multi-choice","trial_index":13,"time_elapsed":351335,"internal_node_id":"0.0-5.0-8.0"},{"rt":5116.179999895394,"response":{"pregunta12 likert":2},"question_order":[0],"trial_type":"survey-likert","trial_index":14,"time_elapsed":356463,"internal_node_id":"0.0-5.0-9.0"},{"rt":78013.92999989912,"responses":"{\"pregunta26\":\"b) el hombre excesivo es inmoral. \"}","question_order":"[0]","trial_type":"survey-multi-choice","trial_index":15,"time_elapsed":434488,"internal_node_id":"0.0-5.0-10.0"},{"rt":3427.8700002469122,"response":{"pregunta26 likert":2},"question_order":[0],"trial_type":"survey-likert","trial_index":16,"time_elapsed":437930,"internal_node_id":"0.0-5.0-11.0"},{"rt":52288.00999978557,"responses":"{\"pregunta13\":\"b) El ser humano se comporta de acuerdo con las circunstancias. \"}","question_order":"[0]","trial_type":"survey-multi-choice","trial_index":17,"time_elapsed":490230,"internal_node_id":"0.0-5.0-12.0"},{"rt":1897.085000295192,"response":{"pregunta13 likert":2},"question_order":[0],"trial_type":"survey-likert","trial_index":18,"time_elapsed":492138,"internal_node_id":"0.0-5.0-13.0"},{"rt":45861.614999827,"responses":"{\"pregunta5\":\"c) La escritura plasma los mejores momentos de los viajes. \"}","question_order":"[0]","trial_type":"survey-multi-choice","trial_index":19,"time_elapsed":538011,"internal_node_id":"0.0-5.0-14.0"},{"rt":2749.559999909252,"response":{"pregunta5 likert":1},"question_order":[0],"trial_type":"survey-likert","trial_index":20,"time_elapsed":540773,"internal_node_id":"0.0-5.0-15.0"},{"rt":70428.72000019997,"responses":"{\"pregunta1\":\"c) Entregan una característica detallada del personaje, a través de la voz narrativa. \"}","question_order":"[0]","trial_type":"survey-multi-choice","trial_index":21,"time_elapsed":611213,"internal_node_id":"0.0-5.0-16.0"},{"rt":2125.264999922365,"response":{"pregunta1 likert":1},"question_order":[0],"trial_type":"survey-likert","trial_index":22,"time_elapsed":613350,"internal_node_id":"0.0-5.0-17.0"},{"rt":68158.68999995291,"responses":"{\"pregunta24\":\"a) El receptor es habitualmente pasivo frente a la publicidad. \"}","question_order":"[0]","trial_type":"survey-multi-choice","trial_index":23,"time_elapsed":681521,"internal_node_id":"0.0-5.0-18.0"},{"rt":2947.4149998277426,"response":{"pregunta24 likert":2},"question_order":[0],"trial_type":"survey-likert","trial_index":24,"time_elapsed":684480,"internal_node_id":"0.0-5.0-19.0"},{"rt":84936.80500006303,"responses":"{\"pregunta29\":\"b) el jardinero estará muerto al día siguiente. \"}","question_order":"[0]","trial_type":"survey-multi-choice","trial_index":25,"time_elapsed":769430,"internal_node_id":"0.0-5.0-20.0"},{"rt":1826.1600001715124,"response":{"pregunta29 likert":3},"question_order":[0],"trial_type":"survey-likert","trial_index":26,"time_elapsed":771268,"internal_node_id":"0.0-5.0-21.0"},{"rt":41059.85000031069,"responses":"{\"pregunta9\":\"c) pueden rendir exámenes para optar y obtener títulos profesionales igual que los hombres. \"}","question_order":"[0]","trial_type":"survey-multi-choice","trial_index":27,"time_elapsed":812339,"internal_node_id":"0.0-5.0-22.0"},{"rt":2685.2299999445677,"response":{"pregunta9 likert":1},"question_order":[0],"trial_type":"survey-likert","trial_index":28,"time_elapsed":815037,"internal_node_id":"0.0-5.0-23.0"},{"rt":34714.77000042796,"responses":"{\"pregunta22\":\"a) Bomberos debería tener acceso a un seguro médico, al que pueda recurrir en caso de accidente. \"}","question_order":"[0]","trial_type":"survey-multi-choice","trial_index":29,"time_elapsed":849764,"internal_node_id":"0.0-5.0-24.0"},{"rt":2557.7699998393655,"response":{"pregunta22 likert":2},"question_order":[0],"trial_type":"survey-likert","trial_index":30,"time_elapsed":852337,"internal_node_id":"0.0-5.0-25.0"},{"rt":36081.57999999821,"responses":"{\"pregunta27\":\"a) El TLC causará una completa transformación de la economía chilena. \"}","question_order":"[0]","trial_type":"survey-multi-choice","trial_index":31,"time_elapsed":888432,"internal_node_id":"0.0-5.0-26.0"},{"rt":2056.1999999918044,"response":{"pregunta27 likert":2},"question_order":[0],"trial_type":"survey-likert","trial_index":32,"time_elapsed":890502,"internal_node_id":"0.0-5.0-27.0"},{"rt":35479.33499980718,"responses":"{\"pregunta16\":\"a) Deleitar a sus receptores por medio de la belleza y el confort. \"}","question_order":"[0]","trial_type":"survey-multi-choice","trial_index":33,"time_elapsed":925993,"internal_node_id":"0.0-5.0-28.0"},{"rt":1360.6549999676645,"response":{"pregunta16 likert":2},"question_order":[0],"trial_type":"survey-likert","trial_index":34,"time_elapsed":927363,"internal_node_id":"0.0-5.0-29.0"},{"rt":35559.630000032485,"responses":"{\"pregunta8\":\"c) Caracterizar al Quijote como un pelmazo. \"}","question_order":"[0]","trial_type":"survey-multi-choice","trial_index":35,"time_elapsed":962928,"internal_node_id":"0.0-5.0-30.0"},{"rt":1701.6800004057586,"response":{"pregunta8 likert":2},"question_order":[0],"trial_type":"survey-likert","trial_index":36,"time_elapsed":964641,"internal_node_id":"0.0-5.0-31.0"},{"rt":99246.34000007063,"responses":"{\"pregunta7\":\"b) Si desaparecieran el papel y la imprenta, se produciría un gran retraso en nuestra civilización. \"}","question_order":"[0]","trial_type":"survey-multi-choice","trial_index":37,"time_elapsed":1063898,"internal_node_id":"0.0-5.0-32.0"},{"rt":2883.1549999304116,"response":{"pregunta7 likert":2},"question_order":[0],"trial_type":"survey-likert","trial_index":38,"time_elapsed":1066793,"internal_node_id":"0.0-5.0-33.0"},{"rt":46923.97500015795,"responses":"{\"pregunta23\":\"a) A la inexistencia de un recinto adecuado para el recital. \"}","question_order":"[0]","trial_type":"survey-multi-choice","trial_index":39,"time_elapsed":1113725,"internal_node_id":"0.0-5.0-34.0"},{"rt":2411.0499997623265,"response":{"pregunta23 likert":1},"question_order":[0],"trial_type":"survey-likert","trial_index":40,"time_elapsed":1116151,"internal_node_id":"0.0-5.0-35.0"},{"rt":25059.49500016868,"responses":"{\"pregunta21\":\"b) a partir de la manipulación del núcleo se han creado elementos químicos naturales. \"}","question_order":"[0]","trial_type":"survey-multi-choice","trial_index":41,"time_elapsed":1141220,"internal_node_id":"0.0-5.0-36.0"},{"rt":2366.254999767989,"response":{"pregunta21 likert":0},"question_order":[0],"trial_type":"survey-likert","trial_index":42,"time_elapsed":1143599,"internal_node_id":"0.0-5.0-37.0"},{"rt":28339.190000202507,"responses":"{\"pregunta18\":\"c) Al premio merecido después de tantos esfuerzos. \"}","question_order":"[0]","trial_type":"survey-multi-choice","trial_index":43,"time_elapsed":1171950,"internal_node_id":"0.0-5.0-38.0"},{"rt":4010.5349998921156,"response":{"pregunta18 likert":2},"question_order":[0],"trial_type":"survey-likert","trial_index":44,"time_elapsed":1175972,"internal_node_id":"0.0-5.0-39.0"},{"rt":91741.1050000228,"responses":"{\"pregunta19\":\"b) Las personas que leen son más flexibles en sus ideas y autónomas en su accionar. \"}","question_order":"[0]","trial_type":"survey-multi-choice","trial_index":45,"time_elapsed":1267721,"internal_node_id":"0.0-5.0-40.0"},{"rt":1436.6000001318753,"response":{"pregunta19 likert":2},"question_order":[0],"trial_type":"survey-likert","trial_index":46,"time_elapsed":1269169,"internal_node_id":"0.0-5.0-41.0"},{"rt":33956.83000003919,"responses":"{\"pregunta10\":\"a) La biónica puede asegurar nuestra existencia mediante la aplicación de técnicas copiadas de la naturaleza. \"}","question_order":"[0]","trial_type":"survey-multi-choice","trial_index":47,"time_elapsed":1303138,"internal_node_id":"0.0-5.0-42.0"},{"rt":2109.5900000073016,"response":{"pregunta10 likert":3},"question_order":[0],"trial_type":"survey-likert","trial_index":48,"time_elapsed":1305260,"internal_node_id":"0.0-5.0-43.0"},{"rt":38454.31000040844,"responses":"{\"pregunta28\":\"c) El derecho a informar y el derecho a la privacidad son inconciliables. \"}","question_order":"[0]","trial_type":"survey-multi-choice","trial_index":49,"time_elapsed":1343725,"internal_node_id":"0.0-5.0-44.0"},{"rt":2452.4100003764033,"response":{"pregunta28 likert":3},"question_order":[0],"trial_type":"survey-likert","trial_index":50,"time_elapsed":1346191,"internal_node_id":"0.0-5.0-45.0"},{"rt":312083.3499999717,"responses":"{\"pregunta25\":\"a) sufren dolores de espalda. \"}","question_order":"[0]","trial_type":"survey-multi-choice","trial_index":51,"time_elapsed":1658286,"internal_node_id":"0.0-5.0-46.0"},{"rt":3998.700000345707,"response":{"pregunta25 likert":3},"question_order":[0],"trial_type":"survey-likert","trial_index":52,"time_elapsed":1662298,"internal_node_id":"0.0-5.0-47.0"},{"rt":66041.31000023335,"responses":"{\"pregunta17\":\"a) Homenajear a quienes murieron. \"}","question_order":"[0]","trial_type":"survey-multi-choice","trial_index":53,"time_elapsed":1729663,"internal_node_id":"0.0-5.0-48.0"},{"rt":1516.6500001214445,"response":{"pregunta17 likert":2},"question_order":[0],"trial_type":"survey-likert","trial_index":54,"time_elapsed":1731192,"internal_node_id":"0.0-5.0-49.0"},{"rt":41772.919999901205,"responses":"{\"pregunta14\":\"c) preparar los recuerdos del mañana. \"}","question_order":"[0]","trial_type":"survey-multi-choice","trial_index":55,"time_elapsed":1772976,"internal_node_id":"0.0-5.0-50.0"},{"rt":2989.1750002279878,"response":{"pregunta14 likert":1},"question_order":[0],"trial_type":"survey-likert","trial_index":56,"time_elapsed":1775978,"internal_node_id":"0.0-5.0-51.0"},{"rt":129841.38499991968,"responses":"{\"pregunta30\":\"c) para el mexicano, la muerte es cotidiana. \"}","question_order":"[0]","trial_type":"survey-multi-choice","trial_index":57,"time_elapsed":1905830,"internal_node_id":"0.0-5.0-52.0"},{"rt":3500.9300000965595,"response":{"pregunta30 likert":3},"question_order":[0],"trial_type":"survey-likert","trial_index":58,"time_elapsed":1909343,"internal_node_id":"0.0-5.0-53.0"},{"rt":43716.44999971613,"responses":"{\"pregunta15\":\"c) ritualistas y obsesivos. \"}","question_order":"[0]","trial_type":"survey-multi-choice","trial_index":59,"time_elapsed":1953070,"internal_node_id":"0.0-5.0-54.0"},{"rt":4573.389999568462,"response":{"pregunta15 likert":3},"question_order":[0],"trial_type":"survey-likert","trial_index":60,"time_elapsed":1957654,"internal_node_id":"0.0-5.0-55.0"},{"rt":29963.590000290424,"responses":"{\"pregunta2\":\"a) A la relación entre civilización y sociedad. \"}","question_order":"[0]","trial_type":"survey-multi-choice","trial_index":61,"time_elapsed":1987629,"internal_node_id":"0.0-5.0-56.0"},{"rt":2114.500000141561,"response":{"pregunta2 likert":1},"question_order":[0],"trial_type":"survey-likert","trial_index":62,"time_elapsed":1989752,"internal_node_id":"0.0-5.0-57.0"},{"rt":17397.79999991879,"responses":"{\"pregunta20\":\"a) la muerte de Wu Ti fue una bendición. \"}","question_order":"[0]","trial_type":"survey-multi-choice","trial_index":63,"time_elapsed":2007162,"internal_node_id":"0.0-5.0-58.0"},{"rt":3771.259999834001,"response":{"pregunta20 likert":0},"question_order":[0],"trial_type":"survey-likert","trial_index":64,"time_elapsed":2010945,"internal_node_id":"0.0-5.0-59.0"},{"rt":3311.730000190437,"stimulus":"<p style=\"font-size: 120%\">Gracias por completar esta etapa del estudio. Ahora te invitamos a responder el cuestionario.<br><br></p>","response":0,"trial_type":"html-button-response","trial_index":65,"time_elapsed":2014292,"internal_node_id":"0.0-6.0"},{"rt":20595.989999826998,"stimulus":"<h1 style=\"margin-top: 5%\">Cuestionario para la Evaluación de Metas Académicas</h1><p style=\"font-size: 120%; margin-left: 3%; margin-top: 5%\">Este es un cuestionario que permite conocer cuáles son los principales motivos por los que los estudiantes se esfuerzan en su trabajo académico. A continuación, se te presentarán una serie de afirmaciones acerca de los motivos que puedes tener para estudiar.<br>Te pedimos que contestes a dichas afirmaciones reflexionando sobre el contenido de cada una de ellas, que, aunque te parezcan semejantes, en realidad, no lo son.<br>NO HAY RESPUESTAS CORRECTAS o INCORRECTAS, sólo queremos que respondas con la mayor precisión y sinceridad posible a las preguntas que se plantean.","response":0,"trial_type":"html-button-response","trial_index":66,"time_elapsed":2034897,"internal_node_id":"0.0-7.0"},{"rt":112837.23000017926,"response":{"Metas cuestionario pregunta1":1,"Metas cuestionario pregunta2":2,"Metas cuestionario pregunta3":2,"Metas cuestionario pregunta4":1,"Metas cuestionario pregunta5":3,"Metas cuestionario pregunta6":2,"Metas cuestionario pregunta7":2,"Metas cuestionario pregunta8":2,"Metas cuestionario pregunta9":3,"Metas cuestionario pregunta10":3,"Metas cuestionario pregunta11":1,"Metas cuestionario pregunta12":1,"Metas cuestionario pregunta13":3,"Metas cuestionario pregunta14":3,"Metas cuestionario pregunta15":4,"Metas cuestionario pregunta16":4,"Metas cuestionario pregunta17":4,"Metas cuestionario pregunta18":4,"Metas cuestionario pregunta19":4,"Metas cuestionario pregunta20":4},"question_order":[0,1,2,3,4,5,6,7,8,9,10,11,12,13,14,15,16,17,18,19],"trial_type":"survey-likert","trial_index":67,"time_elapsed":2147814,"internal_node_id":"0.0-8.0"},{"rt":7201.280000153929,"stimulus":"<p style=\"font-size: 120%\">Gracias por responder el cuestionario. Ahora te invitamos a seguir con el juego, que es muy breve.<br><br></p>","response":0,"trial_type":"html-button-response","trial_index":68,"time_elapsed":2155043,"internal_node_id":"0.0-9.0"},{"rt":6809.275000356138,"stimulus":"<h1>Juego</h1><p style=\"font-size: 120%;\">A continuación se te presentarán 16 pequeñas historias.<br>Por favor lee el texto presentado en cada una de ellas y luego haz click en el objeto de tu elección.<br>Si estás listo(a),<span style=\"color:red;\"> haz click en \"comenzar\"</span>.</p>","response":0,"trial_type":"html-button-response","trial_index":69,"time_elapsed":2161859,"internal_node_id":"0.0-10.0"},{"rt":4571.909999940544,"grid":[[1],[1],[1]],"target":[0,2],"response":[2,0],"correct":false,"juego":4,"trial_type":"serial-reaction-time-mouse","trial_index":70,"time_elapsed":2166444,"internal_node_id":"0.0-11.0-0.0"},{"rt":22128.435000311583,"grid":[[1,1,1]],"target":[0,2],"response":[0,1],"correct":false,"juego":7,"trial_type":"serial-reaction-time-mouse","trial_index":71,"time_elapsed":2188579,"internal_node_id":"0.0-11.0-1.0"},{"rt":32674.914999864995,"grid":[[1,1,1]],"target":[0,0],"response":[0,0],"correct":true,"juego":9,"trial_type":"serial-reaction-time-mouse","trial_index":72,"time_elapsed":2221262,"internal_node_id":"0.0-11.0-2.0"},{"rt":6832.345000002533,"grid":[[1,1,1]],"target":[0,2],"response":[0,1],"correct":false,"juego":2,"trial_type":"serial-reaction-time-mouse","trial_index":73,"time_elapsed":2228101,"internal_node_id":"0.0-11.0-3.0"},{"rt":40196.15500001237,"grid":[[1,1],[1,1],[1,1],[1,1],[1,1],[1,1],[1,1]],"target":[0,0],"response":[1,1],"correct":false,"juego":15,"trial_type":"serial-reaction-time-mouse","trial_index":74,"time_elapsed":2268311,"internal_node_id":"0.0-11.0-4.0"},{"rt":8855.049999896437,"grid":[[1,1,1]],"target":[0,2],"response":[0,2],"correct":true,"juego":8,"trial_type":"serial-reaction-time-mouse","trial_index":75,"time_elapsed":2277173,"internal_node_id":"0.0-11.0-5.0"},{"rt":11658.890000078827,"grid":[[1,1,1],[1,1,1],[1,1,1],[1,1,1],[1,1,1],[1,1,1],[1,1,1]],"target":[0,0],"response":[1,1],"correct":false,"juego":6,"trial_type":"serial-reaction-time-mouse","trial_index":76,"time_elapsed":2288848,"internal_node_id":"0.0-11.0-6.0"},{"rt":10924.865000415593,"grid":[[1,1,1],[1,1,1],[1,1,1]],"target":[0,0],"response":[0,0],"correct":true,"juego":10,"trial_type":"serial-reaction-time-mouse","trial_index":77,"time_elapsed":2299783,"internal_node_id":"0.0-11.0-7.0"},{"rt":8929.084999952465,"grid":[[1,1,1],[1,1,1],[1,1,1],[1,1,1],[1,1,1],[1,1,1],[1,1,1]],"target":[0,0],"response":[5,1],"correct":false,"juego":13,"trial_type":"serial-reaction-time-mouse","trial_index":78,"time_elapsed":2308727,"internal_node_id":"0.0-11.0-8.0"},{"rt":17948.795000091195,"grid":[[1,1],[1,1],[1,1],[1,1],[1,1],[1,1],[1,1]],"target":[0,0],"response":[5,1],"correct":false,"juego":14,"trial_type":"serial-reaction-time-mouse","trial_index":79,"time_elapsed":2326687,"internal_node_id":"0.0-11.0-9.0"},{"rt":13153.94000010565,"grid":[[1,1,1]],"target":[0,0],"response":[0,2],"correct":false,"juego":11,"trial_type":"serial-reaction-time-mouse","trial_index":80,"time_elapsed":2339848,"internal_node_id":"0.0-11.0-10.0"},{"rt":10679.509999696165,"grid":[[1,1,1]],"target":[0,0],"response":[0,1],"correct":false,"juego":12,"trial_type":"serial-reaction-time-mouse","trial_index":81,"time_elapsed":2350538,"internal_node_id":"0.0-11.0-11.0"},{"rt":40.855000261217356,"grid":[[1,1,1]],"target":[0,2],"response":[0,1],"correct":false,"juego":1,"trial_type":"serial-reaction-time-mouse","trial_index":82,"time_elapsed":2350586,"internal_node_id":"0.0-11.0-12.0"},{"rt":14525.119999889284,"grid":[[1],[1],[1],[1],[1],[1]],"target":[0,0],"response":[0,0],"correct":true,"juego":5,"trial_type":"serial-reaction-time-mouse","trial_index":83,"time_elapsed":2365122,"internal_node_id":"0.0-11.0-13.0"},{"rt":10308.904999867082,"grid":[[1,1,1]],"target":[0,2],"response":[0,0],"correct":false,"juego":3,"trial_type":"serial-reaction-time-mouse","trial_index":84,"time_elapsed":2375437,"internal_node_id":"0.0-11.0-14.0"},{"rt":4195.940000005066,"stimulus":"<h1>Último juego</h1><p style=\"font-size: 130%;\">Tienes <span style=\"color:red\">20</span> segundos para recordar los pares de palabras que aparecerán a continuación. <br></p>","response":0,"trial_type":"html-button-response","trial_index":85,"time_elapsed":2379647,"internal_node_id":"0.0-12.0"},{"animation_sequence":[{"stimulus":"imagen_juego_interferencia.jpg","time":610.6650000438094},{"stimulus":"imagen_juego_interferencia.jpg","time":1003.7599997594953},{"stimulus":"imagen_juego_interferencia.jpg","time":1503.1999996863306},{"stimulus":"imagen_juego_interferencia.jpg","time":2004.394999705255},{"stimulus":"imagen_juego_interferencia.jpg","time":2504.42499993369},{"stimulus":"imagen_juego_interferencia.jpg","time":3003.9099999703467},{"stimulus":"imagen_juego_interferencia.jpg","time":3515.45500010252},{"stimulus":"imagen_juego_interferencia.jpg","time":4010.6299999170005},{"stimulus":"imagen_juego_interferencia.jpg","time":4517.504999879748},{"stimulus":"imagen_juego_interferencia.jpg","time":5010.985000059009},{"stimulus":"imagen_juego_interferencia.jpg","time":5503.204999957234},{"stimulus":"imagen_juego_interferencia.jpg","time":6007.639999967068},{"stimulus":"imagen_juego_interferencia.jpg","time":6517.789999954402},{"stimulus":"imagen_juego_interferencia.jpg","time":7011.909999884665},{"stimulus":"imagen_juego_interferencia.jpg","time":7502.210000064224},{"stimulus":"imagen_juego_interferencia.jpg","time":8016.340000089258},{"stimulus":"imagen_juego_interferencia.jpg","time":8502.849999815226},{"stimulus":"imagen_juego_interferencia.jpg","time":9006.86000008136},{"stimulus":"imagen_juego_interferencia.jpg","time":9502.829999662936},{"stimulus":"imagen_juego_interferencia.jpg","time":10002.984999679029},{"stimulus":"imagen_juego_interferencia.jpg","time":10503.49499983713},{"stimulus":"imagen_juego_interferencia.jpg","time":11002.494999673218},{"stimulus":"imagen_juego_interferencia.jpg","time":11502.894999925047},{"stimulus":"imagen_juego_interferencia.jpg","time":12002.654999960214},{"stimulus":"imagen_juego_interferencia.jpg","time":12503.899999894202},{"stimulus":"imagen_juego_interferencia.jpg","time":13003.194999881089},{"stimulus":"imagen_juego_interferencia.jpg","time":13503.329999744892},{"stimulus":"imagen_juego_interferencia.jpg","time":14003.550000023097},{"stimulus":"imagen_juego_interferencia.jpg","time":14504.474999848753},{"stimulus":"imagen_juego_interferencia.jpg","time":15003.89500008896},{"stimulus":"imagen_juego_interferencia.jpg","time":15503.740000072867},{"stimulus":"imagen_juego_interferencia.jpg","time":16018.159999977797},{"stimulus":"imagen_juego_interferencia.jpg","time":16503.289999905974},{"stimulus":"imagen_juego_interferencia.jpg","time":17002.55999993533},{"stimulus":"imagen_juego_interferencia.jpg","time":17503.589999862015},{"stimulus":"imagen_juego_interferencia.jpg","time":18008.36499966681},{"stimulus":"imagen_juego_interferencia.jpg","time":18502.144999802113},{"stimulus":"imagen_juego_interferencia.jpg","time":19002.994999755174},{"stimulus":"imagen_juego_interferencia.jpg","time":19503.95999988541},{"stimulus":"imagen_juego_interferencia.jpg","time":20002.52000009641}],"response":[],"trial_type":"animation","trial_index":86,"time_elapsed":2400157,"internal_node_id":"0.0-13.0"},{"rt":7330.7300000451505,"responses":"{\"pregunta interferencia2\":\"saltamontes\"}","question_order":"[0]","trial_type":"survey-multi-choice-cuest","trial_index":87,"time_elapsed":2407497,"internal_node_id":"0.0-14.0-0.0"},{"rt":3781.9050000980496,"responses":"{\"pregunta interferencia3\":\"aluminio\"}","question_order":"[0]","trial_type":"survey-multi-choice-cuest","trial_index":88,"time_elapsed":2411284,"internal_node_id":"0.0-14.0-1.0"},{"rt":4748.965000268072,"responses":"{\"pregunta interferencia4\":\"contador\"}","question_order":"[0]","trial_type":"survey-multi-choice-cuest","trial_index":89,"time_elapsed":2416044,"internal_node_id":"0.0-14.0-2.0"},{"rt":3165.4100003652275,"responses":"{\"pregunta interferencia1\":\"naranja\"}","question_order":"[0]","trial_type":"survey-multi-choice-cuest","trial_index":90,"time_elapsed":2419221,"internal_node_id":"0.0-14.0-3.0"},{"success":true,"trial_type":"fullscreen","trial_index":91,"time_elapsed":2420239,"internal_node_id":"0.0-15.0"},{"rt":11730.58500001207,"responses":"{\"Telefono\":\"\"}","trial_type":"survey-text","trial_index":92,"time_elapsed":2432014,"internal_node_id":"0.0-16.0"}]