[{"rt":46185.63500000164,"stimulus":"<h1 style=\"color:red; margin-top: 3%;\">¡Bienvenido(a)!</h1><p style=\"text-align:left; justify-content:space-between; margin-right: 5%; margin-left: 5%; margin-top: 5%\"> Antes de empezar el estudio, necesitamos que nos confirmes que estás de acuerdo con participar. Recuerda que tu participación es 100% voluntaria y que lo único que te pedimos es responder lo mejor que puedas. Recuerda también que el estudio incluye:</p><ol style=\"text-align:left; justify-content:space-between; margin-right: 5%; margin-left: 5%;\"><li> un ejercicio de resolución de preguntas de selección múltiple (30’),</li><li>un cuestionario breve (5’),</li><li>un juego muy breve (3’),</li></ol><p style=\"text-align:left; justify-content:space-between; margin-right: 5%; margin-left: 5%;\">Si quieres participar, haz clic en “Acepto” luego de leer lo siguiente:<br></p><p style=\"text-align:left; justify-content:space-between; margin-right: 5%; margin-left: 5%;\">Acepto participar en el estudio “Estrategias de lectura y resolución de preguntas de selección múltiple”, en los términos aquí señalados:<br></p><p style=\"text-align:left; justify-content:space-between; margin-right: 5%; margin-left: 5%;\"><a href=\"http://ciae.uchile.cl/download.php?file=noticias/Asentimiento.pdf\" target=\"_blank\">Link a la hoja de información del Consentimiento.</a></p><p style=\"text-align:left; justify-content:space-between; margin-right: 5%; margin-left: 5%;\">Declaro que he leído (o se me ha leído) y (he) comprendido, las condiciones de mi participación en este estudio. He tenido la oportunidad de hacer preguntas y éstas han sido respondidas. No tengo dudas al respecto.</p>","response":0,"condicion_MCQ":5,"condicion_INTER":11,"numero_participante":11,"numero_version":1,"dimx":1366,"dimy":768,"color_profundidad":24,"pixel_profundidad":24,"Browser":"Google Chrome","trial_type":"html-button-response","trial_index":0,"time_elapsed":46192,"internal_node_id":"0.0-0.0"},{"success":true,"trial_type":"fullscreen","trial_index":1,"time_elapsed":55285,"internal_node_id":"0.0-1.0"},{"rt":127541.22000001371,"responses":"{\"Nombres\":\"Claudia Viviana \",\"Apellidos\":\"Diaz Guevara\",\"Edad\":\"18\",\"Sexo\":\"mujer\",\"Curso\":\"topicos de neurobiologia (primer año de universidad\",\"Colegio\":\"Universidad Andrés Bello\",\"Contacto\":\"c.dazguevara@uandresbello.edu\"}","trial_type":"survey-text","trial_index":2,"time_elapsed":182845,"internal_node_id":"0.0-2.0"},{"success":true,"timeout":false,"failed_images":[],"failed_audio":[],"failed_video":[],"trial_type":"preload","trial_index":3,"time_elapsed":185909,"internal_node_id":"0.0-3.0"},{"rt":18562.860000005458,"stimulus":"<h1 style:\"margin-top: 5%;\">Ejercicios de Comprensión de Lectura de la Universidad de Chile</h1><p style=\"font-size: 120%;\">En esta actividad, debes responder 30 preguntas de selección múltiple. Cada pregunta presenta 3 respuestas alternativas, pero sólo una de ellas es correcta. Por lo tanto, debes escoger una sola alternativa para cada pregunta. Además, debes reportar qué tan seguro(a) estás de la respuesta que das, con un:</p><ol style=\"font-size: 120%;text-align:left;margin-left: 40%;\"><li>No estoy seguro(a) para nada</li><li>No estoy muy seguro(a)</li><li>Estoy bastante seguro(a)</li><li>Estoy totalmente seguro(a)</li></ol><p style=\"font-size: 120%;\">Por favor lee bien los enunciados antes de responder. ¡Éxito!</p>","response":0,"trial_type":"html-button-response","trial_index":4,"time_elapsed":204473,"internal_node_id":"0.0-4.0"},{"rt":109045.06999999285,"responses":"{\"pregunta6\":\"a) Las voces extranjeras viven una tensión entre la aceptación y el rechazo. \"}","question_order":"[0]","trial_type":"survey-multi-choice","trial_index":5,"time_elapsed":313522,"internal_node_id":"0.0-5.0-0.0"},{"rt":4256.400000012945,"response":{"pregunta6 likert":1},"question_order":[0],"trial_type":"survey-likert","trial_index":6,"time_elapsed":317783,"internal_node_id":"0.0-5.0-1.0"},{"rt":52557.15499998769,"responses":"{\"pregunta15\":\"b) ritualistas y obsesivos. \"}","question_order":"[0]","trial_type":"survey-multi-choice","trial_index":7,"time_elapsed":370344,"internal_node_id":"0.0-5.0-2.0"},{"rt":2241.260000038892,"response":{"pregunta15 likert":2},"question_order":[0],"trial_type":"survey-likert","trial_index":8,"time_elapsed":372589,"internal_node_id":"0.0-5.0-3.0"},{"rt":127728.81000000052,"responses":"{\"pregunta9\":\"c) pueden ejercer profesiones científicas de la misma forma en que lo hacen los hombres. \"}","question_order":"[0]","trial_type":"survey-multi-choice","trial_index":9,"time_elapsed":500321,"internal_node_id":"0.0-5.0-4.0"},{"rt":3468.5499999905005,"response":{"pregunta9 likert":3},"question_order":[0],"trial_type":"survey-likert","trial_index":10,"time_elapsed":503793,"internal_node_id":"0.0-5.0-5.0"},{"rt":64046.91500001354,"responses":"{\"pregunta21\":\"b) el uranio es el elemento natural con el mayor número de protones en el núcleo. \"}","question_order":"[0]","trial_type":"survey-multi-choice","trial_index":11,"time_elapsed":567843,"internal_node_id":"0.0-5.0-6.0"},{"rt":2621.979999996256,"response":{"pregunta21 likert":3},"question_order":[0],"trial_type":"survey-likert","trial_index":12,"time_elapsed":570469,"internal_node_id":"0.0-5.0-7.0"},{"rt":24992.250000010245,"responses":"{\"pregunta7\":\"a) La impresión de libros es más importante que otros medios de información y comunicación. \"}","question_order":"[0]","trial_type":"survey-multi-choice","trial_index":13,"time_elapsed":595465,"internal_node_id":"0.0-5.0-8.0"},{"rt":1849.0699999965727,"response":{"pregunta7 likert":1},"question_order":[0],"trial_type":"survey-likert","trial_index":14,"time_elapsed":597318,"internal_node_id":"0.0-5.0-9.0"},{"rt":135425.0100000063,"responses":"{\"pregunta12\":\"c) se da como existente, y sólo se discute su relación con el cuerpo. \"}","question_order":"[0]","trial_type":"survey-multi-choice","trial_index":15,"time_elapsed":732746,"internal_node_id":"0.0-5.0-10.0"},{"rt":2135.8450000407174,"response":{"pregunta12 likert":3},"question_order":[0],"trial_type":"survey-likert","trial_index":16,"time_elapsed":734885,"internal_node_id":"0.0-5.0-11.0"},{"rt":89565.48999994993,"responses":"{\"pregunta19\":\"c) El hábito de la lectura y el progreso mantienen una relación inversamente proporcional. \"}","question_order":"[0]","trial_type":"survey-multi-choice","trial_index":17,"time_elapsed":824454,"internal_node_id":"0.0-5.0-12.0"},{"rt":2071.1599999922328,"response":{"pregunta19 likert":2},"question_order":[0],"trial_type":"survey-likert","trial_index":18,"time_elapsed":826529,"internal_node_id":"0.0-5.0-13.0"},{"rt":58503.19999997737,"responses":"{\"pregunta2\":\"c) A la relación entre sociedad y constitución social. \"}","question_order":"[0]","trial_type":"survey-multi-choice","trial_index":19,"time_elapsed":885035,"internal_node_id":"0.0-5.0-14.0"},{"rt":2400.7950000232086,"response":{"pregunta2 likert":2},"question_order":[0],"trial_type":"survey-likert","trial_index":20,"time_elapsed":887439,"internal_node_id":"0.0-5.0-15.0"},{"rt":80011.54999999562,"responses":"{\"pregunta23\":\"b) A la inexistencia de un recinto adecuado para el recital. \"}","question_order":"[0]","trial_type":"survey-multi-choice","trial_index":21,"time_elapsed":967454,"internal_node_id":"0.0-5.0-16.0"},{"rt":2685.040000011213,"response":{"pregunta23 likert":3},"question_order":[0],"trial_type":"survey-likert","trial_index":22,"time_elapsed":970143,"internal_node_id":"0.0-5.0-17.0"},{"rt":82164.3150000018,"responses":"{\"pregunta16\":\"a) Provocar el deseo de la adquisición vertiginosa. \"}","question_order":"[0]","trial_type":"survey-multi-choice","trial_index":23,"time_elapsed":1052311,"internal_node_id":"0.0-5.0-18.0"},{"rt":2596.704999974463,"response":{"pregunta16 likert":1},"question_order":[0],"trial_type":"survey-likert","trial_index":24,"time_elapsed":1054911,"internal_node_id":"0.0-5.0-19.0"},{"rt":171047.7049999754,"responses":"{\"pregunta3\":\"c) El inicio de la civilización china. \"}","question_order":"[0]","trial_type":"survey-multi-choice","trial_index":25,"time_elapsed":1225962,"internal_node_id":"0.0-5.0-20.0"},{"rt":2097.1400000271387,"response":{"pregunta3 likert":1},"question_order":[0],"trial_type":"survey-likert","trial_index":26,"time_elapsed":1228063,"internal_node_id":"0.0-5.0-21.0"},{"rt":3687.130000034813,"responses":"{\"pregunta11\":\"a) Orientar la opción estética de un grupo de personas en lo que se refiere a la decoración de interiores. \"}","question_order":"[0]","trial_type":"survey-multi-choice","trial_index":27,"time_elapsed":1231754,"internal_node_id":"0.0-5.0-22.0"},{"rt":1724.709999980405,"response":{"pregunta11 likert":1},"question_order":[0],"trial_type":"survey-likert","trial_index":28,"time_elapsed":1233481,"internal_node_id":"0.0-5.0-23.0"},{"rt":2596.0349999950267,"responses":"{\"pregunta17\":\"b) Revivir un periodo histórico. \"}","question_order":"[0]","trial_type":"survey-multi-choice","trial_index":29,"time_elapsed":1236081,"internal_node_id":"0.0-5.0-24.0"},{"rt":3010.0150000071153,"response":{"pregunta17 likert":2},"question_order":[0],"trial_type":"survey-likert","trial_index":30,"time_elapsed":1239095,"internal_node_id":"0.0-5.0-25.0"},{"rt":33184.1199999908,"responses":"{\"pregunta1\":\"c) Aportan informaciones con las que se reconstruye el personaje dentro de un relato. \"}","question_order":"[0]","trial_type":"survey-multi-choice","trial_index":31,"time_elapsed":1272282,"internal_node_id":"0.0-5.0-26.0"},{"rt":1578.2400000025518,"response":{"pregunta1 likert":2},"question_order":[0],"trial_type":"survey-likert","trial_index":32,"time_elapsed":1273864,"internal_node_id":"0.0-5.0-27.0"},{"rt":44442.91499996325,"responses":"{\"pregunta30\":\"b) para el mexicano, la muerte es cotidiana. \"}","question_order":"[0]","trial_type":"survey-multi-choice","trial_index":33,"time_elapsed":1318310,"internal_node_id":"0.0-5.0-28.0"},{"rt":1967.514999967534,"response":{"pregunta30 likert":2},"question_order":[0],"trial_type":"survey-likert","trial_index":34,"time_elapsed":1320283,"internal_node_id":"0.0-5.0-29.0"},{"rt":2213.4099999675527,"responses":"{\"pregunta13\":\"c) Lo que es normal en un asilo es anormal en un campo de concentración. \"}","question_order":"[0]","trial_type":"survey-multi-choice","trial_index":35,"time_elapsed":1322500,"internal_node_id":"0.0-5.0-30.0"},{"rt":1804.035000037402,"response":{"pregunta13 likert":1},"question_order":[0],"trial_type":"survey-likert","trial_index":36,"time_elapsed":1324307,"internal_node_id":"0.0-5.0-31.0"},{"rt":2381.2850000103936,"responses":"{\"pregunta20\":\"b) la muerte de Wu Ti fue una bendición. \"}","question_order":"[0]","trial_type":"survey-multi-choice","trial_index":37,"time_elapsed":1326692,"internal_node_id":"0.0-5.0-32.0"},{"rt":2400.420000019949,"response":{"pregunta20 likert":0},"question_order":[0],"trial_type":"survey-likert","trial_index":38,"time_elapsed":1329095,"internal_node_id":"0.0-5.0-33.0"},{"rt":41049.35500002466,"responses":"{\"pregunta27\":\"a) El TLC causará una completa transformación de la economía chilena. \"}","question_order":"[0]","trial_type":"survey-multi-choice","trial_index":39,"time_elapsed":1370148,"internal_node_id":"0.0-5.0-34.0"},{"rt":2067.994999990333,"response":{"pregunta27 likert":2},"question_order":[0],"trial_type":"survey-likert","trial_index":40,"time_elapsed":1372220,"internal_node_id":"0.0-5.0-35.0"},{"rt":52169.320000044536,"responses":"{\"pregunta18\":\"b) Al premio merecido después de tantos esfuerzos. \"}","question_order":"[0]","trial_type":"survey-multi-choice","trial_index":41,"time_elapsed":1424392,"internal_node_id":"0.0-5.0-36.0"},{"rt":3961.4300000248477,"response":{"pregunta18 likert":3},"question_order":[0],"trial_type":"survey-likert","trial_index":42,"time_elapsed":1428357,"internal_node_id":"0.0-5.0-37.0"},{"rt":7014.665000024252,"responses":"{\"pregunta25\":\"b) llevan un control grupal de su embarazo. \"}","question_order":"[0]","trial_type":"survey-multi-choice","trial_index":43,"time_elapsed":1435374,"internal_node_id":"0.0-5.0-38.0"},{"rt":2105.070000048727,"response":{"pregunta25 likert":0},"question_order":[0],"trial_type":"survey-likert","trial_index":44,"time_elapsed":1437482,"internal_node_id":"0.0-5.0-39.0"},{"rt":34457.28999999119,"responses":"{\"pregunta28\":\"c) Se necesita un marco legal para delimitar lo público y lo privado en materia informativa. \"}","question_order":"[0]","trial_type":"survey-multi-choice","trial_index":45,"time_elapsed":1471943,"internal_node_id":"0.0-5.0-40.0"},{"rt":1489.7099999943748,"response":{"pregunta28 likert":3},"question_order":[0],"trial_type":"survey-likert","trial_index":46,"time_elapsed":1473436,"internal_node_id":"0.0-5.0-41.0"},{"rt":5067.555000016,"responses":"{\"pregunta4\":\"b) Las personas importantes comparten el gusto por la literatura. \"}","question_order":"[0]","trial_type":"survey-multi-choice","trial_index":47,"time_elapsed":1478507,"internal_node_id":"0.0-5.0-42.0"},{"rt":1371.820000000298,"response":{"pregunta4 likert":1},"question_order":[0],"trial_type":"survey-likert","trial_index":48,"time_elapsed":1479882,"internal_node_id":"0.0-5.0-43.0"},{"rt":80961.02499996778,"responses":"{\"pregunta29\":\"a) el jardinero estará muerto al día siguiente. \"}","question_order":"[0]","trial_type":"survey-multi-choice","trial_index":49,"time_elapsed":1560846,"internal_node_id":"0.0-5.0-44.0"},{"rt":1567.7100000320934,"response":{"pregunta29 likert":3},"question_order":[0],"trial_type":"survey-likert","trial_index":50,"time_elapsed":1562417,"internal_node_id":"0.0-5.0-45.0"},{"rt":66306.3250000123,"responses":"{\"pregunta8\":\"b) Comparar a Cervantes con Quevedo. \"}","question_order":"[0]","trial_type":"survey-multi-choice","trial_index":51,"time_elapsed":1628727,"internal_node_id":"0.0-5.0-46.0"},{"rt":2116.9600000139326,"response":{"pregunta8 likert":1},"question_order":[0],"trial_type":"survey-likert","trial_index":52,"time_elapsed":1630847,"internal_node_id":"0.0-5.0-47.0"},{"rt":46067.79499998083,"responses":"{\"pregunta22\":\"c) Bomberos debería tener acceso a un seguro médico, al que pueda recurrir en caso de accidente. \"}","question_order":"[0]","trial_type":"survey-multi-choice","trial_index":53,"time_elapsed":1676918,"internal_node_id":"0.0-5.0-48.0"},{"rt":2548.395000048913,"response":{"pregunta22 likert":2},"question_order":[0],"trial_type":"survey-likert","trial_index":54,"time_elapsed":1679470,"internal_node_id":"0.0-5.0-49.0"},{"rt":51226.67500004172,"responses":"{\"pregunta14\":\"c) la persistencia de la melancolía y la desesperanza. \"}","question_order":"[0]","trial_type":"survey-multi-choice","trial_index":55,"time_elapsed":1730700,"internal_node_id":"0.0-5.0-50.0"},{"rt":1576.3899999437854,"response":{"pregunta14 likert":2},"question_order":[0],"trial_type":"survey-likert","trial_index":56,"time_elapsed":1732280,"internal_node_id":"0.0-5.0-51.0"},{"rt":2732.7199999708682,"responses":"{\"pregunta24\":\"a) La publicidad es dañina para sus receptores. \"}","question_order":"[0]","trial_type":"survey-multi-choice","trial_index":57,"time_elapsed":1735016,"internal_node_id":"0.0-5.0-52.0"},{"rt":2117.244999972172,"response":{"pregunta24 likert":0},"question_order":[0],"trial_type":"survey-likert","trial_index":58,"time_elapsed":1737137,"internal_node_id":"0.0-5.0-53.0"},{"rt":2506.4150000107475,"responses":"{\"pregunta10\":\"b) La biónica es una disciplina que tiene su origen en la ecología. \"}","question_order":"[0]","trial_type":"survey-multi-choice","trial_index":59,"time_elapsed":1739647,"internal_node_id":"0.0-5.0-54.0"},{"rt":1479.2350000352599,"response":{"pregunta10 likert":1},"question_order":[0],"trial_type":"survey-likert","trial_index":60,"time_elapsed":1741129,"internal_node_id":"0.0-5.0-55.0"},{"rt":2016.959999979008,"responses":"{\"pregunta26\":\"c) el hombre excesivo es inmoral. \"}","question_order":"[0]","trial_type":"survey-multi-choice","trial_index":61,"time_elapsed":1743150,"internal_node_id":"0.0-5.0-56.0"},{"rt":2154.655000020284,"response":{"pregunta26 likert":1},"question_order":[0],"trial_type":"survey-likert","trial_index":62,"time_elapsed":1745308,"internal_node_id":"0.0-5.0-57.0"},{"rt":17683.889999985695,"responses":"{\"pregunta5\":\"a) Los momentos triviales de los viajes, en la escritura se vuelven significativos. \"}","question_order":"[0]","trial_type":"survey-multi-choice","trial_index":63,"time_elapsed":1762995,"internal_node_id":"0.0-5.0-58.0"},{"rt":2282.884999993257,"response":{"pregunta5 likert":2},"question_order":[0],"trial_type":"survey-likert","trial_index":64,"time_elapsed":1765282,"internal_node_id":"0.0-5.0-59.0"}]