[{"rt":277125.82500000007,"stimulus":"<h1 style=\"color:red; margin-top: 3%;\">¡Bienvenido(a)!</h1><p style=\"text-align:left; justify-content:space-between; margin-right: 5%; margin-left: 5%; margin-top: 5%\"> Antes de empezar el estudio, necesitamos que nos confirmes que estás de acuerdo con participar. Recuerda que tu participación es 100% voluntaria y que lo único que te pedimos es responder lo mejor que puedas. Recuerda también que el estudio incluye:</p><ol style=\"text-align:left; justify-content:space-between; margin-right: 5%; margin-left: 5%;\"><li> un ejercicio de resolución de preguntas de selección múltiple (30’),</li><li>un cuestionario breve (5’),</li><li>un juego muy breve (3’),</li></ol><p style=\"text-align:left; justify-content:space-between; margin-right: 5%; margin-left: 5%;\">Si quieres participar, haz clic en “Acepto” luego de leer lo siguiente:<br></p><p style=\"text-align:left; justify-content:space-between; margin-right: 5%; margin-left: 5%;\">Acepto participar en el estudio “Estrategias de lectura y resolución de preguntas de selección múltiple”, en los términos aquí señalados:<br></p><p style=\"text-align:left; justify-content:space-between; margin-right: 5%; margin-left: 5%;\"><a href=\"http://ciae.uchile.cl/download.php?file=noticias/Asentimiento.pdf\" target=\"_blank\">Link a la hoja de información del Consentimiento.</a></p><p style=\"text-align:left; justify-content:space-between; margin-right: 5%; margin-left: 5%;\">Declaro que he leído (o se me ha leído) y (he) comprendido, las condiciones de mi participación en este estudio. He tenido la oportunidad de hacer preguntas y éstas han sido respondidas. No tengo dudas al respecto.</p>","response":0,"condicion_MCQ":2,"condicion_INTER":14,"numero_participante":14,"numero_version":1,"dimx":1536,"dimy":864,"color_profundidad":24,"pixel_profundidad":24,"Browser":"Google Chrome","trial_type":"html-button-response","trial_index":0,"time_elapsed":277128,"internal_node_id":"0.0-0.0"},{"success":true,"trial_type":"fullscreen","trial_index":1,"time_elapsed":287299,"internal_node_id":"0.0-1.0"},{"rt":192978.39500000008,"responses":"{\"Nombres\":\"Benjamin Andres\",\"Apellidos\":\"Velasquez Velasquez\",\"Edad\":\"19\",\"Sexo\":\"hombre\",\"Curso\":\"primer año\",\"Colegio\":\"unab\",\"Contacto\":\"benjavelasquez168@gmail.com\"}","trial_type":"survey-text","trial_index":2,"time_elapsed":480284,"internal_node_id":"0.0-2.0"},{"success":true,"timeout":false,"failed_images":[],"failed_audio":[],"failed_video":[],"trial_type":"preload","trial_index":3,"time_elapsed":481326,"internal_node_id":"0.0-3.0"},{"rt":27239.219999999914,"stimulus":"<h1 style:\"margin-top: 5%;\">Ejercicios de Comprensión de Lectura de la Universidad de Chile</h1><p style=\"font-size: 120%;\">En esta actividad, debes responder 30 preguntas de selección múltiple. Cada pregunta presenta 3 respuestas alternativas, pero sólo una de ellas es correcta. Por lo tanto, debes escoger una sola alternativa para cada pregunta. Además, debes reportar qué tan seguro(a) estás de la respuesta que das, con un:</p><ol style=\"font-size: 120%;text-align:left;margin-left: 40%;\"><li>No estoy seguro(a) para nada</li><li>No estoy muy seguro(a)</li><li>Estoy bastante seguro(a)</li><li>Estoy totalmente seguro(a)</li></ol><p style=\"font-size: 120%;\">Por favor lee bien los enunciados antes de responder. ¡Éxito!</p>","response":0,"trial_type":"html-button-response","trial_index":4,"time_elapsed":508567,"internal_node_id":"0.0-4.0"},{"rt":111435.67500000022,"responses":"{\"pregunta3\":\"c) El inicio de la civilización china. \"}","question_order":"[0]","trial_type":"survey-multi-choice","trial_index":5,"time_elapsed":620003,"internal_node_id":"0.0-5.0-0.0"},{"rt":8150.770000000135,"response":{"pregunta3 likert":2},"question_order":[0],"trial_type":"survey-likert","trial_index":6,"time_elapsed":628156,"internal_node_id":"0.0-5.0-1.0"},{"rt":72561.40000000002,"responses":"{\"pregunta27\":\"c) El TLC causará una completa transformación de la economía chilena. \"}","question_order":"[0]","trial_type":"survey-multi-choice","trial_index":7,"time_elapsed":700718,"internal_node_id":"0.0-5.0-2.0"},{"rt":4198.809999999823,"response":{"pregunta27 likert":2},"question_order":[0],"trial_type":"survey-likert","trial_index":8,"time_elapsed":704918,"internal_node_id":"0.0-5.0-3.0"},{"rt":107061.66000000038,"responses":"{\"pregunta9\":\"b) pueden rendir exámenes para optar y obtener títulos profesionales igual que los hombres. \"}","question_order":"[0]","trial_type":"survey-multi-choice","trial_index":9,"time_elapsed":811981,"internal_node_id":"0.0-5.0-4.0"},{"rt":3333.9500000001863,"response":{"pregunta9 likert":1},"question_order":[0],"trial_type":"survey-likert","trial_index":10,"time_elapsed":815316,"internal_node_id":"0.0-5.0-5.0"},{"rt":87445.73500000022,"responses":"{\"pregunta16\":\"a) Provocar el deseo de la adquisición vertiginosa. \"}","question_order":"[0]","trial_type":"survey-multi-choice","trial_index":11,"time_elapsed":902763,"internal_node_id":"0.0-5.0-6.0"},{"rt":1833.8850000000093,"response":{"pregunta16 likert":3},"question_order":[0],"trial_type":"survey-likert","trial_index":12,"time_elapsed":904598,"internal_node_id":"0.0-5.0-7.0"},{"rt":99542.71500000008,"responses":"{\"pregunta24\":\"b) La publicidad es dañina para sus receptores. \"}","question_order":"[0]","trial_type":"survey-multi-choice","trial_index":13,"time_elapsed":1004142,"internal_node_id":"0.0-5.0-8.0"},{"rt":1590.0500000002794,"response":{"pregunta24 likert":3},"question_order":[0],"trial_type":"survey-likert","trial_index":14,"time_elapsed":1005733,"internal_node_id":"0.0-5.0-9.0"},{"rt":96204.4850000001,"responses":"{\"pregunta1\":\"b) Entregan una característica detallada del personaje, a través de la voz narrativa. \"}","question_order":"[0]","trial_type":"survey-multi-choice","trial_index":15,"time_elapsed":1101938,"internal_node_id":"0.0-5.0-10.0"},{"rt":2087.1400000001304,"response":{"pregunta1 likert":2},"question_order":[0],"trial_type":"survey-likert","trial_index":16,"time_elapsed":1104027,"internal_node_id":"0.0-5.0-11.0"},{"rt":52195.79499999946,"responses":"{\"pregunta2\":\"b) A la relación entre pensamiento y estructura social. \"}","question_order":"[0]","trial_type":"survey-multi-choice","trial_index":17,"time_elapsed":1156224,"internal_node_id":"0.0-5.0-12.0"},{"rt":1507.2499999995343,"response":{"pregunta2 likert":3},"question_order":[0],"trial_type":"survey-likert","trial_index":18,"time_elapsed":1157733,"internal_node_id":"0.0-5.0-13.0"},{"rt":167520.55499999993,"responses":"{\"pregunta26\":\"b) para Aristóteles la virtud estaba en el justo equilibrio. \"}","question_order":"[0]","trial_type":"survey-multi-choice","trial_index":19,"time_elapsed":1325254,"internal_node_id":"0.0-5.0-14.0"},{"rt":3418.9550000000745,"response":{"pregunta26 likert":1},"question_order":[0],"trial_type":"survey-likert","trial_index":20,"time_elapsed":1328674,"internal_node_id":"0.0-5.0-15.0"},{"rt":72657.90000000014,"responses":"{\"pregunta30\":\"a) para el mexicano, la muerte es como una mujer. \"}","question_order":"[0]","trial_type":"survey-multi-choice","trial_index":21,"time_elapsed":1401333,"internal_node_id":"0.0-5.0-16.0"},{"rt":1904.4750000000931,"response":{"pregunta30 likert":2},"question_order":[0],"trial_type":"survey-likert","trial_index":22,"time_elapsed":1403240,"internal_node_id":"0.0-5.0-17.0"},{"rt":92191.82499999995,"responses":"{\"pregunta23\":\"a) A la influencia de grupos que rechazaban su música. \"}","question_order":"[0]","trial_type":"survey-multi-choice","trial_index":23,"time_elapsed":1495433,"internal_node_id":"0.0-5.0-18.0"},{"rt":1601.899999999674,"response":{"pregunta23 likert":3},"question_order":[0],"trial_type":"survey-likert","trial_index":24,"time_elapsed":1497036,"internal_node_id":"0.0-5.0-19.0"},{"rt":89007.80500000017,"responses":"{\"pregunta10\":\"c) La biónica puede asegurar nuestra existencia mediante la aplicación de técnicas copiadas de la naturaleza. \"}","question_order":"[0]","trial_type":"survey-multi-choice","trial_index":25,"time_elapsed":1586045,"internal_node_id":"0.0-5.0-20.0"},{"rt":2406.125,"response":{"pregunta10 likert":1},"question_order":[0],"trial_type":"survey-likert","trial_index":26,"time_elapsed":1588452,"internal_node_id":"0.0-5.0-21.0"},{"rt":158891.56000000006,"responses":"{\"pregunta19\":\"b) El hábito de la lectura y el progreso mantienen una relación inversamente proporcional. \"}","question_order":"[0]","trial_type":"survey-multi-choice","trial_index":27,"time_elapsed":1747344,"internal_node_id":"0.0-5.0-22.0"},{"rt":2464.08499999973,"response":{"pregunta19 likert":2},"question_order":[0],"trial_type":"survey-likert","trial_index":28,"time_elapsed":1749809,"internal_node_id":"0.0-5.0-23.0"},{"rt":80623.85499999975,"responses":"{\"pregunta28\":\"c) Se necesita un marco legal para delimitar lo público y lo privado en materia informativa. \"}","question_order":"[0]","trial_type":"survey-multi-choice","trial_index":29,"time_elapsed":1830435,"internal_node_id":"0.0-5.0-24.0"},{"rt":1568.1149999999907,"response":{"pregunta28 likert":3},"question_order":[0],"trial_type":"survey-likert","trial_index":30,"time_elapsed":1832004,"internal_node_id":"0.0-5.0-25.0"},{"rt":64888.64000000013,"responses":"{\"pregunta15\":\"b) ritualistas y obsesivos. \"}","question_order":"[0]","trial_type":"survey-multi-choice","trial_index":31,"time_elapsed":1896893,"internal_node_id":"0.0-5.0-26.0"},{"rt":1587.029999999795,"response":{"pregunta15 likert":3},"question_order":[0],"trial_type":"survey-likert","trial_index":32,"time_elapsed":1898481,"internal_node_id":"0.0-5.0-27.0"},{"rt":139387.66000000015,"responses":"{\"pregunta6\":\"a) Las voces extranjeras viven una tensión entre la aceptación y el rechazo. \"}","question_order":"[0]","trial_type":"survey-multi-choice","trial_index":33,"time_elapsed":2037870,"internal_node_id":"0.0-5.0-28.0"},{"rt":1477.924999999581,"response":{"pregunta6 likert":2},"question_order":[0],"trial_type":"survey-likert","trial_index":34,"time_elapsed":2039349,"internal_node_id":"0.0-5.0-29.0"},{"rt":87969.82499999972,"responses":"{\"pregunta22\":\"c) Bomberos debería tener acceso a un seguro médico, al que pueda recurrir en caso de accidente. \"}","question_order":"[0]","trial_type":"survey-multi-choice","trial_index":35,"time_elapsed":2127320,"internal_node_id":"0.0-5.0-30.0"},{"rt":2536.8149999994785,"response":{"pregunta22 likert":3},"question_order":[0],"trial_type":"survey-likert","trial_index":36,"time_elapsed":2129858,"internal_node_id":"0.0-5.0-31.0"},{"rt":100005.63499999931,"responses":"{\"pregunta18\":\"b) Al premio merecido después de tantos esfuerzos. \"}","question_order":"[0]","trial_type":"survey-multi-choice","trial_index":37,"time_elapsed":2229865,"internal_node_id":"0.0-5.0-32.0"},{"rt":1553.9900000002235,"response":{"pregunta18 likert":2},"question_order":[0],"trial_type":"survey-likert","trial_index":38,"time_elapsed":2231420,"internal_node_id":"0.0-5.0-33.0"},{"rt":72399.875,"responses":"{\"pregunta5\":\"b) La escritura plasma los mejores momentos de los viajes. \"}","question_order":"[0]","trial_type":"survey-multi-choice","trial_index":39,"time_elapsed":2303821,"internal_node_id":"0.0-5.0-34.0"},{"rt":2511.864999999292,"response":{"pregunta5 likert":2},"question_order":[0],"trial_type":"survey-likert","trial_index":40,"time_elapsed":2306334,"internal_node_id":"0.0-5.0-35.0"},{"rt":59085.23999999929,"responses":"{\"pregunta21\":\"b) el uranio es el elemento natural con el mayor número de protones en el núcleo. \"}","question_order":"[0]","trial_type":"survey-multi-choice","trial_index":41,"time_elapsed":2365420,"internal_node_id":"0.0-5.0-36.0"},{"rt":1608.2949999999255,"response":{"pregunta21 likert":3},"question_order":[0],"trial_type":"survey-likert","trial_index":42,"time_elapsed":2367029,"internal_node_id":"0.0-5.0-37.0"},{"rt":119310.73999999976,"responses":"{\"pregunta13\":\"a) El ser humano se comporta de acuerdo con las circunstancias. \"}","question_order":"[0]","trial_type":"survey-multi-choice","trial_index":43,"time_elapsed":2486341,"internal_node_id":"0.0-5.0-38.0"},{"rt":2968.945000000298,"response":{"pregunta13 likert":1},"question_order":[0],"trial_type":"survey-likert","trial_index":44,"time_elapsed":2489311,"internal_node_id":"0.0-5.0-39.0"},{"rt":77587.81999999983,"responses":"{\"pregunta29\":\"a) el jardinero estará muerto al día siguiente. \"}","question_order":"[0]","trial_type":"survey-multi-choice","trial_index":45,"time_elapsed":2566900,"internal_node_id":"0.0-5.0-40.0"},{"rt":1719.890000000596,"response":{"pregunta29 likert":3},"question_order":[0],"trial_type":"survey-likert","trial_index":46,"time_elapsed":2568621,"internal_node_id":"0.0-5.0-41.0"},{"rt":148961.51000000024,"responses":"{\"pregunta20\":\"b) sólo las leyes bastan para gobernarse. \"}","question_order":"[0]","trial_type":"survey-multi-choice","trial_index":47,"time_elapsed":2717584,"internal_node_id":"0.0-5.0-42.0"},{"rt":1615.2199999997392,"response":{"pregunta20 likert":1},"question_order":[0],"trial_type":"survey-likert","trial_index":48,"time_elapsed":2719200,"internal_node_id":"0.0-5.0-43.0"},{"rt":107790.78499999922,"responses":"{\"pregunta17\":\"c) Homenajear a quienes murieron. \"}","question_order":"[0]","trial_type":"survey-multi-choice","trial_index":49,"time_elapsed":2826992,"internal_node_id":"0.0-5.0-44.0"},{"rt":1901.8549999999814,"response":{"pregunta17 likert":2},"question_order":[0],"trial_type":"survey-likert","trial_index":50,"time_elapsed":2828895,"internal_node_id":"0.0-5.0-45.0"},{"rt":137497.66499999957,"responses":"{\"pregunta11\":\"a) Presentar positivamente las diversas tendencias del diseño de interiores a través de un comentario. \"}","question_order":"[0]","trial_type":"survey-multi-choice","trial_index":51,"time_elapsed":2966394,"internal_node_id":"0.0-5.0-46.0"},{"rt":1389.7150000003166,"response":{"pregunta11 likert":2},"question_order":[0],"trial_type":"survey-likert","trial_index":52,"time_elapsed":2967784,"internal_node_id":"0.0-5.0-47.0"},{"rt":95898.59999999916,"responses":"{\"pregunta25\":\"c) sufren dolores de espalda. \"}","question_order":"[0]","trial_type":"survey-multi-choice","trial_index":53,"time_elapsed":3063684,"internal_node_id":"0.0-5.0-48.0"},{"rt":1544.6949999998324,"response":{"pregunta25 likert":3},"question_order":[0],"trial_type":"survey-likert","trial_index":54,"time_elapsed":3065230,"internal_node_id":"0.0-5.0-49.0"},{"rt":90112.70999999903,"responses":"{\"pregunta12\":\"c) se da como existente, y sólo se discute su relación con el cuerpo. \"}","question_order":"[0]","trial_type":"survey-multi-choice","trial_index":55,"time_elapsed":3155344,"internal_node_id":"0.0-5.0-50.0"},{"rt":2272.820000000298,"response":{"pregunta12 likert":3},"question_order":[0],"trial_type":"survey-likert","trial_index":56,"time_elapsed":3157618,"internal_node_id":"0.0-5.0-51.0"},{"rt":84627.32499999925,"responses":"{\"pregunta8\":\"c) Comparar a Cervantes con Quevedo. \"}","question_order":"[0]","trial_type":"survey-multi-choice","trial_index":57,"time_elapsed":3242247,"internal_node_id":"0.0-5.0-52.0"},{"rt":2071.115000000689,"response":{"pregunta8 likert":1},"question_order":[0],"trial_type":"survey-likert","trial_index":58,"time_elapsed":3244319,"internal_node_id":"0.0-5.0-53.0"},{"rt":121262.37500000047,"responses":"{\"pregunta14\":\"b) preparar los recuerdos del mañana. \"}","question_order":"[0]","trial_type":"survey-multi-choice","trial_index":59,"time_elapsed":3365583,"internal_node_id":"0.0-5.0-54.0"},{"rt":1358.904999999795,"response":{"pregunta14 likert":2},"question_order":[0],"trial_type":"survey-likert","trial_index":60,"time_elapsed":3366943,"internal_node_id":"0.0-5.0-55.0"},{"rt":107610.6650000005,"responses":"{\"pregunta7\":\"c) La imprenta y el papel han permitido el desarrollo de la civilización y la conservación de su cultura, y ambos son inventos chinos. \"}","question_order":"[0]","trial_type":"survey-multi-choice","trial_index":61,"time_elapsed":3474555,"internal_node_id":"0.0-5.0-56.0"},{"rt":1735.0349999996834,"response":{"pregunta7 likert":3},"question_order":[0],"trial_type":"survey-likert","trial_index":62,"time_elapsed":3476291,"internal_node_id":"0.0-5.0-57.0"},{"rt":156958.02000000048,"responses":"{\"pregunta4\":\"a) En la literatura como en la vida, lo importante son las preguntas. \"}","question_order":"[0]","trial_type":"survey-multi-choice","trial_index":63,"time_elapsed":3633250,"internal_node_id":"0.0-5.0-58.0"},{"rt":2774.435000000056,"response":{"pregunta4 likert":2},"question_order":[0],"trial_type":"survey-likert","trial_index":64,"time_elapsed":3636026,"internal_node_id":"0.0-5.0-59.0"},{"rt":4133.970000001136,"stimulus":"<p style=\"font-size: 120%\">Gracias por completar esta etapa del estudio. Ahora te invitamos a responder el cuestionario.<br><br></p>","response":0,"trial_type":"html-button-response","trial_index":65,"time_elapsed":3640163,"internal_node_id":"0.0-6.0"},{"rt":24510.584999999963,"stimulus":"<h1 style=\"margin-top: 5%\">Cuestionario para la Evaluación de Metas Académicas</h1><p style=\"font-size: 120%; margin-left: 3%; margin-top: 5%\">Este es un cuestionario que permite conocer cuáles son los principales motivos por los que los estudiantes se esfuerzan en su trabajo académico. A continuación, se te presentarán una serie de afirmaciones acerca de los motivos que puedes tener para estudiar.<br>Te pedimos que contestes a dichas afirmaciones reflexionando sobre el contenido de cada una de ellas, que, aunque te parezcan semejantes, en realidad, no lo son.<br>NO HAY RESPUESTAS CORRECTAS o INCORRECTAS, sólo queremos que respondas con la mayor precisión y sinceridad posible a las preguntas que se plantean.","response":0,"trial_type":"html-button-response","trial_index":66,"time_elapsed":3664674,"internal_node_id":"0.0-7.0"},{"rt":320000.4250000003,"response":{"Metas cuestionario pregunta1":3,"Metas cuestionario pregunta2":4,"Metas cuestionario pregunta3":2,"Metas cuestionario pregunta4":3,"Metas cuestionario pregunta5":4,"Metas cuestionario pregunta6":3,"Metas cuestionario pregunta7":4,"Metas cuestionario pregunta8":4,"Metas cuestionario pregunta9":4,"Metas cuestionario pregunta10":2,"Metas cuestionario pregunta11":0,"Metas cuestionario pregunta12":1,"Metas cuestionario pregunta13":1,"Metas cuestionario pregunta14":3,"Metas cuestionario pregunta15":4,"Metas cuestionario pregunta16":4,"Metas cuestionario pregunta17":4,"Metas cuestionario pregunta18":4,"Metas cuestionario pregunta19":4,"Metas cuestionario pregunta20":1},"question_order":[0,1,2,3,4,5,6,7,8,9,10,11,12,13,14,15,16,17,18,19],"trial_type":"survey-likert","trial_index":67,"time_elapsed":3984678,"internal_node_id":"0.0-8.0"},{"rt":3897.9550000000745,"stimulus":"<p style=\"font-size: 120%\">Gracias por responder el cuestionario. Ahora te invitamos a seguir con el juego, que es muy breve.<br><br></p>","response":0,"trial_type":"html-button-response","trial_index":68,"time_elapsed":3988579,"internal_node_id":"0.0-9.0"},{"rt":11397.119999999646,"stimulus":"<h1>Juego</h1><p style=\"font-size: 120%;\">A continuación se te presentarán 16 pequeñas historias.<br>Por favor lee el texto presentado en cada una de ellas y luego haz click en el objeto de tu elección.<br>Si estás listo(a),<span style=\"color:red;\"> haz click en \"comenzar\"</span>.</p>","response":0,"trial_type":"html-button-response","trial_index":69,"time_elapsed":3999977,"internal_node_id":"0.0-10.0"},{"rt":42183.84499999974,"grid":[[1],[1],[1],[1],[1],[1]],"target":[0,0],"response":[2,0],"correct":false,"juego":5,"trial_type":"serial-reaction-time-mouse","trial_index":70,"time_elapsed":4042163,"internal_node_id":"0.0-11.0-0.0"},{"rt":30332.73499999987,"grid":[[1,1],[1,1],[1,1],[1,1],[1,1],[1,1],[1,1]],"target":[0,0],"response":[1,1],"correct":false,"juego":15,"trial_type":"serial-reaction-time-mouse","trial_index":71,"time_elapsed":4072497,"internal_node_id":"0.0-11.0-1.0"},{"rt":28994.069999999832,"grid":[[1,1,1]],"target":[0,2],"response":[0,2],"correct":true,"juego":3,"trial_type":"serial-reaction-time-mouse","trial_index":72,"time_elapsed":4101492,"internal_node_id":"0.0-11.0-2.0"},{"rt":10680.180000000168,"grid":[[1,1,1]],"target":[0,2],"response":[0,1],"correct":false,"juego":1,"trial_type":"serial-reaction-time-mouse","trial_index":73,"time_elapsed":4112175,"internal_node_id":"0.0-11.0-3.0"},{"rt":13252.42500000028,"grid":[[1,1,1]],"target":[0,2],"response":[0,0],"correct":false,"juego":2,"trial_type":"serial-reaction-time-mouse","trial_index":74,"time_elapsed":4125429,"internal_node_id":"0.0-11.0-4.0"},{"rt":26057.139999999665,"grid":[[1,1,1]],"target":[0,0],"response":[0,0],"correct":true,"juego":9,"trial_type":"serial-reaction-time-mouse","trial_index":75,"time_elapsed":4151487,"internal_node_id":"0.0-11.0-5.0"},{"rt":27250.87000000011,"grid":[[1,1,1],[1,1,1],[1,1,1]],"target":[0,0],"response":[2,2],"correct":false,"juego":10,"trial_type":"serial-reaction-time-mouse","trial_index":76,"time_elapsed":4178739,"internal_node_id":"0.0-11.0-6.0"},{"rt":9407.935000000056,"grid":[[1,1,1]],"target":[0,2],"response":[0,1],"correct":false,"juego":7,"trial_type":"serial-reaction-time-mouse","trial_index":77,"time_elapsed":4188147,"internal_node_id":"0.0-11.0-7.0"},{"rt":7486.305000000633,"grid":[[1],[1],[1]],"target":[0,2],"response":[1,0],"correct":false,"juego":4,"trial_type":"serial-reaction-time-mouse","trial_index":78,"time_elapsed":4195635,"internal_node_id":"0.0-11.0-8.0"},{"rt":8877.735000000335,"grid":[[1,1,1],[1,1,1],[1,1,1],[1,1,1],[1,1,1],[1,1,1],[1,1,1]],"target":[0,0],"response":[1,1],"correct":false,"juego":6,"trial_type":"serial-reaction-time-mouse","trial_index":79,"time_elapsed":4204514,"internal_node_id":"0.0-11.0-9.0"},{"rt":16972.18500000052,"grid":[[1,1,1]],"target":[0,0],"response":[0,0],"correct":true,"juego":11,"trial_type":"serial-reaction-time-mouse","trial_index":80,"time_elapsed":4221487,"internal_node_id":"0.0-11.0-10.0"},{"rt":14089.135000000708,"grid":[[1,1,1]],"target":[0,0],"response":[0,2],"correct":false,"juego":12,"trial_type":"serial-reaction-time-mouse","trial_index":81,"time_elapsed":4235577,"internal_node_id":"0.0-11.0-11.0"},{"rt":11637.600000000559,"grid":[[1,1,1],[1,1,1],[1,1,1],[1,1,1],[1,1,1],[1,1,1],[1,1,1]],"target":[0,0],"response":[3,1],"correct":false,"juego":13,"trial_type":"serial-reaction-time-mouse","trial_index":82,"time_elapsed":4247216,"internal_node_id":"0.0-11.0-12.0"},{"rt":12106.90500000026,"grid":[[1,1],[1,1],[1,1],[1,1],[1,1],[1,1],[1,1]],"target":[0,0],"response":[1,1],"correct":false,"juego":14,"trial_type":"serial-reaction-time-mouse","trial_index":83,"time_elapsed":4259324,"internal_node_id":"0.0-11.0-13.0"},{"rt":17409.959999999963,"grid":[[1,1,1]],"target":[0,2],"response":[0,1],"correct":false,"juego":8,"trial_type":"serial-reaction-time-mouse","trial_index":84,"time_elapsed":4276735,"internal_node_id":"0.0-11.0-14.0"},{"rt":9202.320000000298,"stimulus":"<h1>Último juego</h1><p style=\"font-size: 130%;\">Tienes <span style=\"color:red\">20</span> segundos para recordar los pares de palabras que aparecerán a continuación. <br></p>","response":0,"trial_type":"html-button-response","trial_index":85,"time_elapsed":4285940,"internal_node_id":"0.0-12.0"},{"animation_sequence":[{"stimulus":"imagen_juego_interferencia.jpg","time":513.6150000002235},{"stimulus":"imagen_juego_interferencia.jpg","time":1001.1299999998882},{"stimulus":"imagen_juego_interferencia.jpg","time":1501.5800000000745},{"stimulus":"imagen_juego_interferencia.jpg","time":2001.2099999999627},{"stimulus":"imagen_juego_interferencia.jpg","time":2513.5750000001863},{"stimulus":"imagen_juego_interferencia.jpg","time":3014.9900000002235},{"stimulus":"imagen_juego_interferencia.jpg","time":3502.25},{"stimulus":"imagen_juego_interferencia.jpg","time":4009.80999999959},{"stimulus":"imagen_juego_interferencia.jpg","time":4514.174999999814},{"stimulus":"imagen_juego_interferencia.jpg","time":5006.225000000559},{"stimulus":"imagen_juego_interferencia.jpg","time":5504.655000000261},{"stimulus":"imagen_juego_interferencia.jpg","time":6005.304999999702},{"stimulus":"imagen_juego_interferencia.jpg","time":6502.2949999999255},{"stimulus":"imagen_juego_interferencia.jpg","time":7003.734999999404},{"stimulus":"imagen_juego_interferencia.jpg","time":7502.574999999255},{"stimulus":"imagen_juego_interferencia.jpg","time":8003.359999999404},{"stimulus":"imagen_juego_interferencia.jpg","time":8501.80999999959},{"stimulus":"imagen_juego_interferencia.jpg","time":9001.919999999925},{"stimulus":"imagen_juego_interferencia.jpg","time":9501.160000000149},{"stimulus":"imagen_juego_interferencia.jpg","time":10014.209999999963},{"stimulus":"imagen_juego_interferencia.jpg","time":10500.784999999218},{"stimulus":"imagen_juego_interferencia.jpg","time":11007.599999999627},{"stimulus":"imagen_juego_interferencia.jpg","time":11502.349999999627},{"stimulus":"imagen_juego_interferencia.jpg","time":12013.629999999888},{"stimulus":"imagen_juego_interferencia.jpg","time":12514.52999999933},{"stimulus":"imagen_juego_interferencia.jpg","time":13014.410000000149},{"stimulus":"imagen_juego_interferencia.jpg","time":13513.734999999404},{"stimulus":"imagen_juego_interferencia.jpg","time":14000.945000000298},{"stimulus":"imagen_juego_interferencia.jpg","time":14501.230000000447},{"stimulus":"imagen_juego_interferencia.jpg","time":15001.069999999367},{"stimulus":"imagen_juego_interferencia.jpg","time":15501.269999999553},{"stimulus":"imagen_juego_interferencia.jpg","time":16002.36999999918},{"stimulus":"imagen_juego_interferencia.jpg","time":16504.10000000056},{"stimulus":"imagen_juego_interferencia.jpg","time":17016.514999999665},{"stimulus":"imagen_juego_interferencia.jpg","time":17501.389999999665},{"stimulus":"imagen_juego_interferencia.jpg","time":18000.875},{"stimulus":"imagen_juego_interferencia.jpg","time":18501.02499999944},{"stimulus":"imagen_juego_interferencia.jpg","time":19002.319999999367},{"stimulus":"imagen_juego_interferencia.jpg","time":19502.37999999989},{"stimulus":"imagen_juego_interferencia.jpg","time":20000.71999999974}],"response":[],"trial_type":"animation","trial_index":86,"time_elapsed":4306442,"internal_node_id":"0.0-13.0"},{"rt":14866.794999999925,"responses":"{\"pregunta interferencia2\":\"cigarra\"}","question_order":"[0]","trial_type":"survey-multi-choice-cuest","trial_index":87,"time_elapsed":4321310,"internal_node_id":"0.0-14.0-0.0"},{"rt":5115.945000000298,"responses":"{\"pregunta interferencia1\":\"naranja\"}","question_order":"[0]","trial_type":"survey-multi-choice-cuest","trial_index":88,"time_elapsed":4326427,"internal_node_id":"0.0-14.0-1.0"},{"rt":21305.93500000052,"responses":"{\"pregunta interferencia3\":\"aluminio\"}","question_order":"[0]","trial_type":"survey-multi-choice-cuest","trial_index":89,"time_elapsed":4347734,"internal_node_id":"0.0-14.0-2.0"},{"rt":6951.050000000745,"responses":"{\"pregunta interferencia4\":\"contador\"}","question_order":"[0]","trial_type":"survey-multi-choice-cuest","trial_index":90,"time_elapsed":4354686,"internal_node_id":"0.0-14.0-3.0"},{"success":true,"trial_type":"fullscreen","trial_index":91,"time_elapsed":4355693,"internal_node_id":"0.0-15.0"}]