[{"rt":3768.189999740571,"stimulus":"<h1 style=\"color:red; margin-top: 3%;\">¡Bienvenido(a)!</h1><p style=\"text-align:left; justify-content:space-between; margin-right: 5%; margin-left: 5%; margin-top: 5%\"> Antes de empezar el estudio, necesitamos que nos confirmes que estás de acuerdo con participar. Recuerda que tu participación es 100% voluntaria y que lo único que te pedimos es responder lo mejor que puedas. Recuerda también que el estudio incluye:</p><ol style=\"text-align:left; justify-content:space-between; margin-right: 5%; margin-left: 5%;\"><li> un ejercicio de resolución de preguntas de selección múltiple (30’),</li><li>un cuestionario breve (5’),</li><li>un juego muy breve (3’),</li></ol><p style=\"text-align:left; justify-content:space-between; margin-right: 5%; margin-left: 5%;\">Si quieres participar, haz clic en “Acepto” luego de leer lo siguiente:<br></p><p style=\"text-align:left; justify-content:space-between; margin-right: 5%; margin-left: 5%;\">Acepto participar en el estudio “Estrategias de lectura y resolución de preguntas de selección múltiple”, en los términos aquí señalados:<br></p><p style=\"text-align:left; justify-content:space-between; margin-right: 5%; margin-left: 5%;\"><a href=\"http://ciae.uchile.cl/download.php?file=noticias/Asentimiento.pdf\" target=\"_blank\">Link a la hoja de información del Consentimiento.</a></p><p style=\"text-align:left; justify-content:space-between; margin-right: 5%; margin-left: 5%;\">Declaro que he leído (o se me ha leído) y (he) comprendido, las condiciones de mi participación en este estudio. He tenido la oportunidad de hacer preguntas y éstas han sido respondidas. No tengo dudas al respecto.</p>","response":0,"condicion_MCQ":3,"condicion_INTER":15,"numero_participante":15,"numero_version":2,"dimx":1366,"dimy":768,"color_profundidad":24,"pixel_profundidad":24,"Browser":"Google Chrome","trial_type":"html-button-response","trial_index":0,"time_elapsed":3779,"internal_node_id":"0.0-0.0"},{"success":true,"trial_type":"fullscreen","trial_index":1,"time_elapsed":5883,"internal_node_id":"0.0-1.0"},{"rt":105948.08499980718,"responses":"{\"Nombres\":\"Macarena Claudia\",\"Apellidos\":\"Lisperguer Rojas\",\"Edad\":\"20\",\"Sexo\":\"mujer\",\"Curso\":\"neuro\",\"Colegio\":\"Universidad Andres bello\",\"Contacto\":\"lisperguermacarena@gmail.com\"}","trial_type":"survey-text","trial_index":2,"time_elapsed":111916,"internal_node_id":"0.0-2.0"},{"success":true,"timeout":false,"failed_images":[],"failed_audio":[],"failed_video":[],"trial_type":"preload","trial_index":3,"time_elapsed":113467,"internal_node_id":"0.0-3.0"},{"rt":16820.445000194013,"stimulus":"<h1 style:\"margin-top: 5%;\">Ejercicios de Comprensión de Lectura de la Universidad de Chile</h1><p style=\"font-size: 120%;\">En esta actividad, debes responder 30 preguntas de selección múltiple. Cada pregunta presenta 3 respuestas alternativas, pero sólo una de ellas es correcta. Por lo tanto, debes escoger una sola alternativa para cada pregunta. Además, debes reportar qué tan seguro(a) estás de la respuesta que das, con un:</p><ol style=\"font-size: 120%;text-align:left;margin-left: 40%;\"><li>No estoy seguro(a) para nada</li><li>No estoy muy seguro(a)</li><li>Estoy bastante seguro(a)</li><li>Estoy totalmente seguro(a)</li></ol><p style=\"font-size: 120%;\">Por favor lee bien los enunciados antes de responder. ¡Éxito!</p>","response":0,"trial_type":"html-button-response","trial_index":4,"time_elapsed":130291,"internal_node_id":"0.0-4.0"},{"rt":46841.08999976888,"responses":"{\"pregunta3\":\"b) El inicio de la dinastía Chang. \"}","question_order":"[0]","trial_type":"survey-multi-choice","trial_index":5,"time_elapsed":177140,"internal_node_id":"0.0-5.0-0.0"},{"rt":3366.189999971539,"response":{"pregunta3 likert":1},"question_order":[0],"trial_type":"survey-likert","trial_index":6,"time_elapsed":180515,"internal_node_id":"0.0-5.0-1.0"},{"rt":39252.85999989137,"responses":"{\"pregunta4\":\"c) En la literatura como en la vida, todo es metáfora. \"}","question_order":"[0]","trial_type":"survey-multi-choice","trial_index":7,"time_elapsed":219781,"internal_node_id":"0.0-5.0-2.0"},{"rt":2467.494999989867,"response":{"pregunta4 likert":3},"question_order":[0],"trial_type":"survey-likert","trial_index":8,"time_elapsed":222254,"internal_node_id":"0.0-5.0-3.0"},{"rt":46987.730000168085,"responses":"{\"pregunta6\":\"b) Las voces extranjeras viven una tensión entre la aceptación y el rechazo. \"}","question_order":"[0]","trial_type":"survey-multi-choice","trial_index":9,"time_elapsed":269246,"internal_node_id":"0.0-5.0-4.0"},{"rt":2619.8450000956655,"response":{"pregunta6 likert":2},"question_order":[0],"trial_type":"survey-likert","trial_index":10,"time_elapsed":271871,"internal_node_id":"0.0-5.0-5.0"},{"rt":32582.795000169426,"responses":"{\"pregunta11\":\"c) Promover la asistencia a un evento específico de decoración a través de una atractiva descripción. \"}","question_order":"[0]","trial_type":"survey-multi-choice","trial_index":11,"time_elapsed":304460,"internal_node_id":"0.0-5.0-6.0"},{"rt":2189.1250000335276,"response":{"pregunta11 likert":3},"question_order":[0],"trial_type":"survey-likert","trial_index":12,"time_elapsed":306662,"internal_node_id":"0.0-5.0-7.0"},{"rt":44659.84999993816,"responses":"{\"pregunta12\":\"c) es una realidad discutida por algunos. \"}","question_order":"[0]","trial_type":"survey-multi-choice","trial_index":13,"time_elapsed":351335,"internal_node_id":"0.0-5.0-8.0"},{"rt":5116.179999895394,"response":{"pregunta12 likert":2},"question_order":[0],"trial_type":"survey-likert","trial_index":14,"time_elapsed":356463,"internal_node_id":"0.0-5.0-9.0"},{"rt":78013.92999989912,"responses":"{\"pregunta26\":\"b) el hombre excesivo es inmoral. \"}","question_order":"[0]","trial_type":"survey-multi-choice","trial_index":15,"time_elapsed":434488,"internal_node_id":"0.0-5.0-10.0"},{"rt":3427.8700002469122,"response":{"pregunta26 likert":2},"question_order":[0],"trial_type":"survey-likert","trial_index":16,"time_elapsed":437930,"internal_node_id":"0.0-5.0-11.0"},{"rt":52288.00999978557,"responses":"{\"pregunta13\":\"b) El ser humano se comporta de acuerdo con las circunstancias. \"}","question_order":"[0]","trial_type":"survey-multi-choice","trial_index":17,"time_elapsed":490230,"internal_node_id":"0.0-5.0-12.0"},{"rt":1897.085000295192,"response":{"pregunta13 likert":2},"question_order":[0],"trial_type":"survey-likert","trial_index":18,"time_elapsed":492138,"internal_node_id":"0.0-5.0-13.0"},{"rt":45861.614999827,"responses":"{\"pregunta5\":\"c) La escritura plasma los mejores momentos de los viajes. \"}","question_order":"[0]","trial_type":"survey-multi-choice","trial_index":19,"time_elapsed":538011,"internal_node_id":"0.0-5.0-14.0"},{"rt":2749.559999909252,"response":{"pregunta5 likert":1},"question_order":[0],"trial_type":"survey-likert","trial_index":20,"time_elapsed":540773,"internal_node_id":"0.0-5.0-15.0"},{"rt":70428.72000019997,"responses":"{\"pregunta1\":\"c) Entregan una característica detallada del personaje, a través de la voz narrativa. \"}","question_order":"[0]","trial_type":"survey-multi-choice","trial_index":21,"time_elapsed":611213,"internal_node_id":"0.0-5.0-16.0"},{"rt":2125.264999922365,"response":{"pregunta1 likert":1},"question_order":[0],"trial_type":"survey-likert","trial_index":22,"time_elapsed":613350,"internal_node_id":"0.0-5.0-17.0"},{"rt":68158.68999995291,"responses":"{\"pregunta24\":\"a) El receptor es habitualmente pasivo frente a la publicidad. \"}","question_order":"[0]","trial_type":"survey-multi-choice","trial_index":23,"time_elapsed":681521,"internal_node_id":"0.0-5.0-18.0"},{"rt":2947.4149998277426,"response":{"pregunta24 likert":2},"question_order":[0],"trial_type":"survey-likert","trial_index":24,"time_elapsed":684480,"internal_node_id":"0.0-5.0-19.0"},{"rt":84936.80500006303,"responses":"{\"pregunta29\":\"b) el jardinero estará muerto al día siguiente. \"}","question_order":"[0]","trial_type":"survey-multi-choice","trial_index":25,"time_elapsed":769430,"internal_node_id":"0.0-5.0-20.0"},{"rt":1826.1600001715124,"response":{"pregunta29 likert":3},"question_order":[0],"trial_type":"survey-likert","trial_index":26,"time_elapsed":771268,"internal_node_id":"0.0-5.0-21.0"},{"rt":41059.85000031069,"responses":"{\"pregunta9\":\"c) pueden rendir exámenes para optar y obtener títulos profesionales igual que los hombres. \"}","question_order":"[0]","trial_type":"survey-multi-choice","trial_index":27,"time_elapsed":812339,"internal_node_id":"0.0-5.0-22.0"},{"rt":2685.2299999445677,"response":{"pregunta9 likert":1},"question_order":[0],"trial_type":"survey-likert","trial_index":28,"time_elapsed":815037,"internal_node_id":"0.0-5.0-23.0"},{"rt":34714.77000042796,"responses":"{\"pregunta22\":\"a) Bomberos debería tener acceso a un seguro médico, al que pueda recurrir en caso de accidente. \"}","question_order":"[0]","trial_type":"survey-multi-choice","trial_index":29,"time_elapsed":849764,"internal_node_id":"0.0-5.0-24.0"},{"rt":2557.7699998393655,"response":{"pregunta22 likert":2},"question_order":[0],"trial_type":"survey-likert","trial_index":30,"time_elapsed":852337,"internal_node_id":"0.0-5.0-25.0"},{"rt":36081.57999999821,"responses":"{\"pregunta27\":\"a) El TLC causará una completa transformación de la economía chilena. \"}","question_order":"[0]","trial_type":"survey-multi-choice","trial_index":31,"time_elapsed":888432,"internal_node_id":"0.0-5.0-26.0"},{"rt":2056.1999999918044,"response":{"pregunta27 likert":2},"question_order":[0],"trial_type":"survey-likert","trial_index":32,"time_elapsed":890502,"internal_node_id":"0.0-5.0-27.0"},{"rt":35479.33499980718,"responses":"{\"pregunta16\":\"a) Deleitar a sus receptores por medio de la belleza y el confort. \"}","question_order":"[0]","trial_type":"survey-multi-choice","trial_index":33,"time_elapsed":925993,"internal_node_id":"0.0-5.0-28.0"},{"rt":1360.6549999676645,"response":{"pregunta16 likert":2},"question_order":[0],"trial_type":"survey-likert","trial_index":34,"time_elapsed":927363,"internal_node_id":"0.0-5.0-29.0"},{"rt":35559.630000032485,"responses":"{\"pregunta8\":\"c) Caracterizar al Quijote como un pelmazo. \"}","question_order":"[0]","trial_type":"survey-multi-choice","trial_index":35,"time_elapsed":962928,"internal_node_id":"0.0-5.0-30.0"},{"rt":1701.6800004057586,"response":{"pregunta8 likert":2},"question_order":[0],"trial_type":"survey-likert","trial_index":36,"time_elapsed":964641,"internal_node_id":"0.0-5.0-31.0"},{"rt":99246.34000007063,"responses":"{\"pregunta7\":\"b) Si desaparecieran el papel y la imprenta, se produciría un gran retraso en nuestra civilización. \"}","question_order":"[0]","trial_type":"survey-multi-choice","trial_index":37,"time_elapsed":1063898,"internal_node_id":"0.0-5.0-32.0"},{"rt":2883.1549999304116,"response":{"pregunta7 likert":2},"question_order":[0],"trial_type":"survey-likert","trial_index":38,"time_elapsed":1066793,"internal_node_id":"0.0-5.0-33.0"},{"rt":46923.97500015795,"responses":"{\"pregunta23\":\"a) A la inexistencia de un recinto adecuado para el recital. \"}","question_order":"[0]","trial_type":"survey-multi-choice","trial_index":39,"time_elapsed":1113725,"internal_node_id":"0.0-5.0-34.0"},{"rt":2411.0499997623265,"response":{"pregunta23 likert":1},"question_order":[0],"trial_type":"survey-likert","trial_index":40,"time_elapsed":1116151,"internal_node_id":"0.0-5.0-35.0"},{"rt":25059.49500016868,"responses":"{\"pregunta21\":\"b) a partir de la manipulación del núcleo se han creado elementos químicos naturales. \"}","question_order":"[0]","trial_type":"survey-multi-choice","trial_index":41,"time_elapsed":1141220,"internal_node_id":"0.0-5.0-36.0"},{"rt":2366.254999767989,"response":{"pregunta21 likert":0},"question_order":[0],"trial_type":"survey-likert","trial_index":42,"time_elapsed":1143599,"internal_node_id":"0.0-5.0-37.0"},{"rt":28339.190000202507,"responses":"{\"pregunta18\":\"c) Al premio merecido después de tantos esfuerzos. \"}","question_order":"[0]","trial_type":"survey-multi-choice","trial_index":43,"time_elapsed":1171950,"internal_node_id":"0.0-5.0-38.0"},{"rt":4010.5349998921156,"response":{"pregunta18 likert":2},"question_order":[0],"trial_type":"survey-likert","trial_index":44,"time_elapsed":1175972,"internal_node_id":"0.0-5.0-39.0"},{"rt":91741.1050000228,"responses":"{\"pregunta19\":\"b) Las personas que leen son más flexibles en sus ideas y autónomas en su accionar. \"}","question_order":"[0]","trial_type":"survey-multi-choice","trial_index":45,"time_elapsed":1267721,"internal_node_id":"0.0-5.0-40.0"},{"rt":1436.6000001318753,"response":{"pregunta19 likert":2},"question_order":[0],"trial_type":"survey-likert","trial_index":46,"time_elapsed":1269169,"internal_node_id":"0.0-5.0-41.0"},{"rt":33956.83000003919,"responses":"{\"pregunta10\":\"a) La biónica puede asegurar nuestra existencia mediante la aplicación de técnicas copiadas de la naturaleza. \"}","question_order":"[0]","trial_type":"survey-multi-choice","trial_index":47,"time_elapsed":1303138,"internal_node_id":"0.0-5.0-42.0"},{"rt":2109.5900000073016,"response":{"pregunta10 likert":3},"question_order":[0],"trial_type":"survey-likert","trial_index":48,"time_elapsed":1305260,"internal_node_id":"0.0-5.0-43.0"},{"rt":38454.31000040844,"responses":"{\"pregunta28\":\"c) El derecho a informar y el derecho a la privacidad son inconciliables. \"}","question_order":"[0]","trial_type":"survey-multi-choice","trial_index":49,"time_elapsed":1343725,"internal_node_id":"0.0-5.0-44.0"},{"rt":2452.4100003764033,"response":{"pregunta28 likert":3},"question_order":[0],"trial_type":"survey-likert","trial_index":50,"time_elapsed":1346191,"internal_node_id":"0.0-5.0-45.0"},{"rt":312083.3499999717,"responses":"{\"pregunta25\":\"a) sufren dolores de espalda. \"}","question_order":"[0]","trial_type":"survey-multi-choice","trial_index":51,"time_elapsed":1658286,"internal_node_id":"0.0-5.0-46.0"},{"rt":3998.700000345707,"response":{"pregunta25 likert":3},"question_order":[0],"trial_type":"survey-likert","trial_index":52,"time_elapsed":1662298,"internal_node_id":"0.0-5.0-47.0"},{"rt":66041.31000023335,"responses":"{\"pregunta17\":\"a) Homenajear a quienes murieron. \"}","question_order":"[0]","trial_type":"survey-multi-choice","trial_index":53,"time_elapsed":1729663,"internal_node_id":"0.0-5.0-48.0"},{"rt":1516.6500001214445,"response":{"pregunta17 likert":2},"question_order":[0],"trial_type":"survey-likert","trial_index":54,"time_elapsed":1731192,"internal_node_id":"0.0-5.0-49.0"},{"rt":41772.919999901205,"responses":"{\"pregunta14\":\"c) preparar los recuerdos del mañana. \"}","question_order":"[0]","trial_type":"survey-multi-choice","trial_index":55,"time_elapsed":1772976,"internal_node_id":"0.0-5.0-50.0"},{"rt":2989.1750002279878,"response":{"pregunta14 likert":1},"question_order":[0],"trial_type":"survey-likert","trial_index":56,"time_elapsed":1775978,"internal_node_id":"0.0-5.0-51.0"},{"rt":129841.38499991968,"responses":"{\"pregunta30\":\"c) para el mexicano, la muerte es cotidiana. \"}","question_order":"[0]","trial_type":"survey-multi-choice","trial_index":57,"time_elapsed":1905830,"internal_node_id":"0.0-5.0-52.0"},{"rt":3500.9300000965595,"response":{"pregunta30 likert":3},"question_order":[0],"trial_type":"survey-likert","trial_index":58,"time_elapsed":1909343,"internal_node_id":"0.0-5.0-53.0"},{"rt":43716.44999971613,"responses":"{\"pregunta15\":\"c) ritualistas y obsesivos. \"}","question_order":"[0]","trial_type":"survey-multi-choice","trial_index":59,"time_elapsed":1953070,"internal_node_id":"0.0-5.0-54.0"},{"rt":4573.389999568462,"response":{"pregunta15 likert":3},"question_order":[0],"trial_type":"survey-likert","trial_index":60,"time_elapsed":1957654,"internal_node_id":"0.0-5.0-55.0"},{"rt":29963.590000290424,"responses":"{\"pregunta2\":\"a) A la relación entre civilización y sociedad. \"}","question_order":"[0]","trial_type":"survey-multi-choice","trial_index":61,"time_elapsed":1987629,"internal_node_id":"0.0-5.0-56.0"},{"rt":2114.500000141561,"response":{"pregunta2 likert":1},"question_order":[0],"trial_type":"survey-likert","trial_index":62,"time_elapsed":1989752,"internal_node_id":"0.0-5.0-57.0"},{"rt":17397.79999991879,"responses":"{\"pregunta20\":\"a) la muerte de Wu Ti fue una bendición. \"}","question_order":"[0]","trial_type":"survey-multi-choice","trial_index":63,"time_elapsed":2007162,"internal_node_id":"0.0-5.0-58.0"},{"rt":3771.259999834001,"response":{"pregunta20 likert":0},"question_order":[0],"trial_type":"survey-likert","trial_index":64,"time_elapsed":2010945,"internal_node_id":"0.0-5.0-59.0"}]