[{"rt":10937.464999999975,"stimulus":"<h1 style=\"color:red; margin-top: 3%;\">¡Bienvenido(a)!</h1><p style=\"text-align:left; justify-content:space-between; margin-right: 5%; margin-left: 5%; margin-top: 5%\"> Antes de empezar el estudio, necesitamos que nos confirmes que estás de acuerdo con participar. Recuerda que tu participación es 100% voluntaria y que lo único que te pedimos es responder lo mejor que puedas. Recuerda también que el estudio incluye:</p><ol style=\"text-align:left; justify-content:space-between; margin-right: 5%; margin-left: 5%;\"><li> un ejercicio de resolución de preguntas de selección múltiple (30’),</li><li>un cuestionario breve (5’),</li><li>un juego muy breve (3’),</li></ol><p style=\"text-align:left; justify-content:space-between; margin-right: 5%; margin-left: 5%;\">Si quieres participar, haz clic en “Acepto” luego de leer lo siguiente:<br></p><p style=\"text-align:left; justify-content:space-between; margin-right: 5%; margin-left: 5%;\">Acepto participar en el estudio “Estrategias de lectura y resolución de preguntas de selección múltiple”, en los términos aquí señalados:<br></p><p style=\"text-align:left; justify-content:space-between; margin-right: 5%; margin-left: 5%;\"><a href=\"http://ciae.uchile.cl/download.php?file=noticias/Asentimiento.pdf\" target=\"_blank\">Link a la hoja de información del Consentimiento.</a></p><p style=\"text-align:left; justify-content:space-between; margin-right: 5%; margin-left: 5%;\">Declaro que he leído (o se me ha leído) y (he) comprendido, las condiciones de mi participación en este estudio. He tenido la oportunidad de hacer preguntas y éstas han sido respondidas. No tengo dudas al respecto.</p>","response":0,"condicion_MCQ":1,"condicion_INTER":7,"numero_participante":31,"numero_version":1,"dimx":1366,"dimy":768,"color_profundidad":24,"pixel_profundidad":24,"Browser":"Google Chrome","trial_type":"html-button-response","trial_index":0,"time_elapsed":10942,"internal_node_id":"0.0-0.0"},{"success":true,"trial_type":"fullscreen","trial_index":1,"time_elapsed":21446,"internal_node_id":"0.0-1.0"},{"rt":60147.89999999994,"responses":"{\"Nombres\":\"antonia carolina\",\"Apellidos\":\"flores landaeta\",\"Edad\":\"18\",\"Sexo\":\"mujer\",\"Curso\":\"1ro\",\"Colegio\":\"unab\",\"Contacto\":\"antoniac.flores8@gmail.com\"}","trial_type":"survey-text","trial_index":2,"time_elapsed":81616,"internal_node_id":"0.0-2.0"},{"success":true,"timeout":false,"failed_images":[],"failed_audio":[],"failed_video":[],"trial_type":"preload","trial_index":3,"time_elapsed":84129,"internal_node_id":"0.0-3.0"},{"rt":12381.709999999875,"stimulus":"<h1 style:\"margin-top: 5%;\">Ejercicios de Comprensión de Lectura de la Universidad de Chile</h1><p style=\"font-size: 120%;\">En esta actividad, debes responder 30 preguntas de selección múltiple. Cada pregunta presenta 3 respuestas alternativas, pero sólo una de ellas es correcta. Por lo tanto, debes escoger una sola alternativa para cada pregunta. Además, debes reportar qué tan seguro(a) estás de la respuesta que das, con un:</p><ol style=\"font-size: 120%;text-align:left;margin-left: 40%;\"><li>No estoy seguro(a) para nada</li><li>No estoy muy seguro(a)</li><li>Estoy bastante seguro(a)</li><li>Estoy totalmente seguro(a)</li></ol><p style=\"font-size: 120%;\">Por favor lee bien los enunciados antes de responder. ¡Éxito!</p>","response":0,"trial_type":"html-button-response","trial_index":4,"time_elapsed":96512,"internal_node_id":"0.0-4.0"},{"rt":173583.69999999995,"responses":"{\"pregunta8\":\"c) Dar a conocer al ganador del premio Cervantes. \"}","question_order":"[0]","trial_type":"survey-multi-choice","trial_index":5,"time_elapsed":270098,"internal_node_id":"0.0-5.0-0.0"},{"rt":4119.23000000004,"response":{"pregunta8 likert":1},"question_order":[0],"trial_type":"survey-likert","trial_index":6,"time_elapsed":274220,"internal_node_id":"0.0-5.0-1.0"},{"rt":62786.78999999992,"responses":"{\"pregunta1\":\"b) Aportan informaciones con las que se reconstruye el personaje dentro de un relato. \"}","question_order":"[0]","trial_type":"survey-multi-choice","trial_index":7,"time_elapsed":337008,"internal_node_id":"0.0-5.0-2.0"},{"rt":3915.3099999998813,"response":{"pregunta1 likert":3},"question_order":[0],"trial_type":"survey-likert","trial_index":8,"time_elapsed":340926,"internal_node_id":"0.0-5.0-3.0"},{"rt":69272.89500000008,"responses":"{\"pregunta15\":\"a) ritualistas y obsesivos. \"}","question_order":"[0]","trial_type":"survey-multi-choice","trial_index":9,"time_elapsed":410201,"internal_node_id":"0.0-5.0-4.0"},{"rt":4344.155000000028,"response":{"pregunta15 likert":2},"question_order":[0],"trial_type":"survey-likert","trial_index":10,"time_elapsed":414546,"internal_node_id":"0.0-5.0-5.0"},{"rt":94949.1150000001,"responses":"{\"pregunta20\":\"c) el mejor emperador es el que está muerto. \"}","question_order":"[0]","trial_type":"survey-multi-choice","trial_index":11,"time_elapsed":509497,"internal_node_id":"0.0-5.0-6.0"},{"rt":2945.969999999972,"response":{"pregunta20 likert":1},"question_order":[0],"trial_type":"survey-likert","trial_index":12,"time_elapsed":512446,"internal_node_id":"0.0-5.0-7.0"},{"rt":92582.65499999991,"responses":"{\"pregunta6\":\"c) Las voces extranjeras viven una tensión entre la aceptación y el rechazo. \"}","question_order":"[0]","trial_type":"survey-multi-choice","trial_index":13,"time_elapsed":605030,"internal_node_id":"0.0-5.0-8.0"},{"rt":3735.410000000149,"response":{"pregunta6 likert":2},"question_order":[0],"trial_type":"survey-likert","trial_index":14,"time_elapsed":608767,"internal_node_id":"0.0-5.0-9.0"},{"rt":53684.15499999991,"responses":"{\"pregunta11\":\"a) Promover la asistencia a un evento específico de decoración a través de una atractiva descripción. \"}","question_order":"[0]","trial_type":"survey-multi-choice","trial_index":15,"time_elapsed":662453,"internal_node_id":"0.0-5.0-10.0"},{"rt":2726.105000000098,"response":{"pregunta11 likert":1},"question_order":[0],"trial_type":"survey-likert","trial_index":16,"time_elapsed":665180,"internal_node_id":"0.0-5.0-11.0"},{"rt":58715.63500000001,"responses":"{\"pregunta9\":\"a) pueden rendir exámenes para optar y obtener títulos profesionales igual que los hombres. \"}","question_order":"[0]","trial_type":"survey-multi-choice","trial_index":17,"time_elapsed":723898,"internal_node_id":"0.0-5.0-12.0"},{"rt":3858.6950000004144,"response":{"pregunta9 likert":2},"question_order":[0],"trial_type":"survey-likert","trial_index":18,"time_elapsed":727758,"internal_node_id":"0.0-5.0-13.0"},{"rt":25626.900000000256,"responses":"{\"pregunta2\":\"a) A la relación entre pensamiento y estructura social. \"}","question_order":"[0]","trial_type":"survey-multi-choice","trial_index":19,"time_elapsed":753388,"internal_node_id":"0.0-5.0-14.0"},{"rt":4434.385000000126,"response":{"pregunta2 likert":3},"question_order":[0],"trial_type":"survey-likert","trial_index":20,"time_elapsed":757824,"internal_node_id":"0.0-5.0-15.0"},{"rt":45703.27000000002,"responses":"{\"pregunta29\":\"a) la Muerte vaticina el futuro mediante gestos. \"}","question_order":"[0]","trial_type":"survey-multi-choice","trial_index":21,"time_elapsed":803528,"internal_node_id":"0.0-5.0-16.0"},{"rt":2586.1249999998836,"response":{"pregunta29 likert":2},"question_order":[0],"trial_type":"survey-likert","trial_index":22,"time_elapsed":806116,"internal_node_id":"0.0-5.0-17.0"},{"rt":55108.98499999987,"responses":"{\"pregunta25\":\"b) sufren dolores de espalda. \"}","question_order":"[0]","trial_type":"survey-multi-choice","trial_index":23,"time_elapsed":861227,"internal_node_id":"0.0-5.0-18.0"},{"rt":2402.749999999767,"response":{"pregunta25 likert":2},"question_order":[0],"trial_type":"survey-likert","trial_index":24,"time_elapsed":863632,"internal_node_id":"0.0-5.0-19.0"},{"rt":118610.86000000022,"responses":"{\"pregunta5\":\"c) Los momentos triviales de los viajes, en la escritura se vuelven significativos. \"}","question_order":"[0]","trial_type":"survey-multi-choice","trial_index":25,"time_elapsed":982244,"internal_node_id":"0.0-5.0-20.0"},{"rt":2430.2349999998696,"response":{"pregunta5 likert":3},"question_order":[0],"trial_type":"survey-likert","trial_index":26,"time_elapsed":984676,"internal_node_id":"0.0-5.0-21.0"},{"rt":58235.47499999998,"responses":"{\"pregunta16\":\"c) Provocar el deseo de la adquisición vertiginosa. \"}","question_order":"[0]","trial_type":"survey-multi-choice","trial_index":27,"time_elapsed":1042913,"internal_node_id":"0.0-5.0-22.0"},{"rt":4556.440000000293,"response":{"pregunta16 likert":2},"question_order":[0],"trial_type":"survey-likert","trial_index":28,"time_elapsed":1047472,"internal_node_id":"0.0-5.0-23.0"},{"rt":38676.15500000003,"responses":"{\"pregunta23\":\"c) A la influencia de grupos que rechazaban su música. \"}","question_order":"[0]","trial_type":"survey-multi-choice","trial_index":29,"time_elapsed":1086150,"internal_node_id":"0.0-5.0-24.0"},{"rt":2532.8250000001863,"response":{"pregunta23 likert":2},"question_order":[0],"trial_type":"survey-likert","trial_index":30,"time_elapsed":1088685,"internal_node_id":"0.0-5.0-25.0"},{"rt":43871.745000000345,"responses":"{\"pregunta27\":\"a) Nuestra economía vivirá un proceso de ajuste a la nueva realidad. \"}","question_order":"[0]","trial_type":"survey-multi-choice","trial_index":31,"time_elapsed":1132558,"internal_node_id":"0.0-5.0-26.0"},{"rt":2570.155000000028,"response":{"pregunta27 likert":3},"question_order":[0],"trial_type":"survey-likert","trial_index":32,"time_elapsed":1135130,"internal_node_id":"0.0-5.0-27.0"},{"rt":54930.64999999991,"responses":"{\"pregunta13\":\"c) El ser humano se comporta de acuerdo con las circunstancias. \"}","question_order":"[0]","trial_type":"survey-multi-choice","trial_index":33,"time_elapsed":1190062,"internal_node_id":"0.0-5.0-28.0"},{"rt":2722.2650000001304,"response":{"pregunta13 likert":3},"question_order":[0],"trial_type":"survey-likert","trial_index":34,"time_elapsed":1192786,"internal_node_id":"0.0-5.0-29.0"},{"rt":99642.93000000017,"responses":"{\"pregunta4\":\"c) En la literatura como en la vida, lo importante son las preguntas. \"}","question_order":"[0]","trial_type":"survey-multi-choice","trial_index":35,"time_elapsed":1292431,"internal_node_id":"0.0-5.0-30.0"},{"rt":3164.8499999996275,"response":{"pregunta4 likert":2},"question_order":[0],"trial_type":"survey-likert","trial_index":36,"time_elapsed":1295598,"internal_node_id":"0.0-5.0-31.0"},{"rt":24636.61499999999,"responses":"{\"pregunta22\":\"b) Bomberos debería tener acceso a un seguro médico, al que pueda recurrir en caso de accidente. \"}","question_order":"[0]","trial_type":"survey-multi-choice","trial_index":37,"time_elapsed":1320237,"internal_node_id":"0.0-5.0-32.0"},{"rt":4800.589999999851,"response":{"pregunta22 likert":3},"question_order":[0],"trial_type":"survey-likert","trial_index":38,"time_elapsed":1325039,"internal_node_id":"0.0-5.0-33.0"},{"rt":280589.35999999987,"responses":"{\"pregunta12\":\"a) es una realidad discutida por algunos. \"}","question_order":"[0]","trial_type":"survey-multi-choice","trial_index":39,"time_elapsed":1605630,"internal_node_id":"0.0-5.0-34.0"},{"rt":3547.0999999996275,"response":{"pregunta12 likert":2},"question_order":[0],"trial_type":"survey-likert","trial_index":40,"time_elapsed":1609179,"internal_node_id":"0.0-5.0-35.0"},{"rt":41512.12500000023,"responses":"{\"pregunta3\":\"b) El inicio de la civilización china. \"}","question_order":"[0]","trial_type":"survey-multi-choice","trial_index":41,"time_elapsed":1650692,"internal_node_id":"0.0-5.0-36.0"},{"rt":3014.0099999997765,"response":{"pregunta3 likert":2},"question_order":[0],"trial_type":"survey-likert","trial_index":42,"time_elapsed":1653708,"internal_node_id":"0.0-5.0-37.0"},{"rt":62114.4850000001,"responses":"{\"pregunta10\":\"b) La biónica puede asegurar nuestra existencia mediante la aplicación de técnicas copiadas de la naturaleza. \"}","question_order":"[0]","trial_type":"survey-multi-choice","trial_index":43,"time_elapsed":1715824,"internal_node_id":"0.0-5.0-38.0"},{"rt":3317.195000000065,"response":{"pregunta10 likert":3},"question_order":[0],"trial_type":"survey-likert","trial_index":44,"time_elapsed":1719143,"internal_node_id":"0.0-5.0-39.0"},{"rt":811825.3549999995,"responses":"{\"pregunta7\":\"b) La imprenta y el papel han permitido el desarrollo de la civilización y la conservación de su cultura, y ambos son inventos chinos. \"}","question_order":"[0]","trial_type":"survey-multi-choice","trial_index":45,"time_elapsed":2530971,"internal_node_id":"0.0-5.0-40.0"},{"rt":4317.975000000559,"response":{"pregunta7 likert":2},"question_order":[0],"trial_type":"survey-likert","trial_index":46,"time_elapsed":2535291,"internal_node_id":"0.0-5.0-41.0"},{"rt":38294.830000000075,"responses":"{\"pregunta28\":\"b) Se necesita un marco legal para delimitar lo público y lo privado en materia informativa. \"}","question_order":"[0]","trial_type":"survey-multi-choice","trial_index":47,"time_elapsed":2573587,"internal_node_id":"0.0-5.0-42.0"},{"rt":3687.1600000006147,"response":{"pregunta28 likert":2},"question_order":[0],"trial_type":"survey-likert","trial_index":48,"time_elapsed":2577276,"internal_node_id":"0.0-5.0-43.0"},{"rt":108153.34999999963,"responses":"{\"pregunta17\":\"b) Homenajear a quienes murieron. \"}","question_order":"[0]","trial_type":"survey-multi-choice","trial_index":49,"time_elapsed":2685430,"internal_node_id":"0.0-5.0-44.0"},{"rt":3393.939999999944,"response":{"pregunta17 likert":2},"question_order":[0],"trial_type":"survey-likert","trial_index":50,"time_elapsed":2688826,"internal_node_id":"0.0-5.0-45.0"},{"rt":83145.19000000041,"responses":"{\"pregunta21\":\"a) el uranio es el elemento natural con el mayor número de protones en el núcleo. \"}","question_order":"[0]","trial_type":"survey-multi-choice","trial_index":51,"time_elapsed":2771973,"internal_node_id":"0.0-5.0-46.0"},{"rt":2914.0349999996834,"response":{"pregunta21 likert":2},"question_order":[0],"trial_type":"survey-likert","trial_index":52,"time_elapsed":2774889,"internal_node_id":"0.0-5.0-47.0"},{"rt":44930.0549999997,"responses":"{\"pregunta14\":\"b) un recuerdo nostálgico. \"}","question_order":"[0]","trial_type":"survey-multi-choice","trial_index":53,"time_elapsed":2819821,"internal_node_id":"0.0-5.0-48.0"},{"rt":2154.8199999993667,"response":{"pregunta14 likert":2},"question_order":[0],"trial_type":"survey-likert","trial_index":54,"time_elapsed":2821977,"internal_node_id":"0.0-5.0-49.0"},{"rt":4460.280000000261,"responses":"{\"pregunta19\":\"a) El hábito de la lectura y el progreso mantienen una relación inversamente proporcional. \"}","question_order":"[0]","trial_type":"survey-multi-choice","trial_index":55,"time_elapsed":2826439,"internal_node_id":"0.0-5.0-50.0"},{"rt":1875.035000000149,"response":{"pregunta19 likert":2},"question_order":[0],"trial_type":"survey-likert","trial_index":56,"time_elapsed":2828315,"internal_node_id":"0.0-5.0-51.0"},{"rt":3141.810000000056,"responses":"{\"pregunta26\":\"b) el sujeto sufre con su modo de vida. \"}","question_order":"[0]","trial_type":"survey-multi-choice","trial_index":57,"time_elapsed":2831458,"internal_node_id":"0.0-5.0-52.0"},{"rt":2456.744999999646,"response":{"pregunta26 likert":2},"question_order":[0],"trial_type":"survey-likert","trial_index":58,"time_elapsed":2833917,"internal_node_id":"0.0-5.0-53.0"},{"rt":31359.110000000335,"responses":"{\"pregunta18\":\"c) A la inutilidad de tanto esfuerzo si el objetivo es el reposo. \"}","question_order":"[0]","trial_type":"survey-multi-choice","trial_index":59,"time_elapsed":2865278,"internal_node_id":"0.0-5.0-54.0"},{"rt":2660.785000000149,"response":{"pregunta18 likert":3},"question_order":[0],"trial_type":"survey-likert","trial_index":60,"time_elapsed":2867940,"internal_node_id":"0.0-5.0-55.0"},{"rt":26514.925000000745,"responses":"{\"pregunta30\":\"b) la muerte es distinta en las grandes ciudades. \"}","question_order":"[0]","trial_type":"survey-multi-choice","trial_index":61,"time_elapsed":2894457,"internal_node_id":"0.0-5.0-56.0"},{"rt":3218.8000000002794,"response":{"pregunta30 likert":2},"question_order":[0],"trial_type":"survey-likert","trial_index":62,"time_elapsed":2897678,"internal_node_id":"0.0-5.0-57.0"},{"rt":27962.840000000317,"responses":"{\"pregunta24\":\"b) El receptor es habitualmente pasivo frente a la publicidad. \"}","question_order":"[0]","trial_type":"survey-multi-choice","trial_index":63,"time_elapsed":2925642,"internal_node_id":"0.0-5.0-58.0"},{"rt":2496.554999999702,"response":{"pregunta24 likert":2},"question_order":[0],"trial_type":"survey-likert","trial_index":64,"time_elapsed":2928140,"internal_node_id":"0.0-5.0-59.0"}]