[{"rt":46185.63500000164,"stimulus":"<h1 style=\"color:red; margin-top: 3%;\">¡Bienvenido(a)!</h1><p style=\"text-align:left; justify-content:space-between; margin-right: 5%; margin-left: 5%; margin-top: 5%\"> Antes de empezar el estudio, necesitamos que nos confirmes que estás de acuerdo con participar. Recuerda que tu participación es 100% voluntaria y que lo único que te pedimos es responder lo mejor que puedas. Recuerda también que el estudio incluye:</p><ol style=\"text-align:left; justify-content:space-between; margin-right: 5%; margin-left: 5%;\"><li> un ejercicio de resolución de preguntas de selección múltiple (30’),</li><li>un cuestionario breve (5’),</li><li>un juego muy breve (3’),</li></ol><p style=\"text-align:left; justify-content:space-between; margin-right: 5%; margin-left: 5%;\">Si quieres participar, haz clic en “Acepto” luego de leer lo siguiente:<br></p><p style=\"text-align:left; justify-content:space-between; margin-right: 5%; margin-left: 5%;\">Acepto participar en el estudio “Estrategias de lectura y resolución de preguntas de selección múltiple”, en los términos aquí señalados:<br></p><p style=\"text-align:left; justify-content:space-between; margin-right: 5%; margin-left: 5%;\"><a href=\"http://ciae.uchile.cl/download.php?file=noticias/Asentimiento.pdf\" target=\"_blank\">Link a la hoja de información del Consentimiento.</a></p><p style=\"text-align:left; justify-content:space-between; margin-right: 5%; margin-left: 5%;\">Declaro que he leído (o se me ha leído) y (he) comprendido, las condiciones de mi participación en este estudio. He tenido la oportunidad de hacer preguntas y éstas han sido respondidas. No tengo dudas al respecto.</p>","response":0,"condicion_MCQ":5,"condicion_INTER":11,"numero_participante":11,"numero_version":1,"dimx":1366,"dimy":768,"color_profundidad":24,"pixel_profundidad":24,"Browser":"Google Chrome","trial_type":"html-button-response","trial_index":0,"time_elapsed":46192,"internal_node_id":"0.0-0.0"},{"success":true,"trial_type":"fullscreen","trial_index":1,"time_elapsed":55285,"internal_node_id":"0.0-1.0"},{"rt":127541.22000001371,"responses":"{\"Nombres\":\"Claudia Viviana \",\"Apellidos\":\"Diaz Guevara\",\"Edad\":\"18\",\"Sexo\":\"mujer\",\"Curso\":\"topicos de neurobiologia (primer año de universidad\",\"Colegio\":\"Universidad Andrés Bello\",\"Contacto\":\"c.dazguevara@uandresbello.edu\"}","trial_type":"survey-text","trial_index":2,"time_elapsed":182845,"internal_node_id":"0.0-2.0"},{"success":true,"timeout":false,"failed_images":[],"failed_audio":[],"failed_video":[],"trial_type":"preload","trial_index":3,"time_elapsed":185909,"internal_node_id":"0.0-3.0"},{"rt":18562.860000005458,"stimulus":"<h1 style:\"margin-top: 5%;\">Ejercicios de Comprensión de Lectura de la Universidad de Chile</h1><p style=\"font-size: 120%;\">En esta actividad, debes responder 30 preguntas de selección múltiple. Cada pregunta presenta 3 respuestas alternativas, pero sólo una de ellas es correcta. Por lo tanto, debes escoger una sola alternativa para cada pregunta. Además, debes reportar qué tan seguro(a) estás de la respuesta que das, con un:</p><ol style=\"font-size: 120%;text-align:left;margin-left: 40%;\"><li>No estoy seguro(a) para nada</li><li>No estoy muy seguro(a)</li><li>Estoy bastante seguro(a)</li><li>Estoy totalmente seguro(a)</li></ol><p style=\"font-size: 120%;\">Por favor lee bien los enunciados antes de responder. ¡Éxito!</p>","response":0,"trial_type":"html-button-response","trial_index":4,"time_elapsed":204473,"internal_node_id":"0.0-4.0"},{"rt":109045.06999999285,"responses":"{\"pregunta6\":\"a) Las voces extranjeras viven una tensión entre la aceptación y el rechazo. \"}","question_order":"[0]","trial_type":"survey-multi-choice","trial_index":5,"time_elapsed":313522,"internal_node_id":"0.0-5.0-0.0"},{"rt":4256.400000012945,"response":{"pregunta6 likert":1},"question_order":[0],"trial_type":"survey-likert","trial_index":6,"time_elapsed":317783,"internal_node_id":"0.0-5.0-1.0"},{"rt":52557.15499998769,"responses":"{\"pregunta15\":\"b) ritualistas y obsesivos. \"}","question_order":"[0]","trial_type":"survey-multi-choice","trial_index":7,"time_elapsed":370344,"internal_node_id":"0.0-5.0-2.0"},{"rt":2241.260000038892,"response":{"pregunta15 likert":2},"question_order":[0],"trial_type":"survey-likert","trial_index":8,"time_elapsed":372589,"internal_node_id":"0.0-5.0-3.0"},{"rt":127728.81000000052,"responses":"{\"pregunta9\":\"c) pueden ejercer profesiones científicas de la misma forma en que lo hacen los hombres. \"}","question_order":"[0]","trial_type":"survey-multi-choice","trial_index":9,"time_elapsed":500321,"internal_node_id":"0.0-5.0-4.0"},{"rt":3468.5499999905005,"response":{"pregunta9 likert":3},"question_order":[0],"trial_type":"survey-likert","trial_index":10,"time_elapsed":503793,"internal_node_id":"0.0-5.0-5.0"},{"rt":64046.91500001354,"responses":"{\"pregunta21\":\"b) el uranio es el elemento natural con el mayor número de protones en el núcleo. \"}","question_order":"[0]","trial_type":"survey-multi-choice","trial_index":11,"time_elapsed":567843,"internal_node_id":"0.0-5.0-6.0"},{"rt":2621.979999996256,"response":{"pregunta21 likert":3},"question_order":[0],"trial_type":"survey-likert","trial_index":12,"time_elapsed":570469,"internal_node_id":"0.0-5.0-7.0"},{"rt":24992.250000010245,"responses":"{\"pregunta7\":\"a) La impresión de libros es más importante que otros medios de información y comunicación. \"}","question_order":"[0]","trial_type":"survey-multi-choice","trial_index":13,"time_elapsed":595465,"internal_node_id":"0.0-5.0-8.0"},{"rt":1849.0699999965727,"response":{"pregunta7 likert":1},"question_order":[0],"trial_type":"survey-likert","trial_index":14,"time_elapsed":597318,"internal_node_id":"0.0-5.0-9.0"},{"rt":135425.0100000063,"responses":"{\"pregunta12\":\"c) se da como existente, y sólo se discute su relación con el cuerpo. \"}","question_order":"[0]","trial_type":"survey-multi-choice","trial_index":15,"time_elapsed":732746,"internal_node_id":"0.0-5.0-10.0"},{"rt":2135.8450000407174,"response":{"pregunta12 likert":3},"question_order":[0],"trial_type":"survey-likert","trial_index":16,"time_elapsed":734885,"internal_node_id":"0.0-5.0-11.0"},{"rt":89565.48999994993,"responses":"{\"pregunta19\":\"c) El hábito de la lectura y el progreso mantienen una relación inversamente proporcional. \"}","question_order":"[0]","trial_type":"survey-multi-choice","trial_index":17,"time_elapsed":824454,"internal_node_id":"0.0-5.0-12.0"},{"rt":2071.1599999922328,"response":{"pregunta19 likert":2},"question_order":[0],"trial_type":"survey-likert","trial_index":18,"time_elapsed":826529,"internal_node_id":"0.0-5.0-13.0"},{"rt":58503.19999997737,"responses":"{\"pregunta2\":\"c) A la relación entre sociedad y constitución social. \"}","question_order":"[0]","trial_type":"survey-multi-choice","trial_index":19,"time_elapsed":885035,"internal_node_id":"0.0-5.0-14.0"},{"rt":2400.7950000232086,"response":{"pregunta2 likert":2},"question_order":[0],"trial_type":"survey-likert","trial_index":20,"time_elapsed":887439,"internal_node_id":"0.0-5.0-15.0"},{"rt":80011.54999999562,"responses":"{\"pregunta23\":\"b) A la inexistencia de un recinto adecuado para el recital. \"}","question_order":"[0]","trial_type":"survey-multi-choice","trial_index":21,"time_elapsed":967454,"internal_node_id":"0.0-5.0-16.0"},{"rt":2685.040000011213,"response":{"pregunta23 likert":3},"question_order":[0],"trial_type":"survey-likert","trial_index":22,"time_elapsed":970143,"internal_node_id":"0.0-5.0-17.0"},{"rt":82164.3150000018,"responses":"{\"pregunta16\":\"a) Provocar el deseo de la adquisición vertiginosa. \"}","question_order":"[0]","trial_type":"survey-multi-choice","trial_index":23,"time_elapsed":1052311,"internal_node_id":"0.0-5.0-18.0"},{"rt":2596.704999974463,"response":{"pregunta16 likert":1},"question_order":[0],"trial_type":"survey-likert","trial_index":24,"time_elapsed":1054911,"internal_node_id":"0.0-5.0-19.0"},{"rt":171047.7049999754,"responses":"{\"pregunta3\":\"c) El inicio de la civilización china. \"}","question_order":"[0]","trial_type":"survey-multi-choice","trial_index":25,"time_elapsed":1225962,"internal_node_id":"0.0-5.0-20.0"},{"rt":2097.1400000271387,"response":{"pregunta3 likert":1},"question_order":[0],"trial_type":"survey-likert","trial_index":26,"time_elapsed":1228063,"internal_node_id":"0.0-5.0-21.0"},{"rt":3687.130000034813,"responses":"{\"pregunta11\":\"a) Orientar la opción estética de un grupo de personas en lo que se refiere a la decoración de interiores. \"}","question_order":"[0]","trial_type":"survey-multi-choice","trial_index":27,"time_elapsed":1231754,"internal_node_id":"0.0-5.0-22.0"},{"rt":1724.709999980405,"response":{"pregunta11 likert":1},"question_order":[0],"trial_type":"survey-likert","trial_index":28,"time_elapsed":1233481,"internal_node_id":"0.0-5.0-23.0"},{"rt":2596.0349999950267,"responses":"{\"pregunta17\":\"b) Revivir un periodo histórico. \"}","question_order":"[0]","trial_type":"survey-multi-choice","trial_index":29,"time_elapsed":1236081,"internal_node_id":"0.0-5.0-24.0"},{"rt":3010.0150000071153,"response":{"pregunta17 likert":2},"question_order":[0],"trial_type":"survey-likert","trial_index":30,"time_elapsed":1239095,"internal_node_id":"0.0-5.0-25.0"},{"rt":33184.1199999908,"responses":"{\"pregunta1\":\"c) Aportan informaciones con las que se reconstruye el personaje dentro de un relato. \"}","question_order":"[0]","trial_type":"survey-multi-choice","trial_index":31,"time_elapsed":1272282,"internal_node_id":"0.0-5.0-26.0"},{"rt":1578.2400000025518,"response":{"pregunta1 likert":2},"question_order":[0],"trial_type":"survey-likert","trial_index":32,"time_elapsed":1273864,"internal_node_id":"0.0-5.0-27.0"},{"rt":44442.91499996325,"responses":"{\"pregunta30\":\"b) para el mexicano, la muerte es cotidiana. \"}","question_order":"[0]","trial_type":"survey-multi-choice","trial_index":33,"time_elapsed":1318310,"internal_node_id":"0.0-5.0-28.0"},{"rt":1967.514999967534,"response":{"pregunta30 likert":2},"question_order":[0],"trial_type":"survey-likert","trial_index":34,"time_elapsed":1320283,"internal_node_id":"0.0-5.0-29.0"},{"rt":2213.4099999675527,"responses":"{\"pregunta13\":\"c) Lo que es normal en un asilo es anormal en un campo de concentración. \"}","question_order":"[0]","trial_type":"survey-multi-choice","trial_index":35,"time_elapsed":1322500,"internal_node_id":"0.0-5.0-30.0"},{"rt":1804.035000037402,"response":{"pregunta13 likert":1},"question_order":[0],"trial_type":"survey-likert","trial_index":36,"time_elapsed":1324307,"internal_node_id":"0.0-5.0-31.0"},{"rt":2381.2850000103936,"responses":"{\"pregunta20\":\"b) la muerte de Wu Ti fue una bendición. \"}","question_order":"[0]","trial_type":"survey-multi-choice","trial_index":37,"time_elapsed":1326692,"internal_node_id":"0.0-5.0-32.0"},{"rt":2400.420000019949,"response":{"pregunta20 likert":0},"question_order":[0],"trial_type":"survey-likert","trial_index":38,"time_elapsed":1329095,"internal_node_id":"0.0-5.0-33.0"},{"rt":41049.35500002466,"responses":"{\"pregunta27\":\"a) El TLC causará una completa transformación de la economía chilena. \"}","question_order":"[0]","trial_type":"survey-multi-choice","trial_index":39,"time_elapsed":1370148,"internal_node_id":"0.0-5.0-34.0"},{"rt":2067.994999990333,"response":{"pregunta27 likert":2},"question_order":[0],"trial_type":"survey-likert","trial_index":40,"time_elapsed":1372220,"internal_node_id":"0.0-5.0-35.0"},{"rt":52169.320000044536,"responses":"{\"pregunta18\":\"b) Al premio merecido después de tantos esfuerzos. \"}","question_order":"[0]","trial_type":"survey-multi-choice","trial_index":41,"time_elapsed":1424392,"internal_node_id":"0.0-5.0-36.0"},{"rt":3961.4300000248477,"response":{"pregunta18 likert":3},"question_order":[0],"trial_type":"survey-likert","trial_index":42,"time_elapsed":1428357,"internal_node_id":"0.0-5.0-37.0"},{"rt":7014.665000024252,"responses":"{\"pregunta25\":\"b) llevan un control grupal de su embarazo. \"}","question_order":"[0]","trial_type":"survey-multi-choice","trial_index":43,"time_elapsed":1435374,"internal_node_id":"0.0-5.0-38.0"},{"rt":2105.070000048727,"response":{"pregunta25 likert":0},"question_order":[0],"trial_type":"survey-likert","trial_index":44,"time_elapsed":1437482,"internal_node_id":"0.0-5.0-39.0"},{"rt":34457.28999999119,"responses":"{\"pregunta28\":\"c) Se necesita un marco legal para delimitar lo público y lo privado en materia informativa. \"}","question_order":"[0]","trial_type":"survey-multi-choice","trial_index":45,"time_elapsed":1471943,"internal_node_id":"0.0-5.0-40.0"},{"rt":1489.7099999943748,"response":{"pregunta28 likert":3},"question_order":[0],"trial_type":"survey-likert","trial_index":46,"time_elapsed":1473436,"internal_node_id":"0.0-5.0-41.0"},{"rt":5067.555000016,"responses":"{\"pregunta4\":\"b) Las personas importantes comparten el gusto por la literatura. \"}","question_order":"[0]","trial_type":"survey-multi-choice","trial_index":47,"time_elapsed":1478507,"internal_node_id":"0.0-5.0-42.0"},{"rt":1371.820000000298,"response":{"pregunta4 likert":1},"question_order":[0],"trial_type":"survey-likert","trial_index":48,"time_elapsed":1479882,"internal_node_id":"0.0-5.0-43.0"},{"rt":80961.02499996778,"responses":"{\"pregunta29\":\"a) el jardinero estará muerto al día siguiente. \"}","question_order":"[0]","trial_type":"survey-multi-choice","trial_index":49,"time_elapsed":1560846,"internal_node_id":"0.0-5.0-44.0"},{"rt":1567.7100000320934,"response":{"pregunta29 likert":3},"question_order":[0],"trial_type":"survey-likert","trial_index":50,"time_elapsed":1562417,"internal_node_id":"0.0-5.0-45.0"},{"rt":66306.3250000123,"responses":"{\"pregunta8\":\"b) Comparar a Cervantes con Quevedo. \"}","question_order":"[0]","trial_type":"survey-multi-choice","trial_index":51,"time_elapsed":1628727,"internal_node_id":"0.0-5.0-46.0"},{"rt":2116.9600000139326,"response":{"pregunta8 likert":1},"question_order":[0],"trial_type":"survey-likert","trial_index":52,"time_elapsed":1630847,"internal_node_id":"0.0-5.0-47.0"},{"rt":46067.79499998083,"responses":"{\"pregunta22\":\"c) Bomberos debería tener acceso a un seguro médico, al que pueda recurrir en caso de accidente. \"}","question_order":"[0]","trial_type":"survey-multi-choice","trial_index":53,"time_elapsed":1676918,"internal_node_id":"0.0-5.0-48.0"},{"rt":2548.395000048913,"response":{"pregunta22 likert":2},"question_order":[0],"trial_type":"survey-likert","trial_index":54,"time_elapsed":1679470,"internal_node_id":"0.0-5.0-49.0"},{"rt":51226.67500004172,"responses":"{\"pregunta14\":\"c) la persistencia de la melancolía y la desesperanza. \"}","question_order":"[0]","trial_type":"survey-multi-choice","trial_index":55,"time_elapsed":1730700,"internal_node_id":"0.0-5.0-50.0"},{"rt":1576.3899999437854,"response":{"pregunta14 likert":2},"question_order":[0],"trial_type":"survey-likert","trial_index":56,"time_elapsed":1732280,"internal_node_id":"0.0-5.0-51.0"},{"rt":2732.7199999708682,"responses":"{\"pregunta24\":\"a) La publicidad es dañina para sus receptores. \"}","question_order":"[0]","trial_type":"survey-multi-choice","trial_index":57,"time_elapsed":1735016,"internal_node_id":"0.0-5.0-52.0"},{"rt":2117.244999972172,"response":{"pregunta24 likert":0},"question_order":[0],"trial_type":"survey-likert","trial_index":58,"time_elapsed":1737137,"internal_node_id":"0.0-5.0-53.0"},{"rt":2506.4150000107475,"responses":"{\"pregunta10\":\"b) La biónica es una disciplina que tiene su origen en la ecología. \"}","question_order":"[0]","trial_type":"survey-multi-choice","trial_index":59,"time_elapsed":1739647,"internal_node_id":"0.0-5.0-54.0"},{"rt":1479.2350000352599,"response":{"pregunta10 likert":1},"question_order":[0],"trial_type":"survey-likert","trial_index":60,"time_elapsed":1741129,"internal_node_id":"0.0-5.0-55.0"},{"rt":2016.959999979008,"responses":"{\"pregunta26\":\"c) el hombre excesivo es inmoral. \"}","question_order":"[0]","trial_type":"survey-multi-choice","trial_index":61,"time_elapsed":1743150,"internal_node_id":"0.0-5.0-56.0"},{"rt":2154.655000020284,"response":{"pregunta26 likert":1},"question_order":[0],"trial_type":"survey-likert","trial_index":62,"time_elapsed":1745308,"internal_node_id":"0.0-5.0-57.0"},{"rt":17683.889999985695,"responses":"{\"pregunta5\":\"a) Los momentos triviales de los viajes, en la escritura se vuelven significativos. \"}","question_order":"[0]","trial_type":"survey-multi-choice","trial_index":63,"time_elapsed":1762995,"internal_node_id":"0.0-5.0-58.0"},{"rt":2282.884999993257,"response":{"pregunta5 likert":2},"question_order":[0],"trial_type":"survey-likert","trial_index":64,"time_elapsed":1765282,"internal_node_id":"0.0-5.0-59.0"},{"rt":2885.855000000447,"stimulus":"<p style=\"font-size: 120%\">Gracias por completar esta etapa del estudio. Ahora te invitamos a responder el cuestionario.<br><br></p>","response":0,"trial_type":"html-button-response","trial_index":65,"time_elapsed":1768175,"internal_node_id":"0.0-6.0"},{"rt":25733.16000000341,"stimulus":"<h1 style=\"margin-top: 5%\">Cuestionario para la Evaluación de Metas Académicas</h1><p style=\"font-size: 120%; margin-left: 3%; margin-top: 5%\">Este es un cuestionario que permite conocer cuáles son los principales motivos por los que los estudiantes se esfuerzan en su trabajo académico. A continuación, se te presentarán una serie de afirmaciones acerca de los motivos que puedes tener para estudiar.<br>Te pedimos que contestes a dichas afirmaciones reflexionando sobre el contenido de cada una de ellas, que, aunque te parezcan semejantes, en realidad, no lo son.<br>NO HAY RESPUESTAS CORRECTAS o INCORRECTAS, sólo queremos que respondas con la mayor precisión y sinceridad posible a las preguntas que se plantean.","response":0,"trial_type":"html-button-response","trial_index":66,"time_elapsed":1793910,"internal_node_id":"0.0-7.0"},{"rt":172740.60000001919,"response":{"Metas cuestionario pregunta1":3,"Metas cuestionario pregunta2":4,"Metas cuestionario pregunta3":4,"Metas cuestionario pregunta4":2,"Metas cuestionario pregunta5":3,"Metas cuestionario pregunta6":3,"Metas cuestionario pregunta7":4,"Metas cuestionario pregunta8":4,"Metas cuestionario pregunta9":2,"Metas cuestionario pregunta10":2,"Metas cuestionario pregunta11":2,"Metas cuestionario pregunta12":0,"Metas cuestionario pregunta13":4,"Metas cuestionario pregunta14":3,"Metas cuestionario pregunta15":4,"Metas cuestionario pregunta16":4,"Metas cuestionario pregunta17":4,"Metas cuestionario pregunta18":4,"Metas cuestionario pregunta19":4,"Metas cuestionario pregunta20":4},"question_order":[0,1,2,3,4,5,6,7,8,9,10,11,12,13,14,15,16,17,18,19],"trial_type":"survey-likert","trial_index":67,"time_elapsed":1966663,"internal_node_id":"0.0-8.0"},{"rt":3396.550000004936,"stimulus":"<p style=\"font-size: 120%\">Gracias por responder el cuestionario. Ahora te invitamos a seguir con el juego, que es muy breve.<br><br></p>","response":0,"trial_type":"html-button-response","trial_index":68,"time_elapsed":1970067,"internal_node_id":"0.0-9.0"},{"rt":8533.235000038985,"stimulus":"<h1>Juego</h1><p style=\"font-size: 120%;\">A continuación se te presentarán 16 pequeñas historias.<br>Por favor lee el texto presentado en cada una de ellas y luego haz click en el objeto de tu elección.<br>Si estás listo(a),<span style=\"color:red;\"> haz click en \"comenzar\"</span>.</p>","response":0,"trial_type":"html-button-response","trial_index":69,"time_elapsed":1978603,"internal_node_id":"0.0-10.0"},{"rt":10832.165000028908,"grid":[[1,1],[1,1],[1,1],[1,1],[1,1],[1,1],[1,1]],"target":[0,0],"response":[3,1],"correct":false,"juego":14,"trial_type":"serial-reaction-time-mouse","trial_index":70,"time_elapsed":1989440,"internal_node_id":"0.0-11.0-0.0"},{"rt":12623.140000039712,"grid":[[1,1,1]],"target":[0,0],"response":[0,0],"correct":true,"juego":11,"trial_type":"serial-reaction-time-mouse","trial_index":71,"time_elapsed":2002064,"internal_node_id":"0.0-11.0-1.0"},{"rt":9283.005000033882,"grid":[[1,1],[1,1],[1,1],[1,1],[1,1],[1,1],[1,1]],"target":[0,0],"response":[5,1],"correct":false,"juego":15,"trial_type":"serial-reaction-time-mouse","trial_index":72,"time_elapsed":2011350,"internal_node_id":"0.0-11.0-2.0"},{"rt":7718.194999964908,"grid":[[1,1,1],[1,1,1],[1,1,1],[1,1,1],[1,1,1],[1,1,1],[1,1,1]],"target":[0,0],"response":[3,1],"correct":false,"juego":13,"trial_type":"serial-reaction-time-mouse","trial_index":73,"time_elapsed":2019071,"internal_node_id":"0.0-11.0-3.0"},{"rt":15992.659999988973,"grid":[[1,1,1]],"target":[0,2],"response":[0,0],"correct":false,"juego":3,"trial_type":"serial-reaction-time-mouse","trial_index":74,"time_elapsed":2035066,"internal_node_id":"0.0-11.0-4.0"},{"rt":5752.960000012536,"grid":[[1,1,1]],"target":[0,2],"response":[0,2],"correct":true,"juego":1,"trial_type":"serial-reaction-time-mouse","trial_index":75,"time_elapsed":2040820,"internal_node_id":"0.0-11.0-5.0"},{"rt":8255.179999978282,"grid":[[1,1,1]],"target":[0,2],"response":[0,0],"correct":false,"juego":7,"trial_type":"serial-reaction-time-mouse","trial_index":76,"time_elapsed":2049078,"internal_node_id":"0.0-11.0-6.0"},{"rt":14290.259999979753,"grid":[[1,1,1]],"target":[0,2],"response":[0,1],"correct":false,"juego":2,"trial_type":"serial-reaction-time-mouse","trial_index":77,"time_elapsed":2063370,"internal_node_id":"0.0-11.0-7.0"},{"rt":10023.42000004137,"grid":[[1,1,1]],"target":[0,0],"response":[0,1],"correct":false,"juego":12,"trial_type":"serial-reaction-time-mouse","trial_index":78,"time_elapsed":2073395,"internal_node_id":"0.0-11.0-8.0"},{"rt":7999.215000018012,"grid":[[1,1,1]],"target":[0,0],"response":[0,0],"correct":true,"juego":9,"trial_type":"serial-reaction-time-mouse","trial_index":79,"time_elapsed":2081396,"internal_node_id":"0.0-11.0-9.0"},{"rt":18138.089999963995,"grid":[[1,1,1],[1,1,1],[1,1,1]],"target":[0,0],"response":[1,0],"correct":false,"juego":10,"trial_type":"serial-reaction-time-mouse","trial_index":80,"time_elapsed":2099537,"internal_node_id":"0.0-11.0-10.0"},{"rt":12827.969999983907,"grid":[[1],[1],[1],[1],[1],[1]],"target":[0,0],"response":[2,0],"correct":false,"juego":5,"trial_type":"serial-reaction-time-mouse","trial_index":81,"time_elapsed":2112368,"internal_node_id":"0.0-11.0-11.0"},{"rt":2489.3999999621883,"grid":[[1],[1],[1]],"target":[0,2],"response":[1,0],"correct":false,"juego":4,"trial_type":"serial-reaction-time-mouse","trial_index":82,"time_elapsed":2114859,"internal_node_id":"0.0-11.0-12.0"},{"rt":4085.8700000098906,"grid":[[1,1,1],[1,1,1],[1,1,1],[1,1,1],[1,1,1],[1,1,1],[1,1,1]],"target":[0,0],"response":[1,1],"correct":false,"juego":6,"trial_type":"serial-reaction-time-mouse","trial_index":83,"time_elapsed":2118948,"internal_node_id":"0.0-11.0-13.0"},{"rt":5057.925000030082,"grid":[[1,1,1]],"target":[0,2],"response":[0,2],"correct":true,"juego":8,"trial_type":"serial-reaction-time-mouse","trial_index":84,"time_elapsed":2124008,"internal_node_id":"0.0-11.0-14.0"},{"rt":7583.534999983385,"stimulus":"<h1>Último juego</h1><p style=\"font-size: 130%;\">Tienes <span style=\"color:red\">20</span> segundos para recordar los pares de palabras que aparecerán a continuación. <br></p>","response":0,"trial_type":"html-button-response","trial_index":85,"time_elapsed":2131596,"internal_node_id":"0.0-12.0"},{"animation_sequence":[{"stimulus":"imagen_juego_interferencia.jpg","time":526.1450000107288},{"stimulus":"imagen_juego_interferencia.jpg","time":1012.8350000013597},{"stimulus":"imagen_juego_interferencia.jpg","time":1502.3599999840371},{"stimulus":"imagen_juego_interferencia.jpg","time":2007.4299999978393},{"stimulus":"imagen_juego_interferencia.jpg","time":2513.5799999698065},{"stimulus":"imagen_juego_interferencia.jpg","time":3002.1100000012666},{"stimulus":"imagen_juego_interferencia.jpg","time":3509.510000003502},{"stimulus":"imagen_juego_interferencia.jpg","time":4001.754999975674},{"stimulus":"imagen_juego_interferencia.jpg","time":4511.2849999568425},{"stimulus":"imagen_juego_interferencia.jpg","time":5008.879999979399},{"stimulus":"imagen_juego_interferencia.jpg","time":5513.875000004191},{"stimulus":"imagen_juego_interferencia.jpg","time":6003.584999998566},{"stimulus":"imagen_juego_interferencia.jpg","time":6515.090000000782},{"stimulus":"imagen_juego_interferencia.jpg","time":7005.015000002459},{"stimulus":"imagen_juego_interferencia.jpg","time":7506.4150000107475},{"stimulus":"imagen_juego_interferencia.jpg","time":8002.06500000786},{"stimulus":"imagen_juego_interferencia.jpg","time":8502.370000001974},{"stimulus":"imagen_juego_interferencia.jpg","time":9015.429999970365},{"stimulus":"imagen_juego_interferencia.jpg","time":9502.3499999661},{"stimulus":"imagen_juego_interferencia.jpg","time":10012.899999972433},{"stimulus":"imagen_juego_interferencia.jpg","time":10501.52499997057},{"stimulus":"imagen_juego_interferencia.jpg","time":11002.709999971557},{"stimulus":"imagen_juego_interferencia.jpg","time":11502.869999967515},{"stimulus":"imagen_juego_interferencia.jpg","time":12015.87499998277},{"stimulus":"imagen_juego_interferencia.jpg","time":12512.84499996109},{"stimulus":"imagen_juego_interferencia.jpg","time":13011.179999972228},{"stimulus":"imagen_juego_interferencia.jpg","time":13506.859999964945},{"stimulus":"imagen_juego_interferencia.jpg","time":14001.779999991413},{"stimulus":"imagen_juego_interferencia.jpg","time":14520.374999963678},{"stimulus":"imagen_juego_interferencia.jpg","time":15001.484999957029},{"stimulus":"imagen_juego_interferencia.jpg","time":15517.119999974966},{"stimulus":"imagen_juego_interferencia.jpg","time":16002.229999983683},{"stimulus":"imagen_juego_interferencia.jpg","time":16502.234999963548},{"stimulus":"imagen_juego_interferencia.jpg","time":17001.560000004247},{"stimulus":"imagen_juego_interferencia.jpg","time":17503.909999970347},{"stimulus":"imagen_juego_interferencia.jpg","time":18007.935000001453},{"stimulus":"imagen_juego_interferencia.jpg","time":18505.049999977928},{"stimulus":"imagen_juego_interferencia.jpg","time":19017.42499996908},{"stimulus":"imagen_juego_interferencia.jpg","time":19517.03499996802},{"stimulus":"imagen_juego_interferencia.jpg","time":20013.68500001263}],"response":[],"trial_type":"animation","trial_index":86,"time_elapsed":2152108,"internal_node_id":"0.0-13.0"},{"rt":7861.005000013392,"responses":"{\"pregunta interferencia4\":\"contador\"}","question_order":"[0]","trial_type":"survey-multi-choice-cuest","trial_index":87,"time_elapsed":2159972,"internal_node_id":"0.0-14.0-0.0"},{"rt":6075.729999982286,"responses":"{\"pregunta interferencia1\":\"naranja\"}","question_order":"[0]","trial_type":"survey-multi-choice-cuest","trial_index":88,"time_elapsed":2166052,"internal_node_id":"0.0-14.0-1.0"},{"rt":5516.665000002831,"responses":"{\"pregunta interferencia2\":\"cucaracha\"}","question_order":"[0]","trial_type":"survey-multi-choice-cuest","trial_index":89,"time_elapsed":2171572,"internal_node_id":"0.0-14.0-2.0"},{"rt":7115.5049999943,"responses":"{\"pregunta interferencia3\":\"aluminio\"}","question_order":"[0]","trial_type":"survey-multi-choice-cuest","trial_index":90,"time_elapsed":2178691,"internal_node_id":"0.0-14.0-3.0"},{"success":true,"trial_type":"fullscreen","trial_index":91,"time_elapsed":2179706,"internal_node_id":"0.0-15.0"},{"rt":24521.959999983665,"responses":"{\"Telefono\":\"+56971952901\"}","trial_type":"survey-text","trial_index":92,"time_elapsed":2204238,"internal_node_id":"0.0-16.0"}]