[{"rt":33220.83500000008,"stimulus":"<h1 style=\"color:red; margin-top: 3%;\">¡Bienvenido(a)!</h1><p style=\"text-align:left; justify-content:space-between; margin-right: 5%; margin-left: 5%; margin-top: 5%\"> Antes de empezar el estudio, necesitamos que nos confirmes que estás de acuerdo con participar. Recuerda que tu participación es 100% voluntaria y que lo único que te pedimos es responder lo mejor que puedas. Recuerda también que el estudio incluye:</p><ol style=\"text-align:left; justify-content:space-between; margin-right: 5%; margin-left: 5%;\"><li> un ejercicio de resolución de preguntas de selección múltiple (30’),</li><li>un cuestionario breve (5’),</li><li>un juego muy breve (3’),</li></ol><p style=\"text-align:left; justify-content:space-between; margin-right: 5%; margin-left: 5%;\">Si quieres participar, haz clic en “Acepto” luego de leer lo siguiente:<br></p><p style=\"text-align:left; justify-content:space-between; margin-right: 5%; margin-left: 5%;\">Acepto participar en el estudio “Estrategias de lectura y resolución de preguntas de selección múltiple”, en los términos aquí señalados:<br></p><p style=\"text-align:left; justify-content:space-between; margin-right: 5%; margin-left: 5%;\"><a href=\"http://ciae.uchile.cl/download.php?file=noticias/Asentimiento.pdf\" target=\"_blank\">Link a la hoja de información del Consentimiento.</a></p><p style=\"text-align:left; justify-content:space-between; margin-right: 5%; margin-left: 5%;\">Declaro que he leído (o se me ha leído) y (he) comprendido, las condiciones de mi participación en este estudio. He tenido la oportunidad de hacer preguntas y éstas han sido respondidas. No tengo dudas al respecto.</p>","response":0,"condicion_MCQ":1,"condicion_INTER":7,"numero_participante":7,"numero_version":1,"dimx":1366,"dimy":768,"color_profundidad":24,"pixel_profundidad":24,"Browser":"Google Chrome","trial_type":"html-button-response","trial_index":0,"time_elapsed":33227,"internal_node_id":"0.0-0.0"},{"success":true,"trial_type":"fullscreen","trial_index":1,"time_elapsed":46057,"internal_node_id":"0.0-1.0"},{"rt":85269.66999999968,"responses":"{\"Nombres\":\"Octavio Maximiliano Luciano\",\"Apellidos\":\"Valdebenito Saavedra\",\"Edad\":\"18\",\"Sexo\":\"Hombre\",\"Curso\":\"Psicología primer semestre\",\"Colegio\":\"Universidad Andrés Bello\",\"Contacto\":\"octaviovaldebenito@gmail.com\"}","trial_type":"survey-text","trial_index":2,"time_elapsed":131351,"internal_node_id":"0.0-2.0"},{"success":true,"timeout":false,"failed_images":[],"failed_audio":[],"failed_video":[],"trial_type":"preload","trial_index":3,"time_elapsed":132773,"internal_node_id":"0.0-3.0"},{"rt":33099.005000000034,"stimulus":"<h1 style:\"margin-top: 5%;\">Ejercicios de Comprensión de Lectura de la Universidad de Chile</h1><p style=\"font-size: 120%;\">En esta actividad, debes responder 30 preguntas de selección múltiple. Cada pregunta presenta 3 respuestas alternativas, pero sólo una de ellas es correcta. Por lo tanto, debes escoger una sola alternativa para cada pregunta. Además, debes reportar qué tan seguro(a) estás de la respuesta que das, con un:</p><ol style=\"font-size: 120%;text-align:left;margin-left: 40%;\"><li>No estoy seguro(a) para nada</li><li>No estoy muy seguro(a)</li><li>Estoy bastante seguro(a)</li><li>Estoy totalmente seguro(a)</li></ol><p style=\"font-size: 120%;\">Por favor lee bien los enunciados antes de responder. ¡Éxito!</p>","response":0,"trial_type":"html-button-response","trial_index":4,"time_elapsed":165874,"internal_node_id":"0.0-4.0"},{"rt":128952.7699999999,"responses":"{\"pregunta26\":\"c) el hombre excesivo es inmoral. \"}","question_order":"[0]","trial_type":"survey-multi-choice","trial_index":5,"time_elapsed":294830,"internal_node_id":"0.0-5.0-0.0"},{"rt":4525.719999999623,"response":{"pregunta26 likert":2},"question_order":[0],"trial_type":"survey-likert","trial_index":6,"time_elapsed":299366,"internal_node_id":"0.0-5.0-1.0"},{"rt":80425.65999999992,"responses":"{\"pregunta4\":\"c) En la literatura como en la vida, lo importante son las preguntas. \"}","question_order":"[0]","trial_type":"survey-multi-choice","trial_index":7,"time_elapsed":379802,"internal_node_id":"0.0-5.0-2.0"},{"rt":1736.479999999574,"response":{"pregunta4 likert":3},"question_order":[0],"trial_type":"survey-likert","trial_index":8,"time_elapsed":381550,"internal_node_id":"0.0-5.0-3.0"},{"rt":54706.5700000003,"responses":"{\"pregunta1\":\"b) Aportan informaciones con las que se reconstruye el personaje dentro de un relato. \"}","question_order":"[0]","trial_type":"survey-multi-choice","trial_index":9,"time_elapsed":436266,"internal_node_id":"0.0-5.0-4.0"},{"rt":1527.0250000003143,"response":{"pregunta1 likert":3},"question_order":[0],"trial_type":"survey-likert","trial_index":10,"time_elapsed":437802,"internal_node_id":"0.0-5.0-5.0"},{"rt":78323.09499999974,"responses":"{\"pregunta13\":\"b) El concepto de normalidad es diferente para un psiquiatra que para nosotros. \"}","question_order":"[0]","trial_type":"survey-multi-choice","trial_index":11,"time_elapsed":516133,"internal_node_id":"0.0-5.0-6.0"},{"rt":4147.464999999967,"response":{"pregunta13 likert":3},"question_order":[0],"trial_type":"survey-likert","trial_index":12,"time_elapsed":520289,"internal_node_id":"0.0-5.0-7.0"},{"rt":49760.9649999995,"responses":"{\"pregunta30\":\"a) para el mexicano, la muerte es cotidiana. \"}","question_order":"[0]","trial_type":"survey-multi-choice","trial_index":13,"time_elapsed":570059,"internal_node_id":"0.0-5.0-8.0"},{"rt":2064.580000000191,"response":{"pregunta30 likert":2},"question_order":[0],"trial_type":"survey-likert","trial_index":14,"time_elapsed":572133,"internal_node_id":"0.0-5.0-9.0"},{"rt":43416.44999999972,"responses":"{\"pregunta21\":\"b) la creación de elementos químicos artificiales ha resultado de la manipulación del uranio. \"}","question_order":"[0]","trial_type":"survey-multi-choice","trial_index":15,"time_elapsed":615558,"internal_node_id":"0.0-5.0-10.0"},{"rt":2202.5000000003492,"response":{"pregunta21 likert":3},"question_order":[0],"trial_type":"survey-likert","trial_index":16,"time_elapsed":617770,"internal_node_id":"0.0-5.0-11.0"},{"rt":454606.41500000027,"responses":"{\"pregunta9\":\"a) pueden rendir exámenes para optar y obtener títulos profesionales igual que los hombres. \"}","question_order":"[0]","trial_type":"survey-multi-choice","trial_index":17,"time_elapsed":1072385,"internal_node_id":"0.0-5.0-12.0"},{"rt":2185.9199999999255,"response":{"pregunta9 likert":3},"question_order":[0],"trial_type":"survey-likert","trial_index":18,"time_elapsed":1074580,"internal_node_id":"0.0-5.0-13.0"},{"rt":289091.4099999999,"responses":"{\"pregunta20\":\"a) sólo las leyes bastan para gobernarse. \"}","question_order":"[0]","trial_type":"survey-multi-choice","trial_index":19,"time_elapsed":1363681,"internal_node_id":"0.0-5.0-14.0"},{"rt":2556.1650000000373,"response":{"pregunta20 likert":3},"question_order":[0],"trial_type":"survey-likert","trial_index":20,"time_elapsed":1366247,"internal_node_id":"0.0-5.0-15.0"},{"rt":78761.76500000013,"responses":"{\"pregunta27\":\"a) Nuestra economía vivirá un proceso de ajuste a la nueva realidad. \"}","question_order":"[0]","trial_type":"survey-multi-choice","trial_index":21,"time_elapsed":1445018,"internal_node_id":"0.0-5.0-16.0"},{"rt":2362.4300000001676,"response":{"pregunta27 likert":3},"question_order":[0],"trial_type":"survey-likert","trial_index":22,"time_elapsed":1447390,"internal_node_id":"0.0-5.0-17.0"},{"rt":103070.81000000029,"responses":"{\"pregunta24\":\"b) El receptor es habitualmente pasivo frente a la publicidad. \"}","question_order":"[0]","trial_type":"survey-multi-choice","trial_index":23,"time_elapsed":1550469,"internal_node_id":"0.0-5.0-18.0"},{"rt":1919.2599999997765,"response":{"pregunta24 likert":3},"question_order":[0],"trial_type":"survey-likert","trial_index":24,"time_elapsed":1552398,"internal_node_id":"0.0-5.0-19.0"},{"rt":91726.34000000008,"responses":"{\"pregunta19\":\"c) Las personas que leen son más flexibles en sus ideas y autónomas en su accionar. \"}","question_order":"[0]","trial_type":"survey-multi-choice","trial_index":25,"time_elapsed":1644134,"internal_node_id":"0.0-5.0-20.0"},{"rt":2005.5200000004843,"response":{"pregunta19 likert":3},"question_order":[0],"trial_type":"survey-likert","trial_index":26,"time_elapsed":1646149,"internal_node_id":"0.0-5.0-21.0"},{"rt":101700.97499999963,"responses":"{\"pregunta3\":\"b) El inicio de la civilización china. \"}","question_order":"[0]","trial_type":"survey-multi-choice","trial_index":27,"time_elapsed":1747859,"internal_node_id":"0.0-5.0-22.0"},{"rt":2594.0950000004377,"response":{"pregunta3 likert":2},"question_order":[0],"trial_type":"survey-likert","trial_index":28,"time_elapsed":1750463,"internal_node_id":"0.0-5.0-23.0"},{"rt":43861.48999999929,"responses":"{\"pregunta28\":\"b) Se necesita un marco legal para delimitar lo público y lo privado en materia informativa. \"}","question_order":"[0]","trial_type":"survey-multi-choice","trial_index":29,"time_elapsed":1794334,"internal_node_id":"0.0-5.0-24.0"},{"rt":2957.6150000004563,"response":{"pregunta28 likert":3},"question_order":[0],"trial_type":"survey-likert","trial_index":30,"time_elapsed":1797302,"internal_node_id":"0.0-5.0-25.0"},{"rt":70745.36999999965,"responses":"{\"pregunta15\":\"a) ritualistas y obsesivos. \"}","question_order":"[0]","trial_type":"survey-multi-choice","trial_index":31,"time_elapsed":1868056,"internal_node_id":"0.0-5.0-26.0"},{"rt":1833.5350000006147,"response":{"pregunta15 likert":3},"question_order":[0],"trial_type":"survey-likert","trial_index":32,"time_elapsed":1869899,"internal_node_id":"0.0-5.0-27.0"},{"rt":2214325.785000001,"responses":"{\"pregunta10\":\"b) La biónica puede asegurar nuestra existencia mediante la aplicación de técnicas copiadas de la naturaleza. \"}","question_order":"[0]","trial_type":"survey-multi-choice","trial_index":33,"time_elapsed":4084234,"internal_node_id":"0.0-5.0-28.0"},{"rt":1239.7000000001863,"response":{"pregunta10 likert":2},"question_order":[0],"trial_type":"survey-likert","trial_index":34,"time_elapsed":4085483,"internal_node_id":"0.0-5.0-29.0"},{"rt":35567.50500000082,"responses":"{\"pregunta22\":\"b) Bomberos debería tener acceso a un seguro médico, al que pueda recurrir en caso de accidente. \"}","question_order":"[0]","trial_type":"survey-multi-choice","trial_index":35,"time_elapsed":4121063,"internal_node_id":"0.0-5.0-30.0"},{"rt":1509.6849999991246,"response":{"pregunta22 likert":3},"question_order":[0],"trial_type":"survey-likert","trial_index":36,"time_elapsed":4122583,"internal_node_id":"0.0-5.0-31.0"},{"rt":59286.84000000078,"responses":"{\"pregunta8\":\"b) Comparar a Cervantes con Quevedo. \"}","question_order":"[0]","trial_type":"survey-multi-choice","trial_index":37,"time_elapsed":4181879,"internal_node_id":"0.0-5.0-32.0"},{"rt":1880.5800000010058,"response":{"pregunta8 likert":3},"question_order":[0],"trial_type":"survey-likert","trial_index":38,"time_elapsed":4183771,"internal_node_id":"0.0-5.0-33.0"},{"rt":71880.98499999987,"responses":"{\"pregunta23\":\"c) A la influencia de grupos que rechazaban su música. \"}","question_order":"[0]","trial_type":"survey-multi-choice","trial_index":39,"time_elapsed":4255663,"internal_node_id":"0.0-5.0-34.0"},{"rt":2054.699999999255,"response":{"pregunta23 likert":3},"question_order":[0],"trial_type":"survey-likert","trial_index":40,"time_elapsed":4257731,"internal_node_id":"0.0-5.0-35.0"},{"rt":45573.199999999255,"responses":"{\"pregunta16\":\"c) Provocar el deseo de la adquisición vertiginosa. \"}","question_order":"[0]","trial_type":"survey-multi-choice","trial_index":41,"time_elapsed":4303315,"internal_node_id":"0.0-5.0-36.0"},{"rt":1706.4200000008568,"response":{"pregunta16 likert":3},"question_order":[0],"trial_type":"survey-likert","trial_index":42,"time_elapsed":4305031,"internal_node_id":"0.0-5.0-37.0"},{"rt":1050579.5599999996,"responses":"{\"pregunta12\":\"b) se da como existente, y sólo se discute su relación con el cuerpo. \"}","question_order":"[0]","trial_type":"survey-multi-choice","trial_index":43,"time_elapsed":5355625,"internal_node_id":"0.0-5.0-38.0"},{"rt":1812.9049999983981,"response":{"pregunta12 likert":3},"question_order":[0],"trial_type":"survey-likert","trial_index":44,"time_elapsed":5357453,"internal_node_id":"0.0-5.0-39.0"},{"rt":68453.28499999922,"responses":"{\"pregunta11\":\"a) Promover la asistencia a un evento específico de decoración a través de una atractiva descripción. \"}","question_order":"[0]","trial_type":"survey-multi-choice","trial_index":45,"time_elapsed":5425916,"internal_node_id":"0.0-5.0-40.0"},{"rt":1650.949999999255,"response":{"pregunta11 likert":3},"question_order":[0],"trial_type":"survey-likert","trial_index":46,"time_elapsed":5427577,"internal_node_id":"0.0-5.0-41.0"},{"rt":107989.5999999987,"responses":"{\"pregunta6\":\"c) Las voces extranjeras viven una tensión entre la aceptación y el rechazo. \"}","question_order":"[0]","trial_type":"survey-multi-choice","trial_index":47,"time_elapsed":5535576,"internal_node_id":"0.0-5.0-42.0"},{"rt":1589.429999999702,"response":{"pregunta6 likert":3},"question_order":[0],"trial_type":"survey-likert","trial_index":48,"time_elapsed":5537176,"internal_node_id":"0.0-5.0-43.0"},{"rt":91026.77500000037,"responses":"{\"pregunta7\":\"b) La imprenta y el papel han permitido el desarrollo de la civilización y la conservación de su cultura, y ambos son inventos chinos. \"}","question_order":"[0]","trial_type":"survey-multi-choice","trial_index":49,"time_elapsed":5628217,"internal_node_id":"0.0-5.0-44.0"},{"rt":1865.1650000009686,"response":{"pregunta7 likert":2},"question_order":[0],"trial_type":"survey-likert","trial_index":50,"time_elapsed":5630092,"internal_node_id":"0.0-5.0-45.0"},{"rt":252289.3400000017,"responses":"{\"pregunta5\":\"a) La escritura plasma los mejores momentos de los viajes. \"}","question_order":"[0]","trial_type":"survey-multi-choice","trial_index":51,"time_elapsed":5882392,"internal_node_id":"0.0-5.0-46.0"},{"rt":1734.7249999996275,"response":{"pregunta5 likert":2},"question_order":[0],"trial_type":"survey-likert","trial_index":52,"time_elapsed":5884140,"internal_node_id":"0.0-5.0-47.0"},{"rt":139175.19500000123,"responses":"{\"pregunta25\":\"b) sufren dolores de espalda. \"}","question_order":"[0]","trial_type":"survey-multi-choice","trial_index":53,"time_elapsed":6023324,"internal_node_id":"0.0-5.0-48.0"},{"rt":2866.2449999991804,"response":{"pregunta25 likert":2},"question_order":[0],"trial_type":"survey-likert","trial_index":54,"time_elapsed":6026199,"internal_node_id":"0.0-5.0-49.0"},{"rt":72004.45500000007,"responses":"{\"pregunta2\":\"a) A la relación entre pensamiento y estructura social. \"}","question_order":"[0]","trial_type":"survey-multi-choice","trial_index":55,"time_elapsed":6098216,"internal_node_id":"0.0-5.0-50.0"},{"rt":2103.1150000002235,"response":{"pregunta2 likert":3},"question_order":[0],"trial_type":"survey-likert","trial_index":56,"time_elapsed":6100332,"internal_node_id":"0.0-5.0-51.0"},{"rt":61538.52500000037,"responses":"{\"pregunta18\":\"c) A la inutilidad de tanto esfuerzo si el objetivo es el reposo. \"}","question_order":"[0]","trial_type":"survey-multi-choice","trial_index":57,"time_elapsed":6161879,"internal_node_id":"0.0-5.0-52.0"},{"rt":1728.3849999997765,"response":{"pregunta18 likert":3},"question_order":[0],"trial_type":"survey-likert","trial_index":58,"time_elapsed":6163620,"internal_node_id":"0.0-5.0-53.0"},{"rt":89840.13999999966,"responses":"{\"pregunta17\":\"a) Atraer a los turistas. \"}","question_order":"[0]","trial_type":"survey-multi-choice","trial_index":59,"time_elapsed":6253471,"internal_node_id":"0.0-5.0-54.0"},{"rt":2831.6899999994785,"response":{"pregunta17 likert":2},"question_order":[0],"trial_type":"survey-likert","trial_index":60,"time_elapsed":6256314,"internal_node_id":"0.0-5.0-55.0"},{"rt":75294.99000000022,"responses":"{\"pregunta14\":\"c) la persistencia de la melancolía y la desesperanza. \"}","question_order":"[0]","trial_type":"survey-multi-choice","trial_index":61,"time_elapsed":6331619,"internal_node_id":"0.0-5.0-56.0"},{"rt":2443.695000000298,"response":{"pregunta14 likert":2},"question_order":[0],"trial_type":"survey-likert","trial_index":62,"time_elapsed":6334071,"internal_node_id":"0.0-5.0-57.0"},{"rt":69795.26499999873,"responses":"{\"pregunta29\":\"c) el jardinero estará muerto al día siguiente. \"}","question_order":"[0]","trial_type":"survey-multi-choice","trial_index":63,"time_elapsed":6403879,"internal_node_id":"0.0-5.0-58.0"},{"rt":2789.5499999998137,"response":{"pregunta29 likert":2},"question_order":[0],"trial_type":"survey-likert","trial_index":64,"time_elapsed":6406682,"internal_node_id":"0.0-5.0-59.0"},{"rt":2568.320000000298,"stimulus":"<p style=\"font-size: 120%\">Gracias por completar esta etapa del estudio. Ahora te invitamos a responder el cuestionario.<br><br></p>","response":0,"trial_type":"html-button-response","trial_index":65,"time_elapsed":6409263,"internal_node_id":"0.0-6.0"},{"rt":14931.474999999627,"stimulus":"<h1 style=\"margin-top: 5%\">Cuestionario para la Evaluación de Metas Académicas</h1><p style=\"font-size: 120%; margin-left: 3%; margin-top: 5%\">Este es un cuestionario que permite conocer cuáles son los principales motivos por los que los estudiantes se esfuerzan en su trabajo académico. A continuación, se te presentarán una serie de afirmaciones acerca de los motivos que puedes tener para estudiar.<br>Te pedimos que contestes a dichas afirmaciones reflexionando sobre el contenido de cada una de ellas, que, aunque te parezcan semejantes, en realidad, no lo son.<br>NO HAY RESPUESTAS CORRECTAS o INCORRECTAS, sólo queremos que respondas con la mayor precisión y sinceridad posible a las preguntas que se plantean.","response":0,"trial_type":"html-button-response","trial_index":66,"time_elapsed":6424198,"internal_node_id":"0.0-7.0"},{"rt":92190.55500000156,"response":{"Metas cuestionario pregunta1":3,"Metas cuestionario pregunta2":2,"Metas cuestionario pregunta3":3,"Metas cuestionario pregunta4":2,"Metas cuestionario pregunta5":2,"Metas cuestionario pregunta6":2,"Metas cuestionario pregunta7":2,"Metas cuestionario pregunta8":2,"Metas cuestionario pregunta9":0,"Metas cuestionario pregunta10":0,"Metas cuestionario pregunta11":0,"Metas cuestionario pregunta12":0,"Metas cuestionario pregunta13":0,"Metas cuestionario pregunta14":0,"Metas cuestionario pregunta15":2,"Metas cuestionario pregunta16":1,"Metas cuestionario pregunta17":2,"Metas cuestionario pregunta18":2,"Metas cuestionario pregunta19":2,"Metas cuestionario pregunta20":2},"question_order":[0,1,2,3,4,5,6,7,8,9,10,11,12,13,14,15,16,17,18,19],"trial_type":"survey-likert","trial_index":67,"time_elapsed":6516400,"internal_node_id":"0.0-8.0"}]