[{"rt":8163685,"stimulus":"<h1 style=\"color:red; margin-top: 3%;\">¡Bienvenido(a)!</h1><p style=\"text-align:left; justify-content:space-between; margin-right: 5%; margin-left: 5%; margin-top: 5%\"> Antes de empezar el estudio, necesitamos que nos confirmes que estás de acuerdo con participar. Recuerda que tu participación es 100% voluntaria y que lo único que te pedimos es responder lo mejor que puedas. Recuerda también que el estudio incluye:</p><ol style=\"text-align:left; justify-content:space-between; margin-right: 5%; margin-left: 5%;\"><li> un ejercicio de resolución de preguntas de selección múltiple (30’),</li><li>un cuestionario breve (5’),</li><li>un juego muy breve (3’),</li></ol><p style=\"text-align:left; justify-content:space-between; margin-right: 5%; margin-left: 5%;\">Si quieres participar, haz clic en “Acepto” luego de leer lo siguiente:<br></p><p style=\"text-align:left; justify-content:space-between; margin-right: 5%; margin-left: 5%;\">Acepto participar en el estudio “Estrategias de lectura y resolución de preguntas de selección múltiple”, en los términos aquí señalados:<br></p><p style=\"text-align:left; justify-content:space-between; margin-right: 5%; margin-left: 5%;\"><a href=\"http://ciae.uchile.cl/download.php?file=noticias/Asentimiento.pdf\" target=\"_blank\">Link a la hoja de información del Consentimiento.</a></p><p style=\"text-align:left; justify-content:space-between; margin-right: 5%; margin-left: 5%;\">Declaro que he leído (o se me ha leído) y (he) comprendido, las condiciones de mi participación en este estudio. He tenido la oportunidad de hacer preguntas y éstas han sido respondidas. No tengo dudas al respecto.</p>","response":0,"condicion_MCQ":5,"condicion_INTER":17,"numero_participante":65,"numero_version":1,"dimx":1280,"dimy":720,"color_profundidad":24,"pixel_profundidad":24,"Browser":"Google Chrome","trial_type":"html-button-response","trial_index":0,"time_elapsed":8163644,"internal_node_id":"0.0-0.0"},{"success":true,"trial_type":"fullscreen","trial_index":1,"time_elapsed":8183955,"internal_node_id":"0.0-1.0"},{"rt":127173.09999990463,"responses":"{\"Nombres\":\"Kattia Belén\",\"Apellidos\":\"Sepúlveda Venegas\",\"Edad\":\"19\",\"Sexo\":\"mujer\",\"Curso\":\"Primero\",\"Colegio\":\"Universidad Andres Bello\",\"Contacto\":\"k.seplvedavenegas@uandresbello.edu\"}","trial_type":"survey-text","trial_index":2,"time_elapsed":8311146,"internal_node_id":"0.0-2.0"},{"success":true,"timeout":false,"failed_images":[],"failed_audio":[],"failed_video":[],"trial_type":"preload","trial_index":3,"time_elapsed":8311803,"internal_node_id":"0.0-3.0"},{"rt":24779.900000095367,"stimulus":"<h1 style:\"margin-top: 5%;\">Ejercicios de Comprensión de Lectura de la Universidad de Chile</h1><p style=\"font-size: 120%;\">En esta actividad, debes responder 30 preguntas de selección múltiple. Cada pregunta presenta 3 respuestas alternativas, pero sólo una de ellas es correcta. Por lo tanto, debes escoger una sola alternativa para cada pregunta. Además, debes reportar qué tan seguro(a) estás de la respuesta que das, con un:</p><ol style=\"font-size: 120%;text-align:left;margin-left: 40%;\"><li>No estoy seguro(a) para nada</li><li>No estoy muy seguro(a)</li><li>Estoy bastante seguro(a)</li><li>Estoy totalmente seguro(a)</li></ol><p style=\"font-size: 120%;\">Por favor lee bien los enunciados antes de responder. ¡Éxito!</p>","response":0,"trial_type":"html-button-response","trial_index":4,"time_elapsed":8336586,"internal_node_id":"0.0-4.0"},{"rt":36789.90000009537,"responses":"{\"pregunta21\":\"b) el uranio es el elemento natural con el mayor número de protones en el núcleo. \"}","question_order":"[0]","trial_type":"survey-multi-choice","trial_index":5,"time_elapsed":8373378,"internal_node_id":"0.0-5.0-0.0"},{"rt":3678.2000000476837,"response":{"pregunta21 likert":3},"question_order":[0],"trial_type":"survey-likert","trial_index":6,"time_elapsed":8377058,"internal_node_id":"0.0-5.0-1.0"},{"rt":33077.800000190735,"responses":"{\"pregunta28\":\"a) El derecho a informar y el derecho a la privacidad son inconciliables. \"}","question_order":"[0]","trial_type":"survey-multi-choice","trial_index":7,"time_elapsed":8410138,"internal_node_id":"0.0-5.0-2.0"},{"rt":2174.2999999523163,"response":{"pregunta28 likert":3},"question_order":[0],"trial_type":"survey-likert","trial_index":8,"time_elapsed":8412314,"internal_node_id":"0.0-5.0-3.0"},{"rt":53621.90000009537,"responses":"{\"pregunta15\":\"b) ritualistas y obsesivos. \"}","question_order":"[0]","trial_type":"survey-multi-choice","trial_index":9,"time_elapsed":8465938,"internal_node_id":"0.0-5.0-4.0"},{"rt":1549.3999998569489,"response":{"pregunta15 likert":3},"question_order":[0],"trial_type":"survey-likert","trial_index":10,"time_elapsed":8467489,"internal_node_id":"0.0-5.0-5.0"},{"rt":77718.59999990463,"responses":"{\"pregunta11\":\"b) Promover la asistencia a un evento específico de decoración a través de una atractiva descripción. \"}","question_order":"[0]","trial_type":"survey-multi-choice","trial_index":11,"time_elapsed":8545209,"internal_node_id":"0.0-5.0-6.0"},{"rt":2654.0999999046326,"response":{"pregunta11 likert":1},"question_order":[0],"trial_type":"survey-likert","trial_index":12,"time_elapsed":8547866,"internal_node_id":"0.0-5.0-7.0"},{"rt":93975.60000014305,"responses":"{\"pregunta26\":\"a) el sujeto sufre con su modo de vida. \"}","question_order":"[0]","trial_type":"survey-multi-choice","trial_index":13,"time_elapsed":8641844,"internal_node_id":"0.0-5.0-8.0"},{"rt":1580.5,"response":{"pregunta26 likert":2},"question_order":[0],"trial_type":"survey-likert","trial_index":14,"time_elapsed":8643426,"internal_node_id":"0.0-5.0-9.0"},{"rt":57798.199999809265,"responses":"{\"pregunta25\":\"c) sufren dolores de espalda. \"}","question_order":"[0]","trial_type":"survey-multi-choice","trial_index":15,"time_elapsed":8701225,"internal_node_id":"0.0-5.0-10.0"},{"rt":1701.9000000953674,"response":{"pregunta25 likert":3},"question_order":[0],"trial_type":"survey-likert","trial_index":16,"time_elapsed":8702929,"internal_node_id":"0.0-5.0-11.0"},{"rt":49574.200000047684,"responses":"{\"pregunta30\":\"b) para el mexicano, la muerte es cotidiana. \"}","question_order":"[0]","trial_type":"survey-multi-choice","trial_index":17,"time_elapsed":8752506,"internal_node_id":"0.0-5.0-12.0"},{"rt":1318,"response":{"pregunta30 likert":2},"question_order":[0],"trial_type":"survey-likert","trial_index":18,"time_elapsed":8753826,"internal_node_id":"0.0-5.0-13.0"},{"rt":37511.10000014305,"responses":"{\"pregunta1\":\"a) Entregan una característica detallada del personaje, a través de la voz narrativa. \"}","question_order":"[0]","trial_type":"survey-multi-choice","trial_index":19,"time_elapsed":8791339,"internal_node_id":"0.0-5.0-14.0"},{"rt":1300.5,"response":{"pregunta1 likert":2},"question_order":[0],"trial_type":"survey-likert","trial_index":20,"time_elapsed":8792642,"internal_node_id":"0.0-5.0-15.0"},{"rt":2703.600000143051,"responses":"{\"pregunta10\":\"a) La biónica es una disciplina que aprovecha las condiciones del entorno. \"}","question_order":"[0]","trial_type":"survey-multi-choice","trial_index":21,"time_elapsed":8795347,"internal_node_id":"0.0-5.0-16.0"},{"rt":2180.899999856949,"response":{"pregunta10 likert":1},"question_order":[0],"trial_type":"survey-likert","trial_index":22,"time_elapsed":8797531,"internal_node_id":"0.0-5.0-17.0"},{"rt":1757.3000001907349,"responses":"{\"pregunta18\":\"a) Al deseo de privilegiar el ocio por sobre el trabajo. \"}","question_order":"[0]","trial_type":"survey-multi-choice","trial_index":23,"time_elapsed":8799290,"internal_node_id":"0.0-5.0-18.0"},{"rt":1630.5,"response":{"pregunta18 likert":2},"question_order":[0],"trial_type":"survey-likert","trial_index":24,"time_elapsed":8800921,"internal_node_id":"0.0-5.0-19.0"},{"rt":1614.4000000953674,"responses":"{\"pregunta27\":\"c) Será difícil que las empresas nacionales compitan con las estadounidenses. \"}","question_order":"[0]","trial_type":"survey-multi-choice","trial_index":25,"time_elapsed":8802537,"internal_node_id":"0.0-5.0-20.0"},{"rt":1198.5,"response":{"pregunta27 likert":1},"question_order":[0],"trial_type":"survey-likert","trial_index":26,"time_elapsed":8803737,"internal_node_id":"0.0-5.0-21.0"},{"rt":4422.099999904633,"responses":"{\"pregunta20\":\"b) la muerte de Wu Ti fue una bendición. \"}","question_order":"[0]","trial_type":"survey-multi-choice","trial_index":27,"time_elapsed":8808161,"internal_node_id":"0.0-5.0-22.0"},{"rt":1598.4000000953674,"response":{"pregunta20 likert":2},"question_order":[0],"trial_type":"survey-likert","trial_index":28,"time_elapsed":8809761,"internal_node_id":"0.0-5.0-23.0"},{"rt":1710.0999999046326,"responses":"{\"pregunta23\":\"c) A la temática satánica de las canciones del grupo. \"}","question_order":"[0]","trial_type":"survey-multi-choice","trial_index":29,"time_elapsed":8811473,"internal_node_id":"0.0-5.0-24.0"},{"rt":1190.5999999046326,"response":{"pregunta23 likert":2},"question_order":[0],"trial_type":"survey-likert","trial_index":30,"time_elapsed":8812666,"internal_node_id":"0.0-5.0-25.0"},{"rt":1766,"responses":"{\"pregunta19\":\"a) Las personas que leen son más flexibles en sus ideas y autónomas en su accionar. \"}","question_order":"[0]","trial_type":"survey-multi-choice","trial_index":31,"time_elapsed":8814433,"internal_node_id":"0.0-5.0-26.0"},{"rt":1302.1999998092651,"response":{"pregunta19 likert":2},"question_order":[0],"trial_type":"survey-likert","trial_index":32,"time_elapsed":8815738,"internal_node_id":"0.0-5.0-27.0"},{"rt":1983.0999999046326,"responses":"{\"pregunta17\":\"a) Atraer a los turistas. \"}","question_order":"[0]","trial_type":"survey-multi-choice","trial_index":33,"time_elapsed":8817723,"internal_node_id":"0.0-5.0-28.0"},{"rt":1100.5,"response":{"pregunta17 likert":2},"question_order":[0],"trial_type":"survey-likert","trial_index":34,"time_elapsed":8818826,"internal_node_id":"0.0-5.0-29.0"},{"rt":1093.2999999523163,"responses":"{\"pregunta4\":\"c) En la literatura como en la vida, todo es metáfora. \"}","question_order":"[0]","trial_type":"survey-multi-choice","trial_index":35,"time_elapsed":8819921,"internal_node_id":"0.0-5.0-30.0"},{"rt":1031.6000001430511,"response":{"pregunta4 likert":2},"question_order":[0],"trial_type":"survey-likert","trial_index":36,"time_elapsed":8820955,"internal_node_id":"0.0-5.0-31.0"},{"rt":1476.5,"responses":"{\"pregunta22\":\"c) Bomberos debería tener acceso a un seguro médico, al que pueda recurrir en caso de accidente. \"}","question_order":"[0]","trial_type":"survey-multi-choice","trial_index":37,"time_elapsed":8822433,"internal_node_id":"0.0-5.0-32.0"},{"rt":942.2000000476837,"response":{"pregunta22 likert":2},"question_order":[0],"trial_type":"survey-likert","trial_index":38,"time_elapsed":8823378,"internal_node_id":"0.0-5.0-33.0"},{"rt":2621.4000000953674,"responses":"{\"pregunta3\":\"a) El origen de las grandes civilizaciones. \"}","question_order":"[0]","trial_type":"survey-multi-choice","trial_index":39,"time_elapsed":8826001,"internal_node_id":"0.0-5.0-34.0"},{"rt":1342.4000000953674,"response":{"pregunta3 likert":2},"question_order":[0],"trial_type":"survey-likert","trial_index":40,"time_elapsed":8827346,"internal_node_id":"0.0-5.0-35.0"},{"rt":1261.8000001907349,"responses":"{\"pregunta24\":\"c) El receptor es habitualmente pasivo frente a la publicidad. \"}","question_order":"[0]","trial_type":"survey-multi-choice","trial_index":41,"time_elapsed":8828609,"internal_node_id":"0.0-5.0-36.0"},{"rt":1118.3999998569489,"response":{"pregunta24 likert":1},"question_order":[0],"trial_type":"survey-likert","trial_index":42,"time_elapsed":8829730,"internal_node_id":"0.0-5.0-37.0"},{"rt":1429.7999999523163,"responses":"{\"pregunta2\":\"c) A la relación entre sociedad y constitución social. \"}","question_order":"[0]","trial_type":"survey-multi-choice","trial_index":43,"time_elapsed":8831162,"internal_node_id":"0.0-5.0-38.0"},{"rt":1190,"response":{"pregunta2 likert":1},"question_order":[0],"trial_type":"survey-likert","trial_index":44,"time_elapsed":8832354,"internal_node_id":"0.0-5.0-39.0"},{"rt":1381.7999999523163,"responses":"{\"pregunta14\":\"b) preparar los recuerdos del mañana. \"}","question_order":"[0]","trial_type":"survey-multi-choice","trial_index":45,"time_elapsed":8833738,"internal_node_id":"0.0-5.0-40.0"},{"rt":1117.8999998569489,"response":{"pregunta14 likert":1},"question_order":[0],"trial_type":"survey-likert","trial_index":46,"time_elapsed":8834857,"internal_node_id":"0.0-5.0-41.0"},{"rt":1197.5,"responses":"{\"pregunta29\":\"a) el jardinero estará muerto al día siguiente. \"}","question_order":"[0]","trial_type":"survey-multi-choice","trial_index":47,"time_elapsed":8836057,"internal_node_id":"0.0-5.0-42.0"},{"rt":1158.2000000476837,"response":{"pregunta29 likert":2},"question_order":[0],"trial_type":"survey-likert","trial_index":48,"time_elapsed":8837218,"internal_node_id":"0.0-5.0-43.0"},{"rt":1742,"responses":"{\"pregunta12\":\"a) es una realidad discutida por algunos. \"}","question_order":"[0]","trial_type":"survey-multi-choice","trial_index":49,"time_elapsed":8838961,"internal_node_id":"0.0-5.0-44.0"},{"rt":1086.0999999046326,"response":{"pregunta12 likert":1},"question_order":[0],"trial_type":"survey-likert","trial_index":50,"time_elapsed":8840049,"internal_node_id":"0.0-5.0-45.0"},{"rt":2319.5,"responses":"{\"pregunta7\":\"a) La impresión de libros es más importante que otros medios de información y comunicación. \"}","question_order":"[0]","trial_type":"survey-multi-choice","trial_index":51,"time_elapsed":8842370,"internal_node_id":"0.0-5.0-46.0"},{"rt":1621.5999999046326,"response":{"pregunta7 likert":1},"question_order":[0],"trial_type":"survey-likert","trial_index":52,"time_elapsed":8843993,"internal_node_id":"0.0-5.0-47.0"},{"rt":1446.2000000476837,"responses":"{\"pregunta9\":\"b) pueden rendir exámenes para optar y obtener títulos profesionales igual que los hombres. \"}","question_order":"[0]","trial_type":"survey-multi-choice","trial_index":53,"time_elapsed":8845441,"internal_node_id":"0.0-5.0-48.0"},{"rt":975.3999998569489,"response":{"pregunta9 likert":2},"question_order":[0],"trial_type":"survey-likert","trial_index":54,"time_elapsed":8846418,"internal_node_id":"0.0-5.0-49.0"},{"rt":1589.8999998569489,"responses":"{\"pregunta13\":\"a) El ser humano se comporta de acuerdo con las circunstancias. \"}","question_order":"[0]","trial_type":"survey-multi-choice","trial_index":55,"time_elapsed":8848010,"internal_node_id":"0.0-5.0-50.0"},{"rt":1334,"response":{"pregunta13 likert":1},"question_order":[0],"trial_type":"survey-likert","trial_index":56,"time_elapsed":8849345,"internal_node_id":"0.0-5.0-51.0"},{"rt":1358.5,"responses":"{\"pregunta5\":\"c) La escritura plasma los mejores momentos de los viajes. \"}","question_order":"[0]","trial_type":"survey-multi-choice","trial_index":57,"time_elapsed":8850705,"internal_node_id":"0.0-5.0-52.0"},{"rt":1270.2999999523163,"response":{"pregunta5 likert":1},"question_order":[0],"trial_type":"survey-likert","trial_index":58,"time_elapsed":8851977,"internal_node_id":"0.0-5.0-53.0"},{"rt":1687.5,"responses":"{\"pregunta16\":\"a) Provocar el deseo de la adquisición vertiginosa. \"}","question_order":"[0]","trial_type":"survey-multi-choice","trial_index":59,"time_elapsed":8853666,"internal_node_id":"0.0-5.0-54.0"},{"rt":1221,"response":{"pregunta16 likert":2},"question_order":[0],"trial_type":"survey-likert","trial_index":60,"time_elapsed":8854889,"internal_node_id":"0.0-5.0-55.0"},{"rt":2559.7000000476837,"responses":"{\"pregunta8\":\"c) Caracterizar al Quijote como un pelmazo. \"}","question_order":"[0]","trial_type":"survey-multi-choice","trial_index":61,"time_elapsed":8857451,"internal_node_id":"0.0-5.0-56.0"},{"rt":1589,"response":{"pregunta8 likert":1},"question_order":[0],"trial_type":"survey-likert","trial_index":62,"time_elapsed":8859041,"internal_node_id":"0.0-5.0-57.0"},{"rt":2142.2000000476837,"responses":"{\"pregunta6\":\"a) Las voces extranjeras viven una tensión entre la aceptación y el rechazo. \"}","question_order":"[0]","trial_type":"survey-multi-choice","trial_index":63,"time_elapsed":8861185,"internal_node_id":"0.0-5.0-58.0"},{"rt":1542.7000000476837,"response":{"pregunta6 likert":2},"question_order":[0],"trial_type":"survey-likert","trial_index":64,"time_elapsed":8862730,"internal_node_id":"0.0-5.0-59.0"},{"rt":1154.6000001430511,"stimulus":"<p style=\"font-size: 120%\">Gracias por completar esta etapa del estudio. Ahora te invitamos a responder el cuestionario.<br><br></p>","response":0,"trial_type":"html-button-response","trial_index":65,"time_elapsed":8863890,"internal_node_id":"0.0-6.0"},{"rt":4486.299999952316,"stimulus":"<h1 style=\"margin-top: 5%\">Cuestionario para la Evaluación de Metas Académicas</h1><p style=\"font-size: 120%; margin-left: 3%; margin-top: 5%\">Este es un cuestionario que permite conocer cuáles son los principales motivos por los que los estudiantes se esfuerzan en su trabajo académico. A continuación, se te presentarán una serie de afirmaciones acerca de los motivos que puedes tener para estudiar.<br>Te pedimos que contestes a dichas afirmaciones reflexionando sobre el contenido de cada una de ellas, que, aunque te parezcan semejantes, en realidad, no lo son.<br>NO HAY RESPUESTAS CORRECTAS o INCORRECTAS, sólo queremos que respondas con la mayor precisión y sinceridad posible a las preguntas que se plantean.","response":0,"trial_type":"html-button-response","trial_index":66,"time_elapsed":8868377,"internal_node_id":"0.0-7.0"},{"rt":153517.20000004768,"response":{"Metas cuestionario pregunta1":2,"Metas cuestionario pregunta2":0,"Metas cuestionario pregunta3":3,"Metas cuestionario pregunta4":1,"Metas cuestionario pregunta5":0,"Metas cuestionario pregunta6":3,"Metas cuestionario pregunta7":2,"Metas cuestionario pregunta8":3,"Metas cuestionario pregunta9":0,"Metas cuestionario pregunta10":0,"Metas cuestionario pregunta11":0,"Metas cuestionario pregunta12":0,"Metas cuestionario pregunta13":0,"Metas cuestionario pregunta14":0,"Metas cuestionario pregunta15":3,"Metas cuestionario pregunta16":4,"Metas cuestionario pregunta17":4,"Metas cuestionario pregunta18":4,"Metas cuestionario pregunta19":0,"Metas cuestionario pregunta20":0},"question_order":[0,1,2,3,4,5,6,7,8,9,10,11,12,13,14,15,16,17,18,19],"trial_type":"survey-likert","trial_index":67,"time_elapsed":9021903,"internal_node_id":"0.0-8.0"},{"rt":1262.0999999046326,"stimulus":"<p style=\"font-size: 120%\">Gracias por responder el cuestionario. Ahora te invitamos a seguir con el juego, que es muy breve.<br><br></p>","response":0,"trial_type":"html-button-response","trial_index":68,"time_elapsed":9023169,"internal_node_id":"0.0-9.0"},{"rt":9022.599999904633,"stimulus":"<h1>Juego</h1><p style=\"font-size: 120%;\">A continuación se te presentarán 16 pequeñas historias.<br>Por favor lee el texto presentado en cada una de ellas y luego haz click en el objeto de tu elección.<br>Si estás listo(a),<span style=\"color:red;\"> haz click en \"comenzar\"</span>.</p>","response":0,"trial_type":"html-button-response","trial_index":69,"time_elapsed":9032193,"internal_node_id":"0.0-10.0"},{"rt":10353.099999904633,"grid":[[1,1,1],[1,1,1],[1,1,1],[1,1,1],[1,1,1],[1,1,1],[1,1,1]],"target":[0,0],"response":[3,1],"correct":false,"juego":13,"trial_type":"serial-reaction-time-mouse","trial_index":70,"time_elapsed":9042549,"internal_node_id":"0.0-11.0-0.0"},{"rt":12156.700000047684,"grid":[[1,1,1],[1,1,1],[1,1,1]],"target":[0,0],"response":[2,2],"correct":false,"juego":10,"trial_type":"serial-reaction-time-mouse","trial_index":71,"time_elapsed":9054709,"internal_node_id":"0.0-11.0-1.0"},{"rt":5634.299999952316,"grid":[[1],[1],[1],[1],[1],[1]],"target":[0,0],"response":[2,0],"correct":false,"juego":5,"trial_type":"serial-reaction-time-mouse","trial_index":72,"time_elapsed":9060347,"internal_node_id":"0.0-11.0-2.0"},{"rt":10252.200000047684,"grid":[[1,1,1]],"target":[0,0],"response":[0,1],"correct":false,"juego":11,"trial_type":"serial-reaction-time-mouse","trial_index":73,"time_elapsed":9070603,"internal_node_id":"0.0-11.0-3.0"},{"rt":5652.900000095367,"grid":[[1,1,1]],"target":[0,0],"response":[0,0],"correct":true,"juego":9,"trial_type":"serial-reaction-time-mouse","trial_index":74,"time_elapsed":9076259,"internal_node_id":"0.0-11.0-4.0"},{"rt":8581.899999856949,"grid":[[1,1,1]],"target":[0,0],"response":[0,2],"correct":false,"juego":12,"trial_type":"serial-reaction-time-mouse","trial_index":75,"time_elapsed":9084844,"internal_node_id":"0.0-11.0-5.0"},{"rt":12195.200000047684,"grid":[[1,1],[1,1],[1,1],[1,1],[1,1],[1,1],[1,1]],"target":[0,0],"response":[5,1],"correct":false,"juego":14,"trial_type":"serial-reaction-time-mouse","trial_index":76,"time_elapsed":9097044,"internal_node_id":"0.0-11.0-6.0"},{"rt":4219.5,"grid":[[1,1,1]],"target":[0,2],"response":[0,0],"correct":false,"juego":2,"trial_type":"serial-reaction-time-mouse","trial_index":77,"time_elapsed":9101268,"internal_node_id":"0.0-11.0-7.0"},{"rt":3307.600000143051,"grid":[[1,1,1],[1,1,1],[1,1,1],[1,1,1],[1,1,1],[1,1,1],[1,1,1]],"target":[0,0],"response":[1,1],"correct":false,"juego":6,"trial_type":"serial-reaction-time-mouse","trial_index":78,"time_elapsed":9104580,"internal_node_id":"0.0-11.0-8.0"},{"rt":7940,"grid":[[1,1,1]],"target":[0,2],"response":[0,0],"correct":false,"juego":3,"trial_type":"serial-reaction-time-mouse","trial_index":79,"time_elapsed":9112524,"internal_node_id":"0.0-11.0-9.0"},{"rt":8780.400000095367,"grid":[[1,1,1]],"target":[0,2],"response":[0,2],"correct":true,"juego":8,"trial_type":"serial-reaction-time-mouse","trial_index":80,"time_elapsed":9121308,"internal_node_id":"0.0-11.0-10.0"},{"rt":1612.2999999523163,"grid":[[1],[1],[1]],"target":[0,2],"response":[0,0],"correct":false,"juego":4,"trial_type":"serial-reaction-time-mouse","trial_index":81,"time_elapsed":9122924,"internal_node_id":"0.0-11.0-11.0"},{"rt":1660.7000000476837,"grid":[[1,1,1]],"target":[0,2],"response":[0,2],"correct":true,"juego":7,"trial_type":"serial-reaction-time-mouse","trial_index":82,"time_elapsed":9124587,"internal_node_id":"0.0-11.0-12.0"},{"rt":1726,"grid":[[1,1,1]],"target":[0,2],"response":[0,0],"correct":false,"juego":1,"trial_type":"serial-reaction-time-mouse","trial_index":83,"time_elapsed":9126315,"internal_node_id":"0.0-11.0-13.0"},{"rt":7636.799999952316,"grid":[[1,1],[1,1],[1,1],[1,1],[1,1],[1,1],[1,1]],"target":[0,0],"response":[1,1],"correct":false,"juego":15,"trial_type":"serial-reaction-time-mouse","trial_index":84,"time_elapsed":9133955,"internal_node_id":"0.0-11.0-14.0"},{"rt":4000.4000000953674,"stimulus":"<h1>Último juego</h1><p style=\"font-size: 130%;\">Tienes <span style=\"color:red\">20</span> segundos para recordar los pares de palabras que aparecerán a continuación. <br></p>","response":0,"trial_type":"html-button-response","trial_index":85,"time_elapsed":9137961,"internal_node_id":"0.0-12.0"},{"animation_sequence":[{"stimulus":"imagen_juego_interferencia.jpg","time":527.2999999523163},{"stimulus":"imagen_juego_interferencia.jpg","time":1001.4000000953674},{"stimulus":"imagen_juego_interferencia.jpg","time":1502.2999999523163},{"stimulus":"imagen_juego_interferencia.jpg","time":2001.6000001430511},{"stimulus":"imagen_juego_interferencia.jpg","time":2501.4000000953674},{"stimulus":"imagen_juego_interferencia.jpg","time":3001.7999999523163},{"stimulus":"imagen_juego_interferencia.jpg","time":3501.7999999523163},{"stimulus":"imagen_juego_interferencia.jpg","time":4002},{"stimulus":"imagen_juego_interferencia.jpg","time":4502.200000047684},{"stimulus":"imagen_juego_interferencia.jpg","time":5001.600000143051},{"stimulus":"imagen_juego_interferencia.jpg","time":5502.100000143051},{"stimulus":"imagen_juego_interferencia.jpg","time":6002.900000095367},{"stimulus":"imagen_juego_interferencia.jpg","time":6501.900000095367},{"stimulus":"imagen_juego_interferencia.jpg","time":7002.200000047684},{"stimulus":"imagen_juego_interferencia.jpg","time":7501.799999952316},{"stimulus":"imagen_juego_interferencia.jpg","time":8002.5},{"stimulus":"imagen_juego_interferencia.jpg","time":8501.799999952316},{"stimulus":"imagen_juego_interferencia.jpg","time":9002.100000143051},{"stimulus":"imagen_juego_interferencia.jpg","time":9502.100000143051},{"stimulus":"imagen_juego_interferencia.jpg","time":10001.100000143051},{"stimulus":"imagen_juego_interferencia.jpg","time":10501.700000047684},{"stimulus":"imagen_juego_interferencia.jpg","time":11001.5},{"stimulus":"imagen_juego_interferencia.jpg","time":11501.299999952316},{"stimulus":"imagen_juego_interferencia.jpg","time":12001.400000095367},{"stimulus":"imagen_juego_interferencia.jpg","time":12501.100000143051},{"stimulus":"imagen_juego_interferencia.jpg","time":13001.100000143051},{"stimulus":"imagen_juego_interferencia.jpg","time":13501.100000143051},{"stimulus":"imagen_juego_interferencia.jpg","time":14001.799999952316},{"stimulus":"imagen_juego_interferencia.jpg","time":14501.200000047684},{"stimulus":"imagen_juego_interferencia.jpg","time":15002.299999952316},{"stimulus":"imagen_juego_interferencia.jpg","time":15501.600000143051},{"stimulus":"imagen_juego_interferencia.jpg","time":16002.700000047684},{"stimulus":"imagen_juego_interferencia.jpg","time":16501.900000095367},{"stimulus":"imagen_juego_interferencia.jpg","time":17002.200000047684},{"stimulus":"imagen_juego_interferencia.jpg","time":17501.700000047684},{"stimulus":"imagen_juego_interferencia.jpg","time":18001},{"stimulus":"imagen_juego_interferencia.jpg","time":18502.299999952316},{"stimulus":"imagen_juego_interferencia.jpg","time":19001.10000014305},{"stimulus":"imagen_juego_interferencia.jpg","time":19502.799999952316},{"stimulus":"imagen_juego_interferencia.jpg","time":20003.10000014305}],"response":[],"trial_type":"animation","trial_index":86,"time_elapsed":9158465,"internal_node_id":"0.0-13.0"},{"rt":4686.099999904633,"responses":"{\"pregunta interferencia4\":\"contador\"}","question_order":"[0]","trial_type":"survey-multi-choice-cuest","trial_index":87,"time_elapsed":9163154,"internal_node_id":"0.0-14.0-0.0"},{"rt":3910.2000000476837,"responses":"{\"pregunta interferencia3\":\"aluminio\"}","question_order":"[0]","trial_type":"survey-multi-choice-cuest","trial_index":88,"time_elapsed":9167065,"internal_node_id":"0.0-14.0-1.0"},{"rt":5590.300000190735,"responses":"{\"pregunta interferencia2\":\"saltamontes\"}","question_order":"[0]","trial_type":"survey-multi-choice-cuest","trial_index":89,"time_elapsed":9172658,"internal_node_id":"0.0-14.0-2.0"},{"rt":3229.7999999523163,"responses":"{\"pregunta interferencia1\":\"naranja\"}","question_order":"[0]","trial_type":"survey-multi-choice-cuest","trial_index":90,"time_elapsed":9175889,"internal_node_id":"0.0-14.0-3.0"},{"success":true,"trial_type":"fullscreen","trial_index":91,"time_elapsed":9176892,"internal_node_id":"0.0-15.0"},{"rt":19470,"responses":"{\"Telefono\":\"\"}","trial_type":"survey-text","trial_index":92,"time_elapsed":9196378,"internal_node_id":"0.0-16.0"}]