[{"rt":1404003.3199999598,"stimulus":"<h1 style=\"color:red; margin-top: 3%;\">¡Bienvenido(a)!</h1><p style=\"text-align:left; justify-content:space-between; margin-right: 5%; margin-left: 5%; margin-top: 5%\"> Antes de empezar el estudio, necesitamos que nos confirmes que estás de acuerdo con participar. Recuerda que tu participación es 100% voluntaria y que lo único que te pedimos es responder lo mejor que puedas. Recuerda también que el estudio incluye:</p><ol style=\"text-align:left; justify-content:space-between; margin-right: 5%; margin-left: 5%;\"><li> un ejercicio de resolución de preguntas de selección múltiple (30’),</li><li>un cuestionario breve (5’),</li><li>un juego muy breve (3’),</li></ol><p style=\"text-align:left; justify-content:space-between; margin-right: 5%; margin-left: 5%;\">Si quieres participar, haz clic en “Acepto” luego de leer lo siguiente:<br></p><p style=\"text-align:left; justify-content:space-between; margin-right: 5%; margin-left: 5%;\">Acepto participar en el estudio “Estrategias de lectura y resolución de preguntas de selección múltiple”, en los términos aquí señalados:<br></p><p style=\"text-align:left; justify-content:space-between; margin-right: 5%; margin-left: 5%;\"><a href=\"http://ciae.uchile.cl/download.php?file=noticias/Asentimiento.pdf\" target=\"_blank\">Link a la hoja de información del Consentimiento.</a></p><p style=\"text-align:left; justify-content:space-between; margin-right: 5%; margin-left: 5%;\">Declaro que he leído (o se me ha leído) y (he) comprendido, las condiciones de mi participación en este estudio. He tenido la oportunidad de hacer preguntas y éstas han sido respondidas. No tengo dudas al respecto.</p>","response":0,"condicion_MCQ":5,"condicion_INTER":5,"numero_participante":53,"numero_version":1,"dimx":1366,"dimy":768,"color_profundidad":24,"pixel_profundidad":24,"Browser":"Google Chrome","trial_type":"html-button-response","trial_index":0,"time_elapsed":1404003,"internal_node_id":"0.0-0.0"},{"success":true,"trial_type":"fullscreen","trial_index":1,"time_elapsed":1415633,"internal_node_id":"0.0-1.0"},{"rt":77277.17000001576,"responses":"{\"Nombres\":\"Francisca Isidora\",\"Apellidos\":\"Noguer Morales\",\"Edad\":\"19\",\"Sexo\":\"mujer\",\"Curso\":\"Egresada\",\"Colegio\":\"Universidad Andres Bello\",\"Contacto\":\"frannoguerm@gmail.com\"}","trial_type":"survey-text","trial_index":2,"time_elapsed":1492929,"internal_node_id":"0.0-2.0"},{"success":true,"timeout":false,"failed_images":[],"failed_audio":[],"failed_video":[],"trial_type":"preload","trial_index":3,"time_elapsed":1494981,"internal_node_id":"0.0-3.0"},{"rt":34342.49000001,"stimulus":"<h1 style:\"margin-top: 5%;\">Ejercicios de Comprensión de Lectura de la Universidad de Chile</h1><p style=\"font-size: 120%;\">En esta actividad, debes responder 30 preguntas de selección múltiple. Cada pregunta presenta 3 respuestas alternativas, pero sólo una de ellas es correcta. Por lo tanto, debes escoger una sola alternativa para cada pregunta. Además, debes reportar qué tan seguro(a) estás de la respuesta que das, con un:</p><ol style=\"font-size: 120%;text-align:left;margin-left: 40%;\"><li>No estoy seguro(a) para nada</li><li>No estoy muy seguro(a)</li><li>Estoy bastante seguro(a)</li><li>Estoy totalmente seguro(a)</li></ol><p style=\"font-size: 120%;\">Por favor lee bien los enunciados antes de responder. ¡Éxito!</p>","response":0,"trial_type":"html-button-response","trial_index":4,"time_elapsed":1529325,"internal_node_id":"0.0-4.0"},{"rt":233154.77999998257,"responses":"{\"pregunta19\":\"a) Las personas que leen son más flexibles en sus ideas y autónomas en su accionar. \"}","question_order":"[0]","trial_type":"survey-multi-choice","trial_index":5,"time_elapsed":1762481,"internal_node_id":"0.0-5.0-0.0"},{"rt":11439.614999981131,"response":{"pregunta19 likert":1},"question_order":[0],"trial_type":"survey-likert","trial_index":6,"time_elapsed":1773923,"internal_node_id":"0.0-5.0-1.0"},{"rt":95090.39500000654,"responses":"{\"pregunta28\":\"b) La prensa tiene derecho a meter sus narices en todos lados. \"}","question_order":"[0]","trial_type":"survey-multi-choice","trial_index":7,"time_elapsed":1869014,"internal_node_id":"0.0-5.0-2.0"},{"rt":2158.2300000009127,"response":{"pregunta28 likert":2},"question_order":[0],"trial_type":"survey-likert","trial_index":8,"time_elapsed":1871174,"internal_node_id":"0.0-5.0-3.0"},{"rt":94187.14000005275,"responses":"{\"pregunta23\":\"a) A la influencia de grupos que rechazaban su música. \"}","question_order":"[0]","trial_type":"survey-multi-choice","trial_index":9,"time_elapsed":1965363,"internal_node_id":"0.0-5.0-4.0"},{"rt":3142.264999973122,"response":{"pregunta23 likert":3},"question_order":[0],"trial_type":"survey-likert","trial_index":10,"time_elapsed":1968507,"internal_node_id":"0.0-5.0-5.0"},{"rt":120103.16499997862,"responses":"{\"pregunta18\":\"b) Al premio merecido después de tantos esfuerzos. \"}","question_order":"[0]","trial_type":"survey-multi-choice","trial_index":11,"time_elapsed":2088611,"internal_node_id":"0.0-5.0-6.0"},{"rt":2254.06499998644,"response":{"pregunta18 likert":3},"question_order":[0],"trial_type":"survey-likert","trial_index":12,"time_elapsed":2090867,"internal_node_id":"0.0-5.0-7.0"},{"rt":211892.4250000273,"responses":"{\"pregunta7\":\"c) La imprenta y el papel han permitido el desarrollo de la civilización y la conservación de su cultura, y ambos son inventos chinos. \"}","question_order":"[0]","trial_type":"survey-multi-choice","trial_index":13,"time_elapsed":2302759,"internal_node_id":"0.0-5.0-8.0"},{"rt":2401.8550000037067,"response":{"pregunta7 likert":3},"question_order":[0],"trial_type":"survey-likert","trial_index":14,"time_elapsed":2305162,"internal_node_id":"0.0-5.0-9.0"},{"rt":60611.60000000382,"responses":"{\"pregunta6\":\"c) La aparición del Diccionario Académico ha sido polémica. \"}","question_order":"[0]","trial_type":"survey-multi-choice","trial_index":15,"time_elapsed":2365775,"internal_node_id":"0.0-5.0-10.0"},{"rt":1967.6699999836273,"response":{"pregunta6 likert":3},"question_order":[0],"trial_type":"survey-likert","trial_index":16,"time_elapsed":2367744,"internal_node_id":"0.0-5.0-11.0"},{"rt":75528.93500000937,"responses":"{\"pregunta1\":\"b) Muestran las opiniones expuestas por los personajes en un relato. \"}","question_order":"[0]","trial_type":"survey-multi-choice","trial_index":17,"time_elapsed":2443277,"internal_node_id":"0.0-5.0-12.0"},{"rt":1586.5299999713898,"response":{"pregunta1 likert":3},"question_order":[0],"trial_type":"survey-likert","trial_index":18,"time_elapsed":2444865,"internal_node_id":"0.0-5.0-13.0"},{"rt":93889.90000000922,"responses":"{\"pregunta25\":\"c) sufren dolores de espalda. \"}","question_order":"[0]","trial_type":"survey-multi-choice","trial_index":19,"time_elapsed":2538756,"internal_node_id":"0.0-5.0-14.0"},{"rt":1871.1100000073202,"response":{"pregunta25 likert":3},"question_order":[0],"trial_type":"survey-likert","trial_index":20,"time_elapsed":2540629,"internal_node_id":"0.0-5.0-15.0"},{"rt":60174.809999996796,"responses":"{\"pregunta9\":\"b) pueden rendir exámenes para optar y obtener títulos profesionales igual que los hombres. \"}","question_order":"[0]","trial_type":"survey-multi-choice","trial_index":21,"time_elapsed":2600806,"internal_node_id":"0.0-5.0-16.0"},{"rt":3295.35000002943,"response":{"pregunta9 likert":3},"question_order":[0],"trial_type":"survey-likert","trial_index":22,"time_elapsed":2604102,"internal_node_id":"0.0-5.0-17.0"},{"rt":53943.60500003677,"responses":"{\"pregunta5\":\"a) Los momentos triviales de los viajes, en la escritura se vuelven significativos. \"}","question_order":"[0]","trial_type":"survey-multi-choice","trial_index":23,"time_elapsed":2658047,"internal_node_id":"0.0-5.0-18.0"},{"rt":3978.8100000005215,"response":{"pregunta5 likert":2},"question_order":[0],"trial_type":"survey-likert","trial_index":24,"time_elapsed":2662028,"internal_node_id":"0.0-5.0-19.0"},{"rt":46509.9849999533,"responses":"{\"pregunta2\":\"b) A la relación entre pensamiento y estructura social. \"}","question_order":"[0]","trial_type":"survey-multi-choice","trial_index":25,"time_elapsed":2708533,"internal_node_id":"0.0-5.0-20.0"},{"rt":2009.3049999559298,"response":{"pregunta2 likert":3},"question_order":[0],"trial_type":"survey-likert","trial_index":26,"time_elapsed":2710544,"internal_node_id":"0.0-5.0-21.0"},{"rt":52776.18499996606,"responses":"{\"pregunta15\":\"b) ritualistas y obsesivos. \"}","question_order":"[0]","trial_type":"survey-multi-choice","trial_index":27,"time_elapsed":2763327,"internal_node_id":"0.0-5.0-22.0"},{"rt":2062.0750000234693,"response":{"pregunta15 likert":3},"question_order":[0],"trial_type":"survey-likert","trial_index":28,"time_elapsed":2765390,"internal_node_id":"0.0-5.0-23.0"},{"rt":60185.59000000823,"responses":"{\"pregunta12\":\"c) se da como existente, y sólo se discute su relación con el cuerpo. \"}","question_order":"[0]","trial_type":"survey-multi-choice","trial_index":29,"time_elapsed":2825577,"internal_node_id":"0.0-5.0-24.0"},{"rt":1576.355000026524,"response":{"pregunta12 likert":3},"question_order":[0],"trial_type":"survey-likert","trial_index":30,"time_elapsed":2827155,"internal_node_id":"0.0-5.0-25.0"},{"rt":40401.97000000626,"responses":"{\"pregunta17\":\"a) Atraer a los turistas. \"}","question_order":"[0]","trial_type":"survey-multi-choice","trial_index":31,"time_elapsed":2867558,"internal_node_id":"0.0-5.0-26.0"},{"rt":2967.0249999617226,"response":{"pregunta17 likert":3},"question_order":[0],"trial_type":"survey-likert","trial_index":32,"time_elapsed":2870526,"internal_node_id":"0.0-5.0-27.0"},{"rt":52111.66499997489,"responses":"{\"pregunta16\":\"c) Mostrar cuerpos que reflejan la máxima potencia. \"}","question_order":"[0]","trial_type":"survey-multi-choice","trial_index":33,"time_elapsed":2922639,"internal_node_id":"0.0-5.0-28.0"},{"rt":2936.6250000311993,"response":{"pregunta16 likert":2},"question_order":[0],"trial_type":"survey-likert","trial_index":34,"time_elapsed":2925577,"internal_node_id":"0.0-5.0-29.0"},{"rt":10952.38499995321,"responses":"{\"pregunta8\":\"b) Comparar a Cervantes con Quevedo. \"}","question_order":"[0]","trial_type":"survey-multi-choice","trial_index":35,"time_elapsed":2936531,"internal_node_id":"0.0-5.0-30.0"},{"rt":2167.235000000801,"response":{"pregunta8 likert":2},"question_order":[0],"trial_type":"survey-likert","trial_index":36,"time_elapsed":2938700,"internal_node_id":"0.0-5.0-31.0"},{"rt":41217.89999998873,"responses":"{\"pregunta30\":\"a) la muerte es distinta en las grandes ciudades. \"}","question_order":"[0]","trial_type":"survey-multi-choice","trial_index":37,"time_elapsed":2979920,"internal_node_id":"0.0-5.0-32.0"},{"rt":3316.9249999918975,"response":{"pregunta30 likert":3},"question_order":[0],"trial_type":"survey-likert","trial_index":38,"time_elapsed":2983238,"internal_node_id":"0.0-5.0-33.0"},{"rt":80316.70500000473,"responses":"{\"pregunta4\":\"c) En la literatura como en la vida, todo es metáfora. \"}","question_order":"[0]","trial_type":"survey-multi-choice","trial_index":39,"time_elapsed":3063556,"internal_node_id":"0.0-5.0-34.0"},{"rt":2327.999999979511,"response":{"pregunta4 likert":2},"question_order":[0],"trial_type":"survey-likert","trial_index":40,"time_elapsed":3065886,"internal_node_id":"0.0-5.0-35.0"},{"rt":2280.124999990221,"responses":"{\"pregunta20\":\"b) la muerte de Wu Ti fue una bendición. \"}","question_order":"[0]","trial_type":"survey-multi-choice","trial_index":41,"time_elapsed":3068167,"internal_node_id":"0.0-5.0-36.0"},{"rt":4757.589999993797,"response":{"pregunta20 likert":1},"question_order":[0],"trial_type":"survey-likert","trial_index":42,"time_elapsed":3072926,"internal_node_id":"0.0-5.0-37.0"},{"rt":327644.36500001466,"responses":"{\"pregunta11\":\"b) Promover la asistencia a un evento específico de decoración a través de una atractiva descripción. \"}","question_order":"[0]","trial_type":"survey-multi-choice","trial_index":43,"time_elapsed":3400572,"internal_node_id":"0.0-5.0-38.0"},{"rt":4745.190000045113,"response":{"pregunta11 likert":1},"question_order":[0],"trial_type":"survey-likert","trial_index":44,"time_elapsed":3405319,"internal_node_id":"0.0-5.0-39.0"},{"rt":41717.164999980014,"responses":"{\"pregunta21\":\"a) la creación de elementos químicos artificiales ha resultado de la manipulación del uranio. \"}","question_order":"[0]","trial_type":"survey-multi-choice","trial_index":45,"time_elapsed":3447038,"internal_node_id":"0.0-5.0-40.0"},{"rt":3215.650000027381,"response":{"pregunta21 likert":2},"question_order":[0],"trial_type":"survey-likert","trial_index":46,"time_elapsed":3450255,"internal_node_id":"0.0-5.0-41.0"},{"rt":61120.439999969676,"responses":"{\"pregunta29\":\"c) la Muerte vaticina el futuro mediante gestos. \"}","question_order":"[0]","trial_type":"survey-multi-choice","trial_index":47,"time_elapsed":3511376,"internal_node_id":"0.0-5.0-42.0"},{"rt":2546.744999999646,"response":{"pregunta29 likert":1},"question_order":[0],"trial_type":"survey-likert","trial_index":48,"time_elapsed":3513925,"internal_node_id":"0.0-5.0-43.0"},{"rt":47347.82500000438,"responses":"{\"pregunta10\":\"c) La biónica puede asegurar nuestra existencia mediante la aplicación de técnicas copiadas de la naturaleza. \"}","question_order":"[0]","trial_type":"survey-multi-choice","trial_index":49,"time_elapsed":3561274,"internal_node_id":"0.0-5.0-44.0"},{"rt":1991.2149999872781,"response":{"pregunta10 likert":3},"question_order":[0],"trial_type":"survey-likert","trial_index":50,"time_elapsed":3563266,"internal_node_id":"0.0-5.0-45.0"},{"rt":46014.254999987315,"responses":"{\"pregunta27\":\"a) El TLC causará una completa transformación de la economía chilena. \"}","question_order":"[0]","trial_type":"survey-multi-choice","trial_index":51,"time_elapsed":3609279,"internal_node_id":"0.0-5.0-46.0"},{"rt":2727.435000007972,"response":{"pregunta27 likert":2},"question_order":[0],"trial_type":"survey-likert","trial_index":52,"time_elapsed":3612008,"internal_node_id":"0.0-5.0-47.0"},{"rt":143708.66000000387,"responses":"{\"pregunta26\":\"b) para Aristóteles la virtud estaba en el justo equilibrio. \"}","question_order":"[0]","trial_type":"survey-multi-choice","trial_index":53,"time_elapsed":3755721,"internal_node_id":"0.0-5.0-48.0"},{"rt":2243.484999984503,"response":{"pregunta26 likert":1},"question_order":[0],"trial_type":"survey-likert","trial_index":54,"time_elapsed":3757966,"internal_node_id":"0.0-5.0-49.0"},{"rt":15365.075000037905,"responses":"{\"pregunta24\":\"c) El receptor es habitualmente pasivo frente a la publicidad. \"}","question_order":"[0]","trial_type":"survey-multi-choice","trial_index":55,"time_elapsed":3773332,"internal_node_id":"0.0-5.0-50.0"},{"rt":2513.4750000433996,"response":{"pregunta24 likert":2},"question_order":[0],"trial_type":"survey-likert","trial_index":56,"time_elapsed":3775847,"internal_node_id":"0.0-5.0-51.0"},{"rt":79005.81499998225,"responses":"{\"pregunta13\":\"b) El concepto de normalidad es diferente para un psiquiatra que para nosotros. \"}","question_order":"[0]","trial_type":"survey-multi-choice","trial_index":57,"time_elapsed":3854854,"internal_node_id":"0.0-5.0-52.0"},{"rt":3435.05999998888,"response":{"pregunta13 likert":2},"question_order":[0],"trial_type":"survey-likert","trial_index":58,"time_elapsed":3858291,"internal_node_id":"0.0-5.0-53.0"},{"rt":70759.95999999577,"responses":"{\"pregunta14\":\"c) la persistencia de la melancolía y la desesperanza. \"}","question_order":"[0]","trial_type":"survey-multi-choice","trial_index":59,"time_elapsed":3929052,"internal_node_id":"0.0-5.0-54.0"},{"rt":2678.28999995254,"response":{"pregunta14 likert":3},"question_order":[0],"trial_type":"survey-likert","trial_index":60,"time_elapsed":3931733,"internal_node_id":"0.0-5.0-55.0"},{"rt":3839.7300000069663,"responses":"{\"pregunta3\":\"c) El inicio de la civilización china. \"}","question_order":"[0]","trial_type":"survey-multi-choice","trial_index":61,"time_elapsed":3935574,"internal_node_id":"0.0-5.0-56.0"},{"rt":4101.855000015348,"response":{"pregunta3 likert":2},"question_order":[0],"trial_type":"survey-likert","trial_index":62,"time_elapsed":3939677,"internal_node_id":"0.0-5.0-57.0"},{"rt":332358.3100000392,"responses":"{\"pregunta22\":\"b) Por el riesgo que corren diariamente, los bomberos deberían tener mejores condiciones de seguridad. \"}","question_order":"[0]","trial_type":"survey-multi-choice","trial_index":63,"time_elapsed":4272028,"internal_node_id":"0.0-5.0-58.0"},{"rt":3388.315000046976,"response":{"pregunta22 likert":3},"question_order":[0],"trial_type":"survey-likert","trial_index":64,"time_elapsed":4275418,"internal_node_id":"0.0-5.0-59.0"},{"rt":2644.114999973215,"stimulus":"<p style=\"font-size: 120%\">Gracias por completar esta etapa del estudio. Ahora te invitamos a responder el cuestionario.<br><br></p>","response":0,"trial_type":"html-button-response","trial_index":65,"time_elapsed":4278066,"internal_node_id":"0.0-6.0"},{"rt":16392.170000007376,"stimulus":"<h1 style=\"margin-top: 5%\">Cuestionario para la Evaluación de Metas Académicas</h1><p style=\"font-size: 120%; margin-left: 3%; margin-top: 5%\">Este es un cuestionario que permite conocer cuáles son los principales motivos por los que los estudiantes se esfuerzan en su trabajo académico. A continuación, se te presentarán una serie de afirmaciones acerca de los motivos que puedes tener para estudiar.<br>Te pedimos que contestes a dichas afirmaciones reflexionando sobre el contenido de cada una de ellas, que, aunque te parezcan semejantes, en realidad, no lo son.<br>NO HAY RESPUESTAS CORRECTAS o INCORRECTAS, sólo queremos que respondas con la mayor precisión y sinceridad posible a las preguntas que se plantean.","response":0,"trial_type":"html-button-response","trial_index":66,"time_elapsed":4294459,"internal_node_id":"0.0-7.0"},{"rt":137958.85999995563,"response":{"Metas cuestionario pregunta1":2,"Metas cuestionario pregunta2":4,"Metas cuestionario pregunta3":3,"Metas cuestionario pregunta4":2,"Metas cuestionario pregunta5":4,"Metas cuestionario pregunta6":2,"Metas cuestionario pregunta7":2,"Metas cuestionario pregunta8":4,"Metas cuestionario pregunta9":1,"Metas cuestionario pregunta10":1,"Metas cuestionario pregunta11":1,"Metas cuestionario pregunta12":1,"Metas cuestionario pregunta13":1,"Metas cuestionario pregunta14":2,"Metas cuestionario pregunta15":4,"Metas cuestionario pregunta16":4,"Metas cuestionario pregunta17":4,"Metas cuestionario pregunta18":4,"Metas cuestionario pregunta19":4,"Metas cuestionario pregunta20":3},"question_order":[0,1,2,3,4,5,6,7,8,9,10,11,12,13,14,15,16,17,18,19],"trial_type":"survey-likert","trial_index":67,"time_elapsed":4432432,"internal_node_id":"0.0-8.0"},{"rt":2908.6499999975786,"stimulus":"<p style=\"font-size: 120%\">Gracias por responder el cuestionario. Ahora te invitamos a seguir con el juego, que es muy breve.<br><br></p>","response":0,"trial_type":"html-button-response","trial_index":68,"time_elapsed":4435344,"internal_node_id":"0.0-9.0"},{"rt":7106.789999990724,"stimulus":"<h1>Juego</h1><p style=\"font-size: 120%;\">A continuación se te presentarán 16 pequeñas historias.<br>Por favor lee el texto presentado en cada una de ellas y luego haz click en el objeto de tu elección.<br>Si estás listo(a),<span style=\"color:red;\"> haz click en \"comenzar\"</span>.</p>","response":0,"trial_type":"html-button-response","trial_index":69,"time_elapsed":4442451,"internal_node_id":"0.0-10.0"},{"rt":4371.080000012182,"grid":[[1,1,1]],"target":[0,2],"response":[0,1],"correct":false,"juego":7,"trial_type":"serial-reaction-time-mouse","trial_index":70,"time_elapsed":4446824,"internal_node_id":"0.0-11.0-0.0"},{"rt":16691.20500003919,"grid":[[1,1,1],[1,1,1],[1,1,1],[1,1,1],[1,1,1],[1,1,1],[1,1,1]],"target":[0,0],"response":[3,1],"correct":false,"juego":13,"trial_type":"serial-reaction-time-mouse","trial_index":71,"time_elapsed":4463517,"internal_node_id":"0.0-11.0-1.0"},{"rt":11216.06000000611,"grid":[[1,1],[1,1],[1,1],[1,1],[1,1],[1,1],[1,1]],"target":[0,0],"response":[1,1],"correct":false,"juego":14,"trial_type":"serial-reaction-time-mouse","trial_index":72,"time_elapsed":4474735,"internal_node_id":"0.0-11.0-2.0"},{"rt":2933.075000007637,"grid":[[1,1,1]],"target":[0,2],"response":[0,1],"correct":false,"juego":3,"trial_type":"serial-reaction-time-mouse","trial_index":73,"time_elapsed":4477670,"internal_node_id":"0.0-11.0-3.0"},{"rt":3387.870000035502,"grid":[[1,1,1]],"target":[0,2],"response":[0,1],"correct":false,"juego":1,"trial_type":"serial-reaction-time-mouse","trial_index":74,"time_elapsed":4481059,"internal_node_id":"0.0-11.0-4.0"},{"rt":1476.6050000330433,"grid":[[1],[1],[1]],"target":[0,2],"response":[1,0],"correct":false,"juego":4,"trial_type":"serial-reaction-time-mouse","trial_index":75,"time_elapsed":4482537,"internal_node_id":"0.0-11.0-5.0"},{"rt":13829.57000000123,"grid":[[1],[1],[1],[1],[1],[1]],"target":[0,0],"response":[2,0],"correct":false,"juego":5,"trial_type":"serial-reaction-time-mouse","trial_index":76,"time_elapsed":4496368,"internal_node_id":"0.0-11.0-6.0"},{"rt":7910.280000011437,"grid":[[1,1,1]],"target":[0,0],"response":[0,1],"correct":false,"juego":9,"trial_type":"serial-reaction-time-mouse","trial_index":77,"time_elapsed":4504280,"internal_node_id":"0.0-11.0-7.0"},{"rt":6627.119999960996,"grid":[[1,1],[1,1],[1,1],[1,1],[1,1],[1,1],[1,1]],"target":[0,0],"response":[5,1],"correct":false,"juego":15,"trial_type":"serial-reaction-time-mouse","trial_index":78,"time_elapsed":4510909,"internal_node_id":"0.0-11.0-8.0"},{"rt":6832.479999981821,"grid":[[1,1,1],[1,1,1],[1,1,1],[1,1,1],[1,1,1],[1,1,1],[1,1,1]],"target":[0,0],"response":[3,1],"correct":false,"juego":6,"trial_type":"serial-reaction-time-mouse","trial_index":79,"time_elapsed":4517744,"internal_node_id":"0.0-11.0-9.0"},{"rt":3454.6550000086427,"grid":[[1,1,1]],"target":[0,2],"response":[0,1],"correct":false,"juego":2,"trial_type":"serial-reaction-time-mouse","trial_index":80,"time_elapsed":4521200,"internal_node_id":"0.0-11.0-10.0"},{"rt":8526.08500001952,"grid":[[1,1,1],[1,1,1],[1,1,1]],"target":[0,0],"response":[0,0],"correct":true,"juego":10,"trial_type":"serial-reaction-time-mouse","trial_index":81,"time_elapsed":4529728,"internal_node_id":"0.0-11.0-11.0"},{"rt":9795.574999996461,"grid":[[1,1,1]],"target":[0,0],"response":[0,1],"correct":false,"juego":12,"trial_type":"serial-reaction-time-mouse","trial_index":82,"time_elapsed":4539525,"internal_node_id":"0.0-11.0-12.0"},{"rt":4036.320000014268,"grid":[[1,1,1]],"target":[0,2],"response":[0,1],"correct":false,"juego":8,"trial_type":"serial-reaction-time-mouse","trial_index":83,"time_elapsed":4543563,"internal_node_id":"0.0-11.0-13.0"},{"rt":12728.200000012293,"grid":[[1,1,1]],"target":[0,0],"response":[0,1],"correct":false,"juego":11,"trial_type":"serial-reaction-time-mouse","trial_index":84,"time_elapsed":4556291,"internal_node_id":"0.0-11.0-14.0"},{"rt":3321.4099999750033,"stimulus":"<h1>Último juego</h1><p style=\"font-size: 130%;\">Tienes <span style=\"color:red\">20</span> segundos para recordar los pares de palabras que aparecerán a continuación. <br></p>","response":0,"trial_type":"html-button-response","trial_index":85,"time_elapsed":4559617,"internal_node_id":"0.0-12.0"},{"animation_sequence":[{"stimulus":"imagen_juego_interferencia.jpg","time":522.2100000251085},{"stimulus":"imagen_juego_interferencia.jpg","time":1011.4350000517443},{"stimulus":"imagen_juego_interferencia.jpg","time":1513.9800000470132},{"stimulus":"imagen_juego_interferencia.jpg","time":2016.1900000534952},{"stimulus":"imagen_juego_interferencia.jpg","time":2510.975000041537},{"stimulus":"imagen_juego_interferencia.jpg","time":3012.9300000267103},{"stimulus":"imagen_juego_interferencia.jpg","time":3515.5150000359863},{"stimulus":"imagen_juego_interferencia.jpg","time":4010.4400000423193},{"stimulus":"imagen_juego_interferencia.jpg","time":4514.205000014976},{"stimulus":"imagen_juego_interferencia.jpg","time":5003.730000055395},{"stimulus":"imagen_juego_interferencia.jpg","time":5500.910000002943},{"stimulus":"imagen_juego_interferencia.jpg","time":6009.820000035688},{"stimulus":"imagen_juego_interferencia.jpg","time":6510.600000038743},{"stimulus":"imagen_juego_interferencia.jpg","time":7004.820000031963},{"stimulus":"imagen_juego_interferencia.jpg","time":7507.07500003092},{"stimulus":"imagen_juego_interferencia.jpg","time":8014.445000037551},{"stimulus":"imagen_juego_interferencia.jpg","time":8504.310000048019},{"stimulus":"imagen_juego_interferencia.jpg","time":9007.460000052117},{"stimulus":"imagen_juego_interferencia.jpg","time":9509.700000053272},{"stimulus":"imagen_juego_interferencia.jpg","time":10004.960000049323},{"stimulus":"imagen_juego_interferencia.jpg","time":10505.56000002008},{"stimulus":"imagen_juego_interferencia.jpg","time":11003.08500003349},{"stimulus":"imagen_juego_interferencia.jpg","time":11506.135000033304},{"stimulus":"imagen_juego_interferencia.jpg","time":12001.63500005193},{"stimulus":"imagen_juego_interferencia.jpg","time":12501.155000005849},{"stimulus":"imagen_juego_interferencia.jpg","time":13001.640000032261},{"stimulus":"imagen_juego_interferencia.jpg","time":13508.680000028573},{"stimulus":"imagen_juego_interferencia.jpg","time":14008.895000035875},{"stimulus":"imagen_juego_interferencia.jpg","time":14507.865000050515},{"stimulus":"imagen_juego_interferencia.jpg","time":15006.67000003159},{"stimulus":"imagen_juego_interferencia.jpg","time":15500.975000032224},{"stimulus":"imagen_juego_interferencia.jpg","time":16004.965000029653},{"stimulus":"imagen_juego_interferencia.jpg","time":16501.79000001028},{"stimulus":"imagen_juego_interferencia.jpg","time":17002.54000001587},{"stimulus":"imagen_juego_interferencia.jpg","time":17503.820000042208},{"stimulus":"imagen_juego_interferencia.jpg","time":18005.365000048652},{"stimulus":"imagen_juego_interferencia.jpg","time":18502.710000030696},{"stimulus":"imagen_juego_interferencia.jpg","time":19001.56500004232},{"stimulus":"imagen_juego_interferencia.jpg","time":19505.41000004206},{"stimulus":"imagen_juego_interferencia.jpg","time":20004.645000037737}],"response":[],"trial_type":"animation","trial_index":86,"time_elapsed":4580122,"internal_node_id":"0.0-13.0"},{"rt":7791.634999972768,"responses":"{\"pregunta interferencia1\":\"naranja\"}","question_order":"[0]","trial_type":"survey-multi-choice-cuest","trial_index":87,"time_elapsed":4587916,"internal_node_id":"0.0-14.0-0.0"},{"rt":4003.0449999617413,"responses":"{\"pregunta interferencia4\":\"contador\"}","question_order":"[0]","trial_type":"survey-multi-choice-cuest","trial_index":88,"time_elapsed":4591920,"internal_node_id":"0.0-14.0-1.0"},{"rt":4711.149999987334,"responses":"{\"pregunta interferencia2\":\"saltamontes\"}","question_order":"[0]","trial_type":"survey-multi-choice-cuest","trial_index":89,"time_elapsed":4596632,"internal_node_id":"0.0-14.0-2.0"},{"rt":12060.435000049882,"responses":"{\"pregunta interferencia3\":\"aluminio\"}","question_order":"[0]","trial_type":"survey-multi-choice-cuest","trial_index":90,"time_elapsed":4608694,"internal_node_id":"0.0-14.0-3.0"},{"success":true,"trial_type":"fullscreen","trial_index":91,"time_elapsed":4609699,"internal_node_id":"0.0-15.0"}]