[{"rt":8163685,"stimulus":"<h1 style=\"color:red; margin-top: 3%;\">¡Bienvenido(a)!</h1><p style=\"text-align:left; justify-content:space-between; margin-right: 5%; margin-left: 5%; margin-top: 5%\"> Antes de empezar el estudio, necesitamos que nos confirmes que estás de acuerdo con participar. Recuerda que tu participación es 100% voluntaria y que lo único que te pedimos es responder lo mejor que puedas. Recuerda también que el estudio incluye:</p><ol style=\"text-align:left; justify-content:space-between; margin-right: 5%; margin-left: 5%;\"><li> un ejercicio de resolución de preguntas de selección múltiple (30’),</li><li>un cuestionario breve (5’),</li><li>un juego muy breve (3’),</li></ol><p style=\"text-align:left; justify-content:space-between; margin-right: 5%; margin-left: 5%;\">Si quieres participar, haz clic en “Acepto” luego de leer lo siguiente:<br></p><p style=\"text-align:left; justify-content:space-between; margin-right: 5%; margin-left: 5%;\">Acepto participar en el estudio “Estrategias de lectura y resolución de preguntas de selección múltiple”, en los términos aquí señalados:<br></p><p style=\"text-align:left; justify-content:space-between; margin-right: 5%; margin-left: 5%;\"><a href=\"http://ciae.uchile.cl/download.php?file=noticias/Asentimiento.pdf\" target=\"_blank\">Link a la hoja de información del Consentimiento.</a></p><p style=\"text-align:left; justify-content:space-between; margin-right: 5%; margin-left: 5%;\">Declaro que he leído (o se me ha leído) y (he) comprendido, las condiciones de mi participación en este estudio. He tenido la oportunidad de hacer preguntas y éstas han sido respondidas. No tengo dudas al respecto.</p>","response":0,"condicion_MCQ":5,"condicion_INTER":17,"numero_participante":65,"numero_version":1,"dimx":1280,"dimy":720,"color_profundidad":24,"pixel_profundidad":24,"Browser":"Google Chrome","trial_type":"html-button-response","trial_index":0,"time_elapsed":8163644,"internal_node_id":"0.0-0.0"},{"success":true,"trial_type":"fullscreen","trial_index":1,"time_elapsed":8183955,"internal_node_id":"0.0-1.0"},{"rt":127173.09999990463,"responses":"{\"Nombres\":\"Kattia Belén\",\"Apellidos\":\"Sepúlveda Venegas\",\"Edad\":\"19\",\"Sexo\":\"mujer\",\"Curso\":\"Primero\",\"Colegio\":\"Universidad Andres Bello\",\"Contacto\":\"k.seplvedavenegas@uandresbello.edu\"}","trial_type":"survey-text","trial_index":2,"time_elapsed":8311146,"internal_node_id":"0.0-2.0"},{"success":true,"timeout":false,"failed_images":[],"failed_audio":[],"failed_video":[],"trial_type":"preload","trial_index":3,"time_elapsed":8311803,"internal_node_id":"0.0-3.0"},{"rt":24779.900000095367,"stimulus":"<h1 style:\"margin-top: 5%;\">Ejercicios de Comprensión de Lectura de la Universidad de Chile</h1><p style=\"font-size: 120%;\">En esta actividad, debes responder 30 preguntas de selección múltiple. Cada pregunta presenta 3 respuestas alternativas, pero sólo una de ellas es correcta. Por lo tanto, debes escoger una sola alternativa para cada pregunta. Además, debes reportar qué tan seguro(a) estás de la respuesta que das, con un:</p><ol style=\"font-size: 120%;text-align:left;margin-left: 40%;\"><li>No estoy seguro(a) para nada</li><li>No estoy muy seguro(a)</li><li>Estoy bastante seguro(a)</li><li>Estoy totalmente seguro(a)</li></ol><p style=\"font-size: 120%;\">Por favor lee bien los enunciados antes de responder. ¡Éxito!</p>","response":0,"trial_type":"html-button-response","trial_index":4,"time_elapsed":8336586,"internal_node_id":"0.0-4.0"},{"rt":36789.90000009537,"responses":"{\"pregunta21\":\"b) el uranio es el elemento natural con el mayor número de protones en el núcleo. \"}","question_order":"[0]","trial_type":"survey-multi-choice","trial_index":5,"time_elapsed":8373378,"internal_node_id":"0.0-5.0-0.0"},{"rt":3678.2000000476837,"response":{"pregunta21 likert":3},"question_order":[0],"trial_type":"survey-likert","trial_index":6,"time_elapsed":8377058,"internal_node_id":"0.0-5.0-1.0"},{"rt":33077.800000190735,"responses":"{\"pregunta28\":\"a) El derecho a informar y el derecho a la privacidad son inconciliables. \"}","question_order":"[0]","trial_type":"survey-multi-choice","trial_index":7,"time_elapsed":8410138,"internal_node_id":"0.0-5.0-2.0"},{"rt":2174.2999999523163,"response":{"pregunta28 likert":3},"question_order":[0],"trial_type":"survey-likert","trial_index":8,"time_elapsed":8412314,"internal_node_id":"0.0-5.0-3.0"},{"rt":53621.90000009537,"responses":"{\"pregunta15\":\"b) ritualistas y obsesivos. \"}","question_order":"[0]","trial_type":"survey-multi-choice","trial_index":9,"time_elapsed":8465938,"internal_node_id":"0.0-5.0-4.0"},{"rt":1549.3999998569489,"response":{"pregunta15 likert":3},"question_order":[0],"trial_type":"survey-likert","trial_index":10,"time_elapsed":8467489,"internal_node_id":"0.0-5.0-5.0"},{"rt":77718.59999990463,"responses":"{\"pregunta11\":\"b) Promover la asistencia a un evento específico de decoración a través de una atractiva descripción. \"}","question_order":"[0]","trial_type":"survey-multi-choice","trial_index":11,"time_elapsed":8545209,"internal_node_id":"0.0-5.0-6.0"},{"rt":2654.0999999046326,"response":{"pregunta11 likert":1},"question_order":[0],"trial_type":"survey-likert","trial_index":12,"time_elapsed":8547866,"internal_node_id":"0.0-5.0-7.0"},{"rt":93975.60000014305,"responses":"{\"pregunta26\":\"a) el sujeto sufre con su modo de vida. \"}","question_order":"[0]","trial_type":"survey-multi-choice","trial_index":13,"time_elapsed":8641844,"internal_node_id":"0.0-5.0-8.0"},{"rt":1580.5,"response":{"pregunta26 likert":2},"question_order":[0],"trial_type":"survey-likert","trial_index":14,"time_elapsed":8643426,"internal_node_id":"0.0-5.0-9.0"},{"rt":57798.199999809265,"responses":"{\"pregunta25\":\"c) sufren dolores de espalda. \"}","question_order":"[0]","trial_type":"survey-multi-choice","trial_index":15,"time_elapsed":8701225,"internal_node_id":"0.0-5.0-10.0"},{"rt":1701.9000000953674,"response":{"pregunta25 likert":3},"question_order":[0],"trial_type":"survey-likert","trial_index":16,"time_elapsed":8702929,"internal_node_id":"0.0-5.0-11.0"},{"rt":49574.200000047684,"responses":"{\"pregunta30\":\"b) para el mexicano, la muerte es cotidiana. \"}","question_order":"[0]","trial_type":"survey-multi-choice","trial_index":17,"time_elapsed":8752506,"internal_node_id":"0.0-5.0-12.0"},{"rt":1318,"response":{"pregunta30 likert":2},"question_order":[0],"trial_type":"survey-likert","trial_index":18,"time_elapsed":8753826,"internal_node_id":"0.0-5.0-13.0"},{"rt":37511.10000014305,"responses":"{\"pregunta1\":\"a) Entregan una característica detallada del personaje, a través de la voz narrativa. \"}","question_order":"[0]","trial_type":"survey-multi-choice","trial_index":19,"time_elapsed":8791339,"internal_node_id":"0.0-5.0-14.0"},{"rt":1300.5,"response":{"pregunta1 likert":2},"question_order":[0],"trial_type":"survey-likert","trial_index":20,"time_elapsed":8792642,"internal_node_id":"0.0-5.0-15.0"},{"rt":2703.600000143051,"responses":"{\"pregunta10\":\"a) La biónica es una disciplina que aprovecha las condiciones del entorno. \"}","question_order":"[0]","trial_type":"survey-multi-choice","trial_index":21,"time_elapsed":8795347,"internal_node_id":"0.0-5.0-16.0"},{"rt":2180.899999856949,"response":{"pregunta10 likert":1},"question_order":[0],"trial_type":"survey-likert","trial_index":22,"time_elapsed":8797531,"internal_node_id":"0.0-5.0-17.0"},{"rt":1757.3000001907349,"responses":"{\"pregunta18\":\"a) Al deseo de privilegiar el ocio por sobre el trabajo. \"}","question_order":"[0]","trial_type":"survey-multi-choice","trial_index":23,"time_elapsed":8799290,"internal_node_id":"0.0-5.0-18.0"},{"rt":1630.5,"response":{"pregunta18 likert":2},"question_order":[0],"trial_type":"survey-likert","trial_index":24,"time_elapsed":8800921,"internal_node_id":"0.0-5.0-19.0"},{"rt":1614.4000000953674,"responses":"{\"pregunta27\":\"c) Será difícil que las empresas nacionales compitan con las estadounidenses. \"}","question_order":"[0]","trial_type":"survey-multi-choice","trial_index":25,"time_elapsed":8802537,"internal_node_id":"0.0-5.0-20.0"},{"rt":1198.5,"response":{"pregunta27 likert":1},"question_order":[0],"trial_type":"survey-likert","trial_index":26,"time_elapsed":8803737,"internal_node_id":"0.0-5.0-21.0"},{"rt":4422.099999904633,"responses":"{\"pregunta20\":\"b) la muerte de Wu Ti fue una bendición. \"}","question_order":"[0]","trial_type":"survey-multi-choice","trial_index":27,"time_elapsed":8808161,"internal_node_id":"0.0-5.0-22.0"},{"rt":1598.4000000953674,"response":{"pregunta20 likert":2},"question_order":[0],"trial_type":"survey-likert","trial_index":28,"time_elapsed":8809761,"internal_node_id":"0.0-5.0-23.0"},{"rt":1710.0999999046326,"responses":"{\"pregunta23\":\"c) A la temática satánica de las canciones del grupo. \"}","question_order":"[0]","trial_type":"survey-multi-choice","trial_index":29,"time_elapsed":8811473,"internal_node_id":"0.0-5.0-24.0"},{"rt":1190.5999999046326,"response":{"pregunta23 likert":2},"question_order":[0],"trial_type":"survey-likert","trial_index":30,"time_elapsed":8812666,"internal_node_id":"0.0-5.0-25.0"},{"rt":1766,"responses":"{\"pregunta19\":\"a) Las personas que leen son más flexibles en sus ideas y autónomas en su accionar. \"}","question_order":"[0]","trial_type":"survey-multi-choice","trial_index":31,"time_elapsed":8814433,"internal_node_id":"0.0-5.0-26.0"},{"rt":1302.1999998092651,"response":{"pregunta19 likert":2},"question_order":[0],"trial_type":"survey-likert","trial_index":32,"time_elapsed":8815738,"internal_node_id":"0.0-5.0-27.0"},{"rt":1983.0999999046326,"responses":"{\"pregunta17\":\"a) Atraer a los turistas. \"}","question_order":"[0]","trial_type":"survey-multi-choice","trial_index":33,"time_elapsed":8817723,"internal_node_id":"0.0-5.0-28.0"},{"rt":1100.5,"response":{"pregunta17 likert":2},"question_order":[0],"trial_type":"survey-likert","trial_index":34,"time_elapsed":8818826,"internal_node_id":"0.0-5.0-29.0"},{"rt":1093.2999999523163,"responses":"{\"pregunta4\":\"c) En la literatura como en la vida, todo es metáfora. \"}","question_order":"[0]","trial_type":"survey-multi-choice","trial_index":35,"time_elapsed":8819921,"internal_node_id":"0.0-5.0-30.0"},{"rt":1031.6000001430511,"response":{"pregunta4 likert":2},"question_order":[0],"trial_type":"survey-likert","trial_index":36,"time_elapsed":8820955,"internal_node_id":"0.0-5.0-31.0"},{"rt":1476.5,"responses":"{\"pregunta22\":\"c) Bomberos debería tener acceso a un seguro médico, al que pueda recurrir en caso de accidente. \"}","question_order":"[0]","trial_type":"survey-multi-choice","trial_index":37,"time_elapsed":8822433,"internal_node_id":"0.0-5.0-32.0"},{"rt":942.2000000476837,"response":{"pregunta22 likert":2},"question_order":[0],"trial_type":"survey-likert","trial_index":38,"time_elapsed":8823378,"internal_node_id":"0.0-5.0-33.0"},{"rt":2621.4000000953674,"responses":"{\"pregunta3\":\"a) El origen de las grandes civilizaciones. \"}","question_order":"[0]","trial_type":"survey-multi-choice","trial_index":39,"time_elapsed":8826001,"internal_node_id":"0.0-5.0-34.0"},{"rt":1342.4000000953674,"response":{"pregunta3 likert":2},"question_order":[0],"trial_type":"survey-likert","trial_index":40,"time_elapsed":8827346,"internal_node_id":"0.0-5.0-35.0"},{"rt":1261.8000001907349,"responses":"{\"pregunta24\":\"c) El receptor es habitualmente pasivo frente a la publicidad. \"}","question_order":"[0]","trial_type":"survey-multi-choice","trial_index":41,"time_elapsed":8828609,"internal_node_id":"0.0-5.0-36.0"},{"rt":1118.3999998569489,"response":{"pregunta24 likert":1},"question_order":[0],"trial_type":"survey-likert","trial_index":42,"time_elapsed":8829730,"internal_node_id":"0.0-5.0-37.0"},{"rt":1429.7999999523163,"responses":"{\"pregunta2\":\"c) A la relación entre sociedad y constitución social. \"}","question_order":"[0]","trial_type":"survey-multi-choice","trial_index":43,"time_elapsed":8831162,"internal_node_id":"0.0-5.0-38.0"},{"rt":1190,"response":{"pregunta2 likert":1},"question_order":[0],"trial_type":"survey-likert","trial_index":44,"time_elapsed":8832354,"internal_node_id":"0.0-5.0-39.0"},{"rt":1381.7999999523163,"responses":"{\"pregunta14\":\"b) preparar los recuerdos del mañana. \"}","question_order":"[0]","trial_type":"survey-multi-choice","trial_index":45,"time_elapsed":8833738,"internal_node_id":"0.0-5.0-40.0"},{"rt":1117.8999998569489,"response":{"pregunta14 likert":1},"question_order":[0],"trial_type":"survey-likert","trial_index":46,"time_elapsed":8834857,"internal_node_id":"0.0-5.0-41.0"},{"rt":1197.5,"responses":"{\"pregunta29\":\"a) el jardinero estará muerto al día siguiente. \"}","question_order":"[0]","trial_type":"survey-multi-choice","trial_index":47,"time_elapsed":8836057,"internal_node_id":"0.0-5.0-42.0"},{"rt":1158.2000000476837,"response":{"pregunta29 likert":2},"question_order":[0],"trial_type":"survey-likert","trial_index":48,"time_elapsed":8837218,"internal_node_id":"0.0-5.0-43.0"},{"rt":1742,"responses":"{\"pregunta12\":\"a) es una realidad discutida por algunos. \"}","question_order":"[0]","trial_type":"survey-multi-choice","trial_index":49,"time_elapsed":8838961,"internal_node_id":"0.0-5.0-44.0"},{"rt":1086.0999999046326,"response":{"pregunta12 likert":1},"question_order":[0],"trial_type":"survey-likert","trial_index":50,"time_elapsed":8840049,"internal_node_id":"0.0-5.0-45.0"},{"rt":2319.5,"responses":"{\"pregunta7\":\"a) La impresión de libros es más importante que otros medios de información y comunicación. \"}","question_order":"[0]","trial_type":"survey-multi-choice","trial_index":51,"time_elapsed":8842370,"internal_node_id":"0.0-5.0-46.0"},{"rt":1621.5999999046326,"response":{"pregunta7 likert":1},"question_order":[0],"trial_type":"survey-likert","trial_index":52,"time_elapsed":8843993,"internal_node_id":"0.0-5.0-47.0"},{"rt":1446.2000000476837,"responses":"{\"pregunta9\":\"b) pueden rendir exámenes para optar y obtener títulos profesionales igual que los hombres. \"}","question_order":"[0]","trial_type":"survey-multi-choice","trial_index":53,"time_elapsed":8845441,"internal_node_id":"0.0-5.0-48.0"},{"rt":975.3999998569489,"response":{"pregunta9 likert":2},"question_order":[0],"trial_type":"survey-likert","trial_index":54,"time_elapsed":8846418,"internal_node_id":"0.0-5.0-49.0"},{"rt":1589.8999998569489,"responses":"{\"pregunta13\":\"a) El ser humano se comporta de acuerdo con las circunstancias. \"}","question_order":"[0]","trial_type":"survey-multi-choice","trial_index":55,"time_elapsed":8848010,"internal_node_id":"0.0-5.0-50.0"},{"rt":1334,"response":{"pregunta13 likert":1},"question_order":[0],"trial_type":"survey-likert","trial_index":56,"time_elapsed":8849345,"internal_node_id":"0.0-5.0-51.0"},{"rt":1358.5,"responses":"{\"pregunta5\":\"c) La escritura plasma los mejores momentos de los viajes. \"}","question_order":"[0]","trial_type":"survey-multi-choice","trial_index":57,"time_elapsed":8850705,"internal_node_id":"0.0-5.0-52.0"},{"rt":1270.2999999523163,"response":{"pregunta5 likert":1},"question_order":[0],"trial_type":"survey-likert","trial_index":58,"time_elapsed":8851977,"internal_node_id":"0.0-5.0-53.0"},{"rt":1687.5,"responses":"{\"pregunta16\":\"a) Provocar el deseo de la adquisición vertiginosa. \"}","question_order":"[0]","trial_type":"survey-multi-choice","trial_index":59,"time_elapsed":8853666,"internal_node_id":"0.0-5.0-54.0"},{"rt":1221,"response":{"pregunta16 likert":2},"question_order":[0],"trial_type":"survey-likert","trial_index":60,"time_elapsed":8854889,"internal_node_id":"0.0-5.0-55.0"},{"rt":2559.7000000476837,"responses":"{\"pregunta8\":\"c) Caracterizar al Quijote como un pelmazo. \"}","question_order":"[0]","trial_type":"survey-multi-choice","trial_index":61,"time_elapsed":8857451,"internal_node_id":"0.0-5.0-56.0"},{"rt":1589,"response":{"pregunta8 likert":1},"question_order":[0],"trial_type":"survey-likert","trial_index":62,"time_elapsed":8859041,"internal_node_id":"0.0-5.0-57.0"},{"rt":2142.2000000476837,"responses":"{\"pregunta6\":\"a) Las voces extranjeras viven una tensión entre la aceptación y el rechazo. \"}","question_order":"[0]","trial_type":"survey-multi-choice","trial_index":63,"time_elapsed":8861185,"internal_node_id":"0.0-5.0-58.0"},{"rt":1542.7000000476837,"response":{"pregunta6 likert":2},"question_order":[0],"trial_type":"survey-likert","trial_index":64,"time_elapsed":8862730,"internal_node_id":"0.0-5.0-59.0"}]