[{"rt":22458.984999917448,"stimulus":"<h1 style=\"color:red; margin-top: 3%;\">¡Bienvenido(a)!</h1><p style=\"text-align:left; justify-content:space-between; margin-right: 5%; margin-left: 5%; margin-top: 5%\"> Antes de empezar el estudio, necesitamos que nos confirmes que estás de acuerdo con participar. Recuerda que tu participación es 100% voluntaria y que lo único que te pedimos es responder lo mejor que puedas. Recuerda también que el estudio incluye:</p><ol style=\"text-align:left; justify-content:space-between; margin-right: 5%; margin-left: 5%;\"><li> un ejercicio de resolución de preguntas de selección múltiple (30’),</li><li>un cuestionario breve (5’),</li><li>un juego muy breve (3’),</li></ol><p style=\"text-align:left; justify-content:space-between; margin-right: 5%; margin-left: 5%;\">Si quieres participar, haz clic en “Acepto” luego de leer lo siguiente:<br></p><p style=\"text-align:left; justify-content:space-between; margin-right: 5%; margin-left: 5%;\">Acepto participar en el estudio “Estrategias de lectura y resolución de preguntas de selección múltiple”, en los términos aquí señalados:<br></p><p style=\"text-align:left; justify-content:space-between; margin-right: 5%; margin-left: 5%;\"><a href=\"http://ciae.uchile.cl/download.php?file=noticias/Asentimiento.pdf\" target=\"_blank\">Link a la hoja de información del Consentimiento.</a></p><p style=\"text-align:left; justify-content:space-between; margin-right: 5%; margin-left: 5%;\">Declaro que he leído (o se me ha leído) y (he) comprendido, las condiciones de mi participación en este estudio. He tenido la oportunidad de hacer preguntas y éstas han sido respondidas. No tengo dudas al respecto.</p>","response":0,"condicion_MCQ":5,"condicion_INTER":5,"numero_participante":29,"numero_version":1,"dimx":1366,"dimy":768,"color_profundidad":24,"pixel_profundidad":24,"Browser":"Google Chrome","trial_type":"html-button-response","trial_index":0,"time_elapsed":22461,"internal_node_id":"0.0-0.0"},{"success":true,"trial_type":"fullscreen","trial_index":1,"time_elapsed":27476829,"internal_node_id":"0.0-1.0"},{"rt":59138.48000007868,"responses":"{\"Nombres\":\"Francisca Ignacia\",\"Apellidos\":\"Hernandez Sanchez\",\"Edad\":\"19\",\"Sexo\":\"Mujer\",\"Curso\":\"Primer año U\",\"Colegio\":\"Universidad Andres Bello\",\"Contacto\":\"f.hernndezsnchez@uandresbello.edu\"}","trial_type":"survey-text","trial_index":2,"time_elapsed":27536003,"internal_node_id":"0.0-2.0"},{"success":true,"timeout":false,"failed_images":[],"failed_audio":[],"failed_video":[],"trial_type":"preload","trial_index":3,"time_elapsed":27536688,"internal_node_id":"0.0-3.0"},{"rt":6921.235000014305,"stimulus":"<h1 style:\"margin-top: 5%;\">Ejercicios de Comprensión de Lectura de la Universidad de Chile</h1><p style=\"font-size: 120%;\">En esta actividad, debes responder 30 preguntas de selección múltiple. Cada pregunta presenta 3 respuestas alternativas, pero sólo una de ellas es correcta. Por lo tanto, debes escoger una sola alternativa para cada pregunta. Además, debes reportar qué tan seguro(a) estás de la respuesta que das, con un:</p><ol style=\"font-size: 120%;text-align:left;margin-left: 40%;\"><li>No estoy seguro(a) para nada</li><li>No estoy muy seguro(a)</li><li>Estoy bastante seguro(a)</li><li>Estoy totalmente seguro(a)</li></ol><p style=\"font-size: 120%;\">Por favor lee bien los enunciados antes de responder. ¡Éxito!</p>","response":0,"trial_type":"html-button-response","trial_index":4,"time_elapsed":27543611,"internal_node_id":"0.0-4.0"},{"rt":83942.36500002444,"responses":"{\"pregunta19\":\"c) El hábito de la lectura y el progreso mantienen una relación inversamente proporcional. \"}","question_order":"[0]","trial_type":"survey-multi-choice","trial_index":5,"time_elapsed":27627555,"internal_node_id":"0.0-5.0-0.0"},{"rt":5509.680000018328,"response":{"pregunta19 likert":1},"question_order":[0],"trial_type":"survey-likert","trial_index":6,"time_elapsed":27633067,"internal_node_id":"0.0-5.0-1.0"},{"rt":45710.47000004724,"responses":"{\"pregunta29\":\"a) el jardinero estará muerto al día siguiente. \"}","question_order":"[0]","trial_type":"survey-multi-choice","trial_index":7,"time_elapsed":27678779,"internal_node_id":"0.0-5.0-2.0"},{"rt":4206.004999928176,"response":{"pregunta29 likert":1},"question_order":[0],"trial_type":"survey-likert","trial_index":8,"time_elapsed":27682987,"internal_node_id":"0.0-5.0-3.0"},{"rt":88038.43999991938,"responses":"{\"pregunta7\":\"c) La imprenta y el papel han permitido el desarrollo de la civilización y la conservación de su cultura, y ambos son inventos chinos. \"}","question_order":"[0]","trial_type":"survey-multi-choice","trial_index":9,"time_elapsed":27771027,"internal_node_id":"0.0-5.0-4.0"},{"rt":1702.8099999278784,"response":{"pregunta7 likert":0},"question_order":[0],"trial_type":"survey-likert","trial_index":10,"time_elapsed":27772731,"internal_node_id":"0.0-5.0-5.0"},{"rt":33542.370000038296,"responses":"{\"pregunta22\":\"a) Se debe crear un seguro médico especial para esta institución, pues es de alto riesgo. \"}","question_order":"[0]","trial_type":"survey-multi-choice","trial_index":11,"time_elapsed":27806275,"internal_node_id":"0.0-5.0-6.0"},{"rt":1654.0650000087917,"response":{"pregunta22 likert":2},"question_order":[0],"trial_type":"survey-likert","trial_index":12,"time_elapsed":27807931,"internal_node_id":"0.0-5.0-7.0"},{"rt":67286.98999993503,"responses":"{\"pregunta16\":\"a) Provocar el deseo de la adquisición vertiginosa. \"}","question_order":"[0]","trial_type":"survey-multi-choice","trial_index":13,"time_elapsed":27875219,"internal_node_id":"0.0-5.0-8.0"},{"rt":1661.9349999800324,"response":{"pregunta16 likert":2},"question_order":[0],"trial_type":"survey-likert","trial_index":14,"time_elapsed":27876883,"internal_node_id":"0.0-5.0-9.0"},{"rt":56271.175000000745,"responses":"{\"pregunta26\":\"c) el hombre excesivo es inmoral. \"}","question_order":"[0]","trial_type":"survey-multi-choice","trial_index":15,"time_elapsed":27933155,"internal_node_id":"0.0-5.0-10.0"},{"rt":1606.0950000546873,"response":{"pregunta26 likert":1},"question_order":[0],"trial_type":"survey-likert","trial_index":16,"time_elapsed":27934763,"internal_node_id":"0.0-5.0-11.0"},{"rt":79366.70999997109,"responses":"{\"pregunta11\":\"a) Orientar la opción estética de un grupo de personas en lo que se refiere a la decoración de interiores. \"}","question_order":"[0]","trial_type":"survey-multi-choice","trial_index":17,"time_elapsed":28014131,"internal_node_id":"0.0-5.0-12.0"},{"rt":2030.6900000423193,"response":{"pregunta11 likert":1},"question_order":[0],"trial_type":"survey-likert","trial_index":18,"time_elapsed":28016163,"internal_node_id":"0.0-5.0-13.0"},{"rt":43911.28000000119,"responses":"{\"pregunta18\":\"a) Al deseo de privilegiar el ocio por sobre el trabajo. \"}","question_order":"[0]","trial_type":"survey-multi-choice","trial_index":19,"time_elapsed":28060076,"internal_node_id":"0.0-5.0-14.0"},{"rt":2365.824999988079,"response":{"pregunta18 likert":2},"question_order":[0],"trial_type":"survey-likert","trial_index":20,"time_elapsed":28062443,"internal_node_id":"0.0-5.0-15.0"},{"rt":74782.36499999091,"responses":"{\"pregunta20\":\"b) la muerte de Wu Ti fue una bendición. \"}","question_order":"[0]","trial_type":"survey-multi-choice","trial_index":21,"time_elapsed":28137227,"internal_node_id":"0.0-5.0-16.0"},{"rt":1558.5799999535084,"response":{"pregunta20 likert":2},"question_order":[0],"trial_type":"survey-likert","trial_index":22,"time_elapsed":28138787,"internal_node_id":"0.0-5.0-17.0"},{"rt":34158.5900000073,"responses":"{\"pregunta8\":\"a) Dar a conocer al ganador del premio Cervantes. \"}","question_order":"[0]","trial_type":"survey-multi-choice","trial_index":23,"time_elapsed":28172947,"internal_node_id":"0.0-5.0-18.0"},{"rt":1910.8900000564754,"response":{"pregunta8 likert":1},"question_order":[0],"trial_type":"survey-likert","trial_index":24,"time_elapsed":28174859,"internal_node_id":"0.0-5.0-19.0"},{"rt":62774.600000005215,"responses":"{\"pregunta24\":\"c) El receptor es habitualmente pasivo frente a la publicidad. \"}","question_order":"[0]","trial_type":"survey-multi-choice","trial_index":25,"time_elapsed":28237636,"internal_node_id":"0.0-5.0-20.0"},{"rt":1438.1799999400973,"response":{"pregunta24 likert":1},"question_order":[0],"trial_type":"survey-likert","trial_index":26,"time_elapsed":28239075,"internal_node_id":"0.0-5.0-21.0"},{"rt":50238.260000012815,"responses":"{\"pregunta6\":\"a) Las voces extranjeras viven una tensión entre la aceptación y el rechazo. \"}","question_order":"[0]","trial_type":"survey-multi-choice","trial_index":27,"time_elapsed":28289315,"internal_node_id":"0.0-5.0-22.0"},{"rt":1494.4200000017881,"response":{"pregunta6 likert":0},"question_order":[0],"trial_type":"survey-likert","trial_index":28,"time_elapsed":28290811,"internal_node_id":"0.0-5.0-23.0"},{"rt":37646.21499995515,"responses":"{\"pregunta30\":\"a) la muerte es distinta en las grandes ciudades. \"}","question_order":"[0]","trial_type":"survey-multi-choice","trial_index":29,"time_elapsed":28328459,"internal_node_id":"0.0-5.0-24.0"},{"rt":1758.5950000211596,"response":{"pregunta30 likert":2},"question_order":[0],"trial_type":"survey-likert","trial_index":30,"time_elapsed":28330219,"internal_node_id":"0.0-5.0-25.0"},{"rt":33181.955000035465,"responses":"{\"pregunta28\":\"c) Se necesita un marco legal para delimitar lo público y lo privado en materia informativa. \"}","question_order":"[0]","trial_type":"survey-multi-choice","trial_index":31,"time_elapsed":28363403,"internal_node_id":"0.0-5.0-26.0"},{"rt":1878.7649999149144,"response":{"pregunta28 likert":2},"question_order":[0],"trial_type":"survey-likert","trial_index":32,"time_elapsed":28365283,"internal_node_id":"0.0-5.0-27.0"},{"rt":31694.579999893904,"responses":"{\"pregunta1\":\"c) Aportan informaciones con las que se reconstruye el personaje dentro de un relato. \"}","question_order":"[0]","trial_type":"survey-multi-choice","trial_index":33,"time_elapsed":28396979,"internal_node_id":"0.0-5.0-28.0"},{"rt":1478.894999947399,"response":{"pregunta1 likert":1},"question_order":[0],"trial_type":"survey-likert","trial_index":34,"time_elapsed":28398459,"internal_node_id":"0.0-5.0-29.0"},{"rt":114406.53499995917,"responses":"{\"pregunta3\":\"b) El inicio de la dinastía Chang. \"}","question_order":"[0]","trial_type":"survey-multi-choice","trial_index":35,"time_elapsed":28512866,"internal_node_id":"0.0-5.0-30.0"},{"rt":2062.919999938458,"response":{"pregunta3 likert":2},"question_order":[0],"trial_type":"survey-likert","trial_index":36,"time_elapsed":28514931,"internal_node_id":"0.0-5.0-31.0"},{"rt":52662.32500004396,"responses":"{\"pregunta5\":\"a) Los momentos triviales de los viajes, en la escritura se vuelven significativos. \"}","question_order":"[0]","trial_type":"survey-multi-choice","trial_index":37,"time_elapsed":28567595,"internal_node_id":"0.0-5.0-32.0"},{"rt":1774.6749999932945,"response":{"pregunta5 likert":0},"question_order":[0],"trial_type":"survey-likert","trial_index":38,"time_elapsed":28569372,"internal_node_id":"0.0-5.0-33.0"},{"rt":57126.35000003502,"responses":"{\"pregunta14\":\"a) un recuerdo nostálgico. \"}","question_order":"[0]","trial_type":"survey-multi-choice","trial_index":39,"time_elapsed":28626498,"internal_node_id":"0.0-5.0-34.0"},{"rt":1438.2100000530481,"response":{"pregunta14 likert":0},"question_order":[0],"trial_type":"survey-likert","trial_index":40,"time_elapsed":28627938,"internal_node_id":"0.0-5.0-35.0"},{"rt":50846.314999975264,"responses":"{\"pregunta10\":\"c) La biónica puede asegurar nuestra existencia mediante la aplicación de técnicas copiadas de la naturaleza. \"}","question_order":"[0]","trial_type":"survey-multi-choice","trial_index":41,"time_elapsed":28678786,"internal_node_id":"0.0-5.0-36.0"},{"rt":1366.344999987632,"response":{"pregunta10 likert":1},"question_order":[0],"trial_type":"survey-likert","trial_index":42,"time_elapsed":28680154,"internal_node_id":"0.0-5.0-37.0"},{"rt":5886.119999922812,"responses":"{\"pregunta17\":\"b) Revivir un periodo histórico. \"}","question_order":"[0]","trial_type":"survey-multi-choice","trial_index":43,"time_elapsed":28686043,"internal_node_id":"0.0-5.0-38.0"},{"rt":1231.254999987781,"response":{"pregunta17 likert":2},"question_order":[0],"trial_type":"survey-likert","trial_index":44,"time_elapsed":28687275,"internal_node_id":"0.0-5.0-39.0"},{"rt":27590.05499992147,"responses":"{\"pregunta4\":\"c) En la literatura como en la vida, todo es metáfora. \"}","question_order":"[0]","trial_type":"survey-multi-choice","trial_index":45,"time_elapsed":28714867,"internal_node_id":"0.0-5.0-40.0"},{"rt":1334.829999949783,"response":{"pregunta4 likert":2},"question_order":[0],"trial_type":"survey-likert","trial_index":46,"time_elapsed":28716203,"internal_node_id":"0.0-5.0-41.0"},{"rt":18461.765000015497,"responses":"{\"pregunta27\":\"a) El TLC causará una completa transformación de la economía chilena. \"}","question_order":"[0]","trial_type":"survey-multi-choice","trial_index":47,"time_elapsed":28734667,"internal_node_id":"0.0-5.0-42.0"},{"rt":1541.2999999262393,"response":{"pregunta27 likert":2},"question_order":[0],"trial_type":"survey-likert","trial_index":48,"time_elapsed":28736211,"internal_node_id":"0.0-5.0-43.0"},{"rt":4958.729999952018,"responses":"{\"pregunta23\":\"a) A la influencia de grupos que rechazaban su música. \"}","question_order":"[0]","trial_type":"survey-multi-choice","trial_index":49,"time_elapsed":28741171,"internal_node_id":"0.0-5.0-44.0"},{"rt":1886.825000051409,"response":{"pregunta23 likert":0},"question_order":[0],"trial_type":"survey-likert","trial_index":50,"time_elapsed":28743059,"internal_node_id":"0.0-5.0-45.0"},{"rt":8430.679999988526,"responses":"{\"pregunta15\":\"b) ritualistas y obsesivos. \"}","question_order":"[0]","trial_type":"survey-multi-choice","trial_index":51,"time_elapsed":28751491,"internal_node_id":"0.0-5.0-46.0"},{"rt":1510.510000050068,"response":{"pregunta15 likert":1},"question_order":[0],"trial_type":"survey-likert","trial_index":52,"time_elapsed":28753002,"internal_node_id":"0.0-5.0-47.0"},{"rt":31487.094999987632,"responses":"{\"pregunta2\":\"c) A la relación entre sociedad y constitución social. \"}","question_order":"[0]","trial_type":"survey-multi-choice","trial_index":53,"time_elapsed":28784491,"internal_node_id":"0.0-5.0-48.0"},{"rt":1478.7100000530481,"response":{"pregunta2 likert":0},"question_order":[0],"trial_type":"survey-likert","trial_index":54,"time_elapsed":28785971,"internal_node_id":"0.0-5.0-49.0"},{"rt":3014.6049999147654,"responses":"{\"pregunta25\":\"a) tienen dificultades durante el parto. \"}","question_order":"[0]","trial_type":"survey-multi-choice","trial_index":55,"time_elapsed":28788986,"internal_node_id":"0.0-5.0-50.0"},{"rt":1398.8450000733137,"response":{"pregunta25 likert":1},"question_order":[0],"trial_type":"survey-likert","trial_index":56,"time_elapsed":28790387,"internal_node_id":"0.0-5.0-51.0"},{"rt":2550.6300000697374,"responses":"{\"pregunta13\":\"c) Lo que es normal en un asilo es anormal en un campo de concentración. \"}","question_order":"[0]","trial_type":"survey-multi-choice","trial_index":57,"time_elapsed":28792939,"internal_node_id":"0.0-5.0-52.0"},{"rt":1110.8000000230968,"response":{"pregunta13 likert":1},"question_order":[0],"trial_type":"survey-likert","trial_index":58,"time_elapsed":28794051,"internal_node_id":"0.0-5.0-53.0"},{"rt":3294.299999948591,"responses":"{\"pregunta9\":\"c) pueden ejercer profesiones científicas de la misma forma en que lo hacen los hombres. \"}","question_order":"[0]","trial_type":"survey-multi-choice","trial_index":59,"time_elapsed":28797346,"internal_node_id":"0.0-5.0-54.0"},{"rt":1382.845000013709,"response":{"pregunta9 likert":1},"question_order":[0],"trial_type":"survey-likert","trial_index":60,"time_elapsed":28798731,"internal_node_id":"0.0-5.0-55.0"},{"rt":2502.2250000610948,"responses":"{\"pregunta12\":\"b) es una noción que obedece a una visión pesimista de la vida. \"}","question_order":"[0]","trial_type":"survey-multi-choice","trial_index":61,"time_elapsed":28801235,"internal_node_id":"0.0-5.0-56.0"},{"rt":1391.0550000146031,"response":{"pregunta12 likert":1},"question_order":[0],"trial_type":"survey-likert","trial_index":62,"time_elapsed":28802627,"internal_node_id":"0.0-5.0-57.0"},{"rt":70468.94499997422,"responses":"{\"pregunta21\":\"b) el uranio es el elemento natural con el mayor número de protones en el núcleo. \"}","question_order":"[0]","trial_type":"survey-multi-choice","trial_index":63,"time_elapsed":28873099,"internal_node_id":"0.0-5.0-58.0"},{"rt":1990.995000001043,"response":{"pregunta21 likert":1},"question_order":[0],"trial_type":"survey-likert","trial_index":64,"time_elapsed":28875091,"internal_node_id":"0.0-5.0-59.0"},{"rt":2682.7899999916553,"stimulus":"<p style=\"font-size: 120%\">Gracias por completar esta etapa del estudio. Ahora te invitamos a responder el cuestionario.<br><br></p>","response":0,"trial_type":"html-button-response","trial_index":65,"time_elapsed":28877779,"internal_node_id":"0.0-6.0"},{"rt":5471.005000054836,"stimulus":"<h1 style=\"margin-top: 5%\">Cuestionario para la Evaluación de Metas Académicas</h1><p style=\"font-size: 120%; margin-left: 3%; margin-top: 5%\">Este es un cuestionario que permite conocer cuáles son los principales motivos por los que los estudiantes se esfuerzan en su trabajo académico. A continuación, se te presentarán una serie de afirmaciones acerca de los motivos que puedes tener para estudiar.<br>Te pedimos que contestes a dichas afirmaciones reflexionando sobre el contenido de cada una de ellas, que, aunque te parezcan semejantes, en realidad, no lo son.<br>NO HAY RESPUESTAS CORRECTAS o INCORRECTAS, sólo queremos que respondas con la mayor precisión y sinceridad posible a las preguntas que se plantean.","response":0,"trial_type":"html-button-response","trial_index":66,"time_elapsed":28883251,"internal_node_id":"0.0-7.0"},{"rt":87343.1599999331,"response":{"Metas cuestionario pregunta1":2,"Metas cuestionario pregunta2":2,"Metas cuestionario pregunta3":3,"Metas cuestionario pregunta4":3,"Metas cuestionario pregunta5":3,"Metas cuestionario pregunta6":3,"Metas cuestionario pregunta7":3,"Metas cuestionario pregunta8":3,"Metas cuestionario pregunta9":0,"Metas cuestionario pregunta10":0,"Metas cuestionario pregunta11":0,"Metas cuestionario pregunta12":0,"Metas cuestionario pregunta13":0,"Metas cuestionario pregunta14":0,"Metas cuestionario pregunta15":3,"Metas cuestionario pregunta16":3,"Metas cuestionario pregunta17":3,"Metas cuestionario pregunta18":4,"Metas cuestionario pregunta19":4,"Metas cuestionario pregunta20":4},"question_order":[0,1,2,3,4,5,6,7,8,9,10,11,12,13,14,15,16,17,18,19],"trial_type":"survey-likert","trial_index":67,"time_elapsed":28970599,"internal_node_id":"0.0-8.0"},{"rt":2135.7200000211596,"stimulus":"<p style=\"font-size: 120%\">Gracias por responder el cuestionario. Ahora te invitamos a seguir con el juego, que es muy breve.<br><br></p>","response":0,"trial_type":"html-button-response","trial_index":68,"time_elapsed":28972739,"internal_node_id":"0.0-9.0"},{"rt":1863.1150000728667,"stimulus":"<h1>Juego</h1><p style=\"font-size: 120%;\">A continuación se te presentarán 16 pequeñas historias.<br>Por favor lee el texto presentado en cada una de ellas y luego haz click en el objeto de tu elección.<br>Si estás listo(a),<span style=\"color:red;\"> haz click en \"comenzar\"</span>.</p>","response":0,"trial_type":"html-button-response","trial_index":69,"time_elapsed":28974603,"internal_node_id":"0.0-10.0"},{"rt":6417.005000051111,"grid":[[1],[1],[1],[1],[1],[1]],"target":[0,0],"response":[0,0],"correct":true,"juego":5,"trial_type":"serial-reaction-time-mouse","trial_index":70,"time_elapsed":28981022,"internal_node_id":"0.0-11.0-0.0"},{"rt":4736.550000034273,"grid":[[1,1,1],[1,1,1],[1,1,1]],"target":[0,0],"response":[0,0],"correct":true,"juego":10,"trial_type":"serial-reaction-time-mouse","trial_index":71,"time_elapsed":28985760,"internal_node_id":"0.0-11.0-1.0"},{"rt":2803.6350000165403,"grid":[[1,1,1]],"target":[0,2],"response":[0,1],"correct":false,"juego":1,"trial_type":"serial-reaction-time-mouse","trial_index":72,"time_elapsed":28988567,"internal_node_id":"0.0-11.0-2.0"},{"rt":4840.300000041723,"grid":[[1,1,1]],"target":[0,2],"response":[0,2],"correct":true,"juego":2,"trial_type":"serial-reaction-time-mouse","trial_index":73,"time_elapsed":28993409,"internal_node_id":"0.0-11.0-3.0"},{"rt":8167.475000023842,"grid":[[1,1,1],[1,1,1],[1,1,1],[1,1,1],[1,1,1],[1,1,1],[1,1,1]],"target":[0,0],"response":[3,1],"correct":false,"juego":13,"trial_type":"serial-reaction-time-mouse","trial_index":74,"time_elapsed":29001582,"internal_node_id":"0.0-11.0-4.0"},{"rt":2669.144999936223,"grid":[[1,1,1]],"target":[0,2],"response":[0,0],"correct":false,"juego":7,"trial_type":"serial-reaction-time-mouse","trial_index":75,"time_elapsed":29004253,"internal_node_id":"0.0-11.0-5.0"},{"rt":3221.23499994725,"grid":[[1,1,1]],"target":[0,2],"response":[0,0],"correct":false,"juego":3,"trial_type":"serial-reaction-time-mouse","trial_index":76,"time_elapsed":29007476,"internal_node_id":"0.0-11.0-6.0"},{"rt":4542.845000047237,"grid":[[1,1,1]],"target":[0,0],"response":[0,2],"correct":false,"juego":11,"trial_type":"serial-reaction-time-mouse","trial_index":77,"time_elapsed":29012020,"internal_node_id":"0.0-11.0-7.0"},{"rt":6485.240000069141,"grid":[[1,1],[1,1],[1,1],[1,1],[1,1],[1,1],[1,1]],"target":[0,0],"response":[5,1],"correct":false,"juego":15,"trial_type":"serial-reaction-time-mouse","trial_index":78,"time_elapsed":29018507,"internal_node_id":"0.0-11.0-8.0"},{"rt":6548.040000021458,"grid":[[1,1,1]],"target":[0,0],"response":[0,2],"correct":false,"juego":12,"trial_type":"serial-reaction-time-mouse","trial_index":79,"time_elapsed":29025057,"internal_node_id":"0.0-11.0-9.0"},{"rt":5638.544999994338,"grid":[[1],[1],[1]],"target":[0,2],"response":[1,0],"correct":false,"juego":4,"trial_type":"serial-reaction-time-mouse","trial_index":80,"time_elapsed":29030700,"internal_node_id":"0.0-11.0-10.0"},{"rt":1821.679999936372,"grid":[[1,1,1],[1,1,1],[1,1,1],[1,1,1],[1,1,1],[1,1,1],[1,1,1]],"target":[0,0],"response":[1,1],"correct":false,"juego":6,"trial_type":"serial-reaction-time-mouse","trial_index":81,"time_elapsed":29032524,"internal_node_id":"0.0-11.0-11.0"},{"rt":1744.2100000344217,"grid":[[1,1,1]],"target":[0,2],"response":[0,2],"correct":true,"juego":8,"trial_type":"serial-reaction-time-mouse","trial_index":82,"time_elapsed":29034269,"internal_node_id":"0.0-11.0-12.0"},{"rt":4933.980000089854,"grid":[[1,1],[1,1],[1,1],[1,1],[1,1],[1,1],[1,1]],"target":[0,0],"response":[3,1],"correct":false,"juego":14,"trial_type":"serial-reaction-time-mouse","trial_index":83,"time_elapsed":29039207,"internal_node_id":"0.0-11.0-13.0"},{"rt":2556.160000037402,"grid":[[1,1,1]],"target":[0,0],"response":[0,2],"correct":false,"juego":9,"trial_type":"serial-reaction-time-mouse","trial_index":84,"time_elapsed":29041767,"internal_node_id":"0.0-11.0-14.0"}]