[{"rt":37392.5199999976,"stimulus":"<h1 style=\"color:red; margin-top: 3%;\">¡Bienvenido(a)!</h1><p style=\"text-align:left; justify-content:space-between; margin-right: 5%; margin-left: 5%; margin-top: 5%\"> Antes de empezar el estudio, necesitamos que nos confirmes que estás de acuerdo con participar. Recuerda que tu participación es 100% voluntaria y que lo único que te pedimos es responder lo mejor que puedas. Recuerda también que el estudio incluye:</p><ol style=\"text-align:left; justify-content:space-between; margin-right: 5%; margin-left: 5%;\"><li> un ejercicio de resolución de preguntas de selección múltiple (30’),</li><li>un cuestionario breve (5’),</li><li>un juego muy breve (3’),</li></ol><p style=\"text-align:left; justify-content:space-between; margin-right: 5%; margin-left: 5%;\">Si quieres participar, haz clic en “Acepto” luego de leer lo siguiente:<br></p><p style=\"text-align:left; justify-content:space-between; margin-right: 5%; margin-left: 5%;\">Acepto participar en el estudio “Estrategias de lectura y resolución de preguntas de selección múltiple”, en los términos aquí señalados:<br></p><p style=\"text-align:left; justify-content:space-between; margin-right: 5%; margin-left: 5%;\"><a href=\"http://ciae.uchile.cl/download.php?file=noticias/Asentimiento.pdf\" target=\"_blank\">Link a la hoja de información del Consentimiento.</a></p><p style=\"text-align:left; justify-content:space-between; margin-right: 5%; margin-left: 5%;\">Declaro que he leído (o se me ha leído) y (he) comprendido, las condiciones de mi participación en este estudio. He tenido la oportunidad de hacer preguntas y éstas han sido respondidas. No tengo dudas al respecto.</p>","response":0,"condicion_MCQ":6,"condicion_INTER":6,"numero_participante":6,"numero_version":1,"dimx":1366,"dimy":768,"color_profundidad":24,"pixel_profundidad":24,"Browser":"Google Chrome","trial_type":"html-button-response","trial_index":0,"time_elapsed":37397,"internal_node_id":"0.0-0.0"},{"success":true,"trial_type":"fullscreen","trial_index":1,"time_elapsed":47450,"internal_node_id":"0.0-1.0"},{"rt":69422.66499999823,"responses":"{\"Nombres\":\"Tamara Belén\",\"Apellidos\":\"Sánchez Bastías\",\"Edad\":\"18\",\"Sexo\":\"mujer\",\"Curso\":\"1er año\",\"Colegio\":\"Universidad Andrés Bello\",\"Contacto\":\"tamybelen02@gmail.com\"}","trial_type":"survey-text","trial_index":2,"time_elapsed":116911,"internal_node_id":"0.0-2.0"},{"success":true,"timeout":false,"failed_images":[],"failed_audio":[],"failed_video":[],"trial_type":"preload","trial_index":3,"time_elapsed":118094,"internal_node_id":"0.0-3.0"},{"rt":19858.464999997523,"stimulus":"<h1 style:\"margin-top: 5%;\">Ejercicios de Comprensión de Lectura de la Universidad de Chile</h1><p style=\"font-size: 120%;\">En esta actividad, debes responder 30 preguntas de selección múltiple. Cada pregunta presenta 3 respuestas alternativas, pero sólo una de ellas es correcta. Por lo tanto, debes escoger una sola alternativa para cada pregunta. Además, debes reportar qué tan seguro(a) estás de la respuesta que das, con un:</p><ol style=\"font-size: 120%;text-align:left;margin-left: 40%;\"><li>No estoy seguro(a) para nada</li><li>No estoy muy seguro(a)</li><li>Estoy bastante seguro(a)</li><li>Estoy totalmente seguro(a)</li></ol><p style=\"font-size: 120%;\">Por favor lee bien los enunciados antes de responder. ¡Éxito!</p>","response":0,"trial_type":"html-button-response","trial_index":4,"time_elapsed":137954,"internal_node_id":"0.0-4.0"},{"rt":92709.03999999791,"responses":"{\"pregunta12\":\"a) se da como existente, y sólo se discute su relación con el cuerpo. \"}","question_order":"[0]","trial_type":"survey-multi-choice","trial_index":5,"time_elapsed":230666,"internal_node_id":"0.0-5.0-0.0"},{"rt":4431.150000000343,"response":{"pregunta12 likert":1},"question_order":[0],"trial_type":"survey-likert","trial_index":6,"time_elapsed":235104,"internal_node_id":"0.0-5.0-1.0"},{"rt":72862.27999999755,"responses":"{\"pregunta15\":\"c) ritualistas y obsesivos. \"}","question_order":"[0]","trial_type":"survey-multi-choice","trial_index":7,"time_elapsed":307973,"internal_node_id":"0.0-5.0-2.0"},{"rt":1997.5850000010105,"response":{"pregunta15 likert":2},"question_order":[0],"trial_type":"survey-likert","trial_index":8,"time_elapsed":309983,"internal_node_id":"0.0-5.0-3.0"},{"rt":69448.66999999795,"responses":"{\"pregunta26\":\"c) para Aristóteles la virtud estaba en el justo equilibrio. \"}","question_order":"[0]","trial_type":"survey-multi-choice","trial_index":9,"time_elapsed":379437,"internal_node_id":"0.0-5.0-4.0"},{"rt":1641.6900000004098,"response":{"pregunta26 likert":2},"question_order":[0],"trial_type":"survey-likert","trial_index":10,"time_elapsed":381085,"internal_node_id":"0.0-5.0-5.0"},{"rt":50714.755000000936,"responses":"{\"pregunta10\":\"a) La biónica puede asegurar nuestra existencia mediante la aplicación de técnicas copiadas de la naturaleza. \"}","question_order":"[0]","trial_type":"survey-multi-choice","trial_index":11,"time_elapsed":431806,"internal_node_id":"0.0-5.0-6.0"},{"rt":2096.61000000051,"response":{"pregunta10 likert":3},"question_order":[0],"trial_type":"survey-likert","trial_index":12,"time_elapsed":433910,"internal_node_id":"0.0-5.0-7.0"},{"rt":54871.82499999832,"responses":"{\"pregunta9\":\"a) pueden ejercer profesiones científicas de la misma forma en que lo hacen los hombres. \"}","question_order":"[0]","trial_type":"survey-multi-choice","trial_index":13,"time_elapsed":488788,"internal_node_id":"0.0-5.0-8.0"},{"rt":1818.2149999993271,"response":{"pregunta9 likert":2},"question_order":[0],"trial_type":"survey-likert","trial_index":14,"time_elapsed":490612,"internal_node_id":"0.0-5.0-9.0"},{"rt":98719.38000000227,"responses":"{\"pregunta2\":\"a) A la relación entre sociedad y constitución social. \"}","question_order":"[0]","trial_type":"survey-multi-choice","trial_index":15,"time_elapsed":589339,"internal_node_id":"0.0-5.0-10.0"},{"rt":2434.385000000475,"response":{"pregunta2 likert":1},"question_order":[0],"trial_type":"survey-likert","trial_index":16,"time_elapsed":591781,"internal_node_id":"0.0-5.0-11.0"},{"rt":87503.01000000036,"responses":"{\"pregunta29\":\"b) el jardinero estará muerto al día siguiente. \"}","question_order":"[0]","trial_type":"survey-multi-choice","trial_index":17,"time_elapsed":679290,"internal_node_id":"0.0-5.0-12.0"},{"rt":2089.5350000028266,"response":{"pregunta29 likert":2},"question_order":[0],"trial_type":"survey-likert","trial_index":18,"time_elapsed":681392,"internal_node_id":"0.0-5.0-13.0"},{"rt":48038.870000000345,"responses":"{\"pregunta19\":\"a) El hábito de la lectura y el progreso mantienen una relación inversamente proporcional. \"}","question_order":"[0]","trial_type":"survey-multi-choice","trial_index":19,"time_elapsed":729436,"internal_node_id":"0.0-5.0-14.0"},{"rt":1433.8850000022212,"response":{"pregunta19 likert":1},"question_order":[0],"trial_type":"survey-likert","trial_index":20,"time_elapsed":730876,"internal_node_id":"0.0-5.0-15.0"},{"rt":56906.429999999,"responses":"{\"pregunta23\":\"b) A la influencia de grupos que rechazaban su música. \"}","question_order":"[0]","trial_type":"survey-multi-choice","trial_index":21,"time_elapsed":787788,"internal_node_id":"0.0-5.0-16.0"},{"rt":1971.0549999981886,"response":{"pregunta23 likert":2},"question_order":[0],"trial_type":"survey-likert","trial_index":22,"time_elapsed":789768,"internal_node_id":"0.0-5.0-17.0"},{"rt":44659.14499999781,"responses":"{\"pregunta14\":\"c) preparar los recuerdos del mañana. \"}","question_order":"[0]","trial_type":"survey-multi-choice","trial_index":23,"time_elapsed":834433,"internal_node_id":"0.0-5.0-18.0"},{"rt":1742.020000001532,"response":{"pregunta14 likert":3},"question_order":[0],"trial_type":"survey-likert","trial_index":24,"time_elapsed":836182,"internal_node_id":"0.0-5.0-19.0"},{"rt":24326.610000000102,"responses":"{\"pregunta1\":\"a) Aportan informaciones con las que se reconstruye el personaje dentro de un relato. \"}","question_order":"[0]","trial_type":"survey-multi-choice","trial_index":25,"time_elapsed":860515,"internal_node_id":"0.0-5.0-20.0"},{"rt":2073.789999998524,"response":{"pregunta1 likert":2},"question_order":[0],"trial_type":"survey-likert","trial_index":26,"time_elapsed":862595,"internal_node_id":"0.0-5.0-21.0"},{"rt":22234.024999997928,"responses":"{\"pregunta8\":\"b) Dar a conocer al ganador del premio Cervantes. \"}","question_order":"[0]","trial_type":"survey-multi-choice","trial_index":27,"time_elapsed":884835,"internal_node_id":"0.0-5.0-22.0"},{"rt":2073.919999998994,"response":{"pregunta8 likert":2},"question_order":[0],"trial_type":"survey-likert","trial_index":28,"time_elapsed":886915,"internal_node_id":"0.0-5.0-23.0"},{"rt":26622.465000000433,"responses":"{\"pregunta4\":\"a) En la literatura como en la vida, todo es metáfora. \"}","question_order":"[0]","trial_type":"survey-multi-choice","trial_index":29,"time_elapsed":913544,"internal_node_id":"0.0-5.0-24.0"},{"rt":1849.304999999702,"response":{"pregunta4 likert":1},"question_order":[0],"trial_type":"survey-likert","trial_index":30,"time_elapsed":915399,"internal_node_id":"0.0-5.0-25.0"},{"rt":94757.23500000103,"responses":"{\"pregunta24\":\"a) El receptor es habitualmente pasivo frente a la publicidad. \"}","question_order":"[0]","trial_type":"survey-multi-choice","trial_index":31,"time_elapsed":1010163,"internal_node_id":"0.0-5.0-26.0"},{"rt":2367.5250000015367,"response":{"pregunta24 likert":1},"question_order":[0],"trial_type":"survey-likert","trial_index":32,"time_elapsed":1012537,"internal_node_id":"0.0-5.0-27.0"},{"rt":26636.255000001285,"responses":"{\"pregunta3\":\"a) El inicio de la civilización china. \"}","question_order":"[0]","trial_type":"survey-multi-choice","trial_index":33,"time_elapsed":1039179,"internal_node_id":"0.0-5.0-28.0"},{"rt":1979.9549999989104,"response":{"pregunta3 likert":2},"question_order":[0],"trial_type":"survey-likert","trial_index":34,"time_elapsed":1041165,"internal_node_id":"0.0-5.0-29.0"},{"rt":37134.81999999937,"responses":"{\"pregunta27\":\"b) El TLC causará una completa transformación de la economía chilena. \"}","question_order":"[0]","trial_type":"survey-multi-choice","trial_index":35,"time_elapsed":1078306,"internal_node_id":"0.0-5.0-30.0"},{"rt":3892.1349999983795,"response":{"pregunta27 likert":1},"question_order":[0],"trial_type":"survey-likert","trial_index":36,"time_elapsed":1082204,"internal_node_id":"0.0-5.0-31.0"},{"rt":140549.22500000265,"responses":"{\"pregunta11\":\"a) Presentar positivamente las diversas tendencias del diseño de interiores a través de un comentario. \"}","question_order":"[0]","trial_type":"survey-multi-choice","trial_index":37,"time_elapsed":1222759,"internal_node_id":"0.0-5.0-32.0"},{"rt":2195.6899999966845,"response":{"pregunta11 likert":1},"question_order":[0],"trial_type":"survey-likert","trial_index":38,"time_elapsed":1224962,"internal_node_id":"0.0-5.0-33.0"},{"rt":91249.58500000136,"responses":"{\"pregunta6\":\"a) La aparición del Diccionario Académico ha sido polémica. \"}","question_order":"[0]","trial_type":"survey-multi-choice","trial_index":39,"time_elapsed":1316216,"internal_node_id":"0.0-5.0-34.0"},{"rt":2057.795000000624,"response":{"pregunta6 likert":1},"question_order":[0],"trial_type":"survey-likert","trial_index":40,"time_elapsed":1318280,"internal_node_id":"0.0-5.0-35.0"},{"rt":91893.2499999972,"responses":"{\"pregunta7\":\"c) Si desaparecieran el papel y la imprenta, se produciría un gran retraso en nuestra civilización. \"}","question_order":"[0]","trial_type":"survey-multi-choice","trial_index":41,"time_elapsed":1410179,"internal_node_id":"0.0-5.0-36.0"},{"rt":2995.33499999973,"response":{"pregunta7 likert":2},"question_order":[0],"trial_type":"survey-likert","trial_index":42,"time_elapsed":1413181,"internal_node_id":"0.0-5.0-37.0"},{"rt":57793.29499999946,"responses":"{\"pregunta13\":\"b) El ser humano se comporta de acuerdo con las circunstancias. \"}","question_order":"[0]","trial_type":"survey-multi-choice","trial_index":43,"time_elapsed":1470981,"internal_node_id":"0.0-5.0-38.0"},{"rt":1277.3999999989755,"response":{"pregunta13 likert":1},"question_order":[0],"trial_type":"survey-likert","trial_index":44,"time_elapsed":1472265,"internal_node_id":"0.0-5.0-39.0"},{"rt":94701.63999999943,"responses":"{\"pregunta17\":\"a) Homenajear a quienes murieron. \"}","question_order":"[0]","trial_type":"survey-multi-choice","trial_index":45,"time_elapsed":1566971,"internal_node_id":"0.0-5.0-40.0"},{"rt":2196.4499999994878,"response":{"pregunta17 likert":1},"question_order":[0],"trial_type":"survey-likert","trial_index":46,"time_elapsed":1569179,"internal_node_id":"0.0-5.0-41.0"},{"rt":23045.09999999916,"responses":"{\"pregunta5\":\"b) Los momentos triviales de los viajes, en la escritura se vuelven significativos. \"}","question_order":"[0]","trial_type":"survey-multi-choice","trial_index":47,"time_elapsed":1592229,"internal_node_id":"0.0-5.0-42.0"},{"rt":2279.9699999997392,"response":{"pregunta5 likert":1},"question_order":[0],"trial_type":"survey-likert","trial_index":48,"time_elapsed":1594515,"internal_node_id":"0.0-5.0-43.0"},{"rt":16440.84999999893,"responses":"{\"pregunta22\":\"a) Bomberos debería tener acceso a un seguro médico, al que pueda recurrir en caso de accidente. \"}","question_order":"[0]","trial_type":"survey-multi-choice","trial_index":49,"time_elapsed":1610962,"internal_node_id":"0.0-5.0-44.0"},{"rt":1396.1449999988545,"response":{"pregunta22 likert":2},"question_order":[0],"trial_type":"survey-likert","trial_index":50,"time_elapsed":1612365,"internal_node_id":"0.0-5.0-45.0"},{"rt":63953.9299999997,"responses":"{\"pregunta25\":\"c) llevan un control grupal de su embarazo. \"}","question_order":"[0]","trial_type":"survey-multi-choice","trial_index":51,"time_elapsed":1676324,"internal_node_id":"0.0-5.0-46.0"},{"rt":3073.3799999980256,"response":{"pregunta25 likert":1},"question_order":[0],"trial_type":"survey-likert","trial_index":52,"time_elapsed":1679404,"internal_node_id":"0.0-5.0-47.0"},{"rt":53365.21999999951,"responses":"{\"pregunta16\":\"b) Provocar el deseo de la adquisición vertiginosa. \"}","question_order":"[0]","trial_type":"survey-multi-choice","trial_index":53,"time_elapsed":1732776,"internal_node_id":"0.0-5.0-48.0"},{"rt":1277.434999999823,"response":{"pregunta16 likert":2},"question_order":[0],"trial_type":"survey-likert","trial_index":54,"time_elapsed":1734061,"internal_node_id":"0.0-5.0-49.0"},{"rt":16265.889999998733,"responses":"{\"pregunta30\":\"c) para el mexicano, la muerte es cotidiana. \"}","question_order":"[0]","trial_type":"survey-multi-choice","trial_index":55,"time_elapsed":1750333,"internal_node_id":"0.0-5.0-50.0"},{"rt":1526.3349999985658,"response":{"pregunta30 likert":1},"question_order":[0],"trial_type":"survey-likert","trial_index":56,"time_elapsed":1751866,"internal_node_id":"0.0-5.0-51.0"},{"rt":36624.34000000195,"responses":"{\"pregunta20\":\"a) sólo las leyes bastan para gobernarse. \"}","question_order":"[0]","trial_type":"survey-multi-choice","trial_index":57,"time_elapsed":1788496,"internal_node_id":"0.0-5.0-52.0"},{"rt":1625.889999999432,"response":{"pregunta20 likert":1},"question_order":[0],"trial_type":"survey-likert","trial_index":58,"time_elapsed":1790128,"internal_node_id":"0.0-5.0-53.0"},{"rt":25586.015000000596,"responses":"{\"pregunta18\":\"a) A la inutilidad de tanto esfuerzo si el objetivo es el reposo. \"}","question_order":"[0]","trial_type":"survey-multi-choice","trial_index":59,"time_elapsed":1815720,"internal_node_id":"0.0-5.0-54.0"},{"rt":1017.9250000002794,"response":{"pregunta18 likert":1},"question_order":[0],"trial_type":"survey-likert","trial_index":60,"time_elapsed":1816744,"internal_node_id":"0.0-5.0-55.0"},{"rt":41460.1949999996,"responses":"{\"pregunta28\":\"a) Se necesita un marco legal para delimitar lo público y lo privado en materia informativa. \"}","question_order":"[0]","trial_type":"survey-multi-choice","trial_index":61,"time_elapsed":1858211,"internal_node_id":"0.0-5.0-56.0"},{"rt":2242.050000000745,"response":{"pregunta28 likert":2},"question_order":[0],"trial_type":"survey-likert","trial_index":62,"time_elapsed":1860459,"internal_node_id":"0.0-5.0-57.0"},{"rt":39153.78000000073,"responses":"{\"pregunta21\":\"b) la creación de elementos químicos artificiales ha resultado de la manipulación del uranio. \"}","question_order":"[0]","trial_type":"survey-multi-choice","trial_index":63,"time_elapsed":1899619,"internal_node_id":"0.0-5.0-58.0"},{"rt":1701.574999999022,"response":{"pregunta21 likert":1},"question_order":[0],"trial_type":"survey-likert","trial_index":64,"time_elapsed":1901327,"internal_node_id":"0.0-5.0-59.0"},{"rt":2935.875000003027,"stimulus":"<p style=\"font-size: 120%\">Gracias por completar esta etapa del estudio. Ahora te invitamos a responder el cuestionario.<br><br></p>","response":0,"trial_type":"html-button-response","trial_index":65,"time_elapsed":1904275,"internal_node_id":"0.0-6.0"},{"rt":20506.70499999961,"stimulus":"<h1 style=\"margin-top: 5%\">Cuestionario para la Evaluación de Metas Académicas</h1><p style=\"font-size: 120%; margin-left: 3%; margin-top: 5%\">Este es un cuestionario que permite conocer cuáles son los principales motivos por los que los estudiantes se esfuerzan en su trabajo académico. A continuación, se te presentarán una serie de afirmaciones acerca de los motivos que puedes tener para estudiar.<br>Te pedimos que contestes a dichas afirmaciones reflexionando sobre el contenido de cada una de ellas, que, aunque te parezcan semejantes, en realidad, no lo son.<br>NO HAY RESPUESTAS CORRECTAS o INCORRECTAS, sólo queremos que respondas con la mayor precisión y sinceridad posible a las preguntas que se plantean.","response":0,"trial_type":"html-button-response","trial_index":66,"time_elapsed":1924783,"internal_node_id":"0.0-7.0"},{"rt":91868.14999999828,"response":{"Metas cuestionario pregunta1":2,"Metas cuestionario pregunta2":3,"Metas cuestionario pregunta3":3,"Metas cuestionario pregunta4":1,"Metas cuestionario pregunta5":3,"Metas cuestionario pregunta6":3,"Metas cuestionario pregunta7":3,"Metas cuestionario pregunta8":2,"Metas cuestionario pregunta9":0,"Metas cuestionario pregunta10":0,"Metas cuestionario pregunta11":0,"Metas cuestionario pregunta12":0,"Metas cuestionario pregunta13":0,"Metas cuestionario pregunta14":0,"Metas cuestionario pregunta15":4,"Metas cuestionario pregunta16":4,"Metas cuestionario pregunta17":4,"Metas cuestionario pregunta18":4,"Metas cuestionario pregunta19":4,"Metas cuestionario pregunta20":3},"question_order":[0,1,2,3,4,5,6,7,8,9,10,11,12,13,14,15,16,17,18,19],"trial_type":"survey-likert","trial_index":67,"time_elapsed":2016659,"internal_node_id":"0.0-8.0"},{"rt":1676.3350000001956,"stimulus":"<p style=\"font-size: 120%\">Gracias por responder el cuestionario. Ahora te invitamos a seguir con el juego, que es muy breve.<br><br></p>","response":0,"trial_type":"html-button-response","trial_index":68,"time_elapsed":2018347,"internal_node_id":"0.0-9.0"},{"rt":8812.27500000014,"stimulus":"<h1>Juego</h1><p style=\"font-size: 120%;\">A continuación se te presentarán 16 pequeñas historias.<br>Por favor lee el texto presentado en cada una de ellas y luego haz click en el objeto de tu elección.<br>Si estás listo(a),<span style=\"color:red;\"> haz click en \"comenzar\"</span>.</p>","response":0,"trial_type":"html-button-response","trial_index":69,"time_elapsed":2027160,"internal_node_id":"0.0-10.0"},{"rt":5501.7049999986775,"grid":[[1,1,1],[1,1,1],[1,1,1],[1,1,1],[1,1,1],[1,1,1],[1,1,1]],"target":[0,0],"response":[3,1],"correct":false,"juego":6,"trial_type":"serial-reaction-time-mouse","trial_index":70,"time_elapsed":2032665,"internal_node_id":"0.0-11.0-0.0"},{"rt":8132.444999999367,"grid":[[1,1,1]],"target":[0,0],"response":[0,2],"correct":false,"juego":12,"trial_type":"serial-reaction-time-mouse","trial_index":71,"time_elapsed":2040800,"internal_node_id":"0.0-11.0-1.0"},{"rt":11743.06499999878,"grid":[[1,1,1]],"target":[0,2],"response":[0,2],"correct":true,"juego":3,"trial_type":"serial-reaction-time-mouse","trial_index":72,"time_elapsed":2052545,"internal_node_id":"0.0-11.0-2.0"},{"rt":8840.949999997858,"grid":[[1,1,1]],"target":[0,0],"response":[0,0],"correct":true,"juego":9,"trial_type":"serial-reaction-time-mouse","trial_index":73,"time_elapsed":2061388,"internal_node_id":"0.0-11.0-3.0"},{"rt":3571.350000001956,"grid":[[1],[1],[1]],"target":[0,2],"response":[2,0],"correct":false,"juego":4,"trial_type":"serial-reaction-time-mouse","trial_index":74,"time_elapsed":2064961,"internal_node_id":"0.0-11.0-4.0"},{"rt":9994.729999998352,"grid":[[1],[1],[1],[1],[1],[1]],"target":[0,0],"response":[2,0],"correct":false,"juego":5,"trial_type":"serial-reaction-time-mouse","trial_index":75,"time_elapsed":2074958,"internal_node_id":"0.0-11.0-5.0"},{"rt":14480.175000000745,"grid":[[1,1,1]],"target":[0,0],"response":[0,2],"correct":false,"juego":11,"trial_type":"serial-reaction-time-mouse","trial_index":76,"time_elapsed":2089442,"internal_node_id":"0.0-11.0-6.0"},{"rt":7924.129999999655,"grid":[[1,1,1]],"target":[0,2],"response":[0,2],"correct":true,"juego":8,"trial_type":"serial-reaction-time-mouse","trial_index":77,"time_elapsed":2097368,"internal_node_id":"0.0-11.0-7.0"},{"rt":10352.944999998435,"grid":[[1,1],[1,1],[1,1],[1,1],[1,1],[1,1],[1,1]],"target":[0,0],"response":[3,1],"correct":false,"juego":14,"trial_type":"serial-reaction-time-mouse","trial_index":78,"time_elapsed":2107723,"internal_node_id":"0.0-11.0-8.0"},{"rt":10470.055000001565,"grid":[[1,1,1],[1,1,1],[1,1,1]],"target":[0,0],"response":[0,2],"correct":false,"juego":10,"trial_type":"serial-reaction-time-mouse","trial_index":79,"time_elapsed":2118198,"internal_node_id":"0.0-11.0-9.0"},{"rt":12094.19999999972,"grid":[[1,1],[1,1],[1,1],[1,1],[1,1],[1,1],[1,1]],"target":[0,0],"response":[3,1],"correct":false,"juego":15,"trial_type":"serial-reaction-time-mouse","trial_index":80,"time_elapsed":2130298,"internal_node_id":"0.0-11.0-10.0"},{"rt":4045.0400000009686,"grid":[[1,1,1]],"target":[0,2],"response":[0,1],"correct":false,"juego":2,"trial_type":"serial-reaction-time-mouse","trial_index":81,"time_elapsed":2134346,"internal_node_id":"0.0-11.0-11.0"},{"rt":7966.625000000931,"grid":[[1,1,1]],"target":[0,2],"response":[0,0],"correct":false,"juego":7,"trial_type":"serial-reaction-time-mouse","trial_index":82,"time_elapsed":2142315,"internal_node_id":"0.0-11.0-12.0"},{"rt":3368.619999997318,"grid":[[1,1,1]],"target":[0,2],"response":[0,2],"correct":true,"juego":1,"trial_type":"serial-reaction-time-mouse","trial_index":83,"time_elapsed":2145686,"internal_node_id":"0.0-11.0-13.0"},{"rt":7555.0450000013225,"grid":[[1,1,1],[1,1,1],[1,1,1],[1,1,1],[1,1,1],[1,1,1],[1,1,1]],"target":[0,0],"response":[1,1],"correct":false,"juego":13,"trial_type":"serial-reaction-time-mouse","trial_index":84,"time_elapsed":2153245,"internal_node_id":"0.0-11.0-14.0"}]