[{"rt":71350.8299999994,"stimulus":"<h1 style=\"color:red; margin-top: 3%;\">¡Bienvenido(a)!</h1><p style=\"text-align:left; justify-content:space-between; margin-right: 5%; margin-left: 5%; margin-top: 5%\"> Antes de empezar el estudio, necesitamos que nos confirmes que estás de acuerdo con participar. Recuerda que tu participación es 100% voluntaria y que lo único que te pedimos es responder lo mejor que puedas. Recuerda también que el estudio incluye:</p><ol style=\"text-align:left; justify-content:space-between; margin-right: 5%; margin-left: 5%;\"><li> un ejercicio de resolución de preguntas de selección múltiple (30’),</li><li>un cuestionario breve (5’),</li><li>un juego muy breve (3’),</li></ol><p style=\"text-align:left; justify-content:space-between; margin-right: 5%; margin-left: 5%;\">Si quieres participar, haz clic en “Acepto” luego de leer lo siguiente:<br></p><p style=\"text-align:left; justify-content:space-between; margin-right: 5%; margin-left: 5%;\">Acepto participar en el estudio “Estrategias de lectura y resolución de preguntas de selección múltiple”, en los términos aquí señalados:<br></p><p style=\"text-align:left; justify-content:space-between; margin-right: 5%; margin-left: 5%;\"><a href=\"http://ciae.uchile.cl/download.php?file=noticias/Asentimiento.pdf\" target=\"_blank\">Link a la hoja de información del Consentimiento.</a></p><p style=\"text-align:left; justify-content:space-between; margin-right: 5%; margin-left: 5%;\">Declaro que he leído (o se me ha leído) y (he) comprendido, las condiciones de mi participación en este estudio. He tenido la oportunidad de hacer preguntas y éstas han sido respondidas. No tengo dudas al respecto.</p>","response":0,"condicion_MCQ":4,"condicion_INTER":16,"numero_participante":64,"numero_version":1,"dimx":1440,"dimy":900,"color_profundidad":30,"pixel_profundidad":30,"Browser":"Google Chrome","trial_type":"html-button-response","trial_index":0,"time_elapsed":71363,"internal_node_id":"0.0-0.0"},{"success":true,"trial_type":"fullscreen","trial_index":1,"time_elapsed":75476,"internal_node_id":"0.0-1.0"},{"rt":50891.82999999866,"responses":"{\"Nombres\":\"Maria Belen\",\"Apellidos\":\"Delucchi Silva\",\"Edad\":\"18\",\"Sexo\":\"mujer\",\"Curso\":\"Primer año\",\"Colegio\":\"Universidad Andres Bello \",\"Contacto\":\"belendelucchis@gmail.com\"}","trial_type":"survey-text","trial_index":2,"time_elapsed":126379,"internal_node_id":"0.0-2.0"},{"success":true,"timeout":false,"failed_images":[],"failed_audio":[],"failed_video":[],"trial_type":"preload","trial_index":3,"time_elapsed":127175,"internal_node_id":"0.0-3.0"},{"rt":8571.09500000115,"stimulus":"<h1 style:\"margin-top: 5%;\">Ejercicios de Comprensión de Lectura de la Universidad de Chile</h1><p style=\"font-size: 120%;\">En esta actividad, debes responder 30 preguntas de selección múltiple. Cada pregunta presenta 3 respuestas alternativas, pero sólo una de ellas es correcta. Por lo tanto, debes escoger una sola alternativa para cada pregunta. Además, debes reportar qué tan seguro(a) estás de la respuesta que das, con un:</p><ol style=\"font-size: 120%;text-align:left;margin-left: 40%;\"><li>No estoy seguro(a) para nada</li><li>No estoy muy seguro(a)</li><li>Estoy bastante seguro(a)</li><li>Estoy totalmente seguro(a)</li></ol><p style=\"font-size: 120%;\">Por favor lee bien los enunciados antes de responder. ¡Éxito!</p>","response":0,"trial_type":"html-button-response","trial_index":4,"time_elapsed":135748,"internal_node_id":"0.0-4.0"},{"rt":65065.59999999992,"responses":"{\"pregunta6\":\"b) La aparición del Diccionario Académico ha sido polémica. \"}","question_order":"[0]","trial_type":"survey-multi-choice","trial_index":5,"time_elapsed":200818,"internal_node_id":"0.0-5.0-0.0"},{"rt":3921.4100000008475,"response":{"pregunta6 likert":1},"question_order":[0],"trial_type":"survey-likert","trial_index":6,"time_elapsed":204742,"internal_node_id":"0.0-5.0-1.0"},{"rt":41183.56999999925,"responses":"{\"pregunta8\":\"a) Comparar a Cervantes con Quevedo. \"}","question_order":"[0]","trial_type":"survey-multi-choice","trial_index":7,"time_elapsed":245929,"internal_node_id":"0.0-5.0-2.0"},{"rt":1813.889999999432,"response":{"pregunta8 likert":2},"question_order":[0],"trial_type":"survey-likert","trial_index":8,"time_elapsed":247746,"internal_node_id":"0.0-5.0-3.0"},{"rt":3606.8799999993644,"responses":"{\"pregunta12\":\"b) se da como existente, y sólo se discute su relación con el cuerpo. \"}","question_order":"[0]","trial_type":"survey-multi-choice","trial_index":9,"time_elapsed":251355,"internal_node_id":"0.0-5.0-4.0"},{"rt":1346.840000000142,"response":{"pregunta12 likert":1},"question_order":[0],"trial_type":"survey-likert","trial_index":10,"time_elapsed":252704,"internal_node_id":"0.0-5.0-5.0"},{"rt":2347.0399999987276,"responses":"{\"pregunta4\":\"a) Las personas importantes comparten el gusto por la literatura. \"}","question_order":"[0]","trial_type":"survey-multi-choice","trial_index":11,"time_elapsed":255054,"internal_node_id":"0.0-5.0-6.0"},{"rt":1612.714999999298,"response":{"pregunta4 likert":1},"question_order":[0],"trial_type":"survey-likert","trial_index":12,"time_elapsed":256669,"internal_node_id":"0.0-5.0-7.0"},{"rt":2654.819999999745,"responses":"{\"pregunta14\":\"c) un recuerdo nostálgico. \"}","question_order":"[0]","trial_type":"survey-multi-choice","trial_index":13,"time_elapsed":259326,"internal_node_id":"0.0-5.0-8.0"},{"rt":2323.179999999411,"response":{"pregunta14 likert":1},"question_order":[0],"trial_type":"survey-likert","trial_index":14,"time_elapsed":261651,"internal_node_id":"0.0-5.0-9.0"},{"rt":2321.889999999199,"responses":"{\"pregunta11\":\"a) Promover la asistencia a un evento específico de decoración a través de una atractiva descripción. \"}","question_order":"[0]","trial_type":"survey-multi-choice","trial_index":15,"time_elapsed":263975,"internal_node_id":"0.0-5.0-10.0"},{"rt":2873.679999998829,"response":{"pregunta11 likert":2},"question_order":[0],"trial_type":"survey-likert","trial_index":16,"time_elapsed":266850,"internal_node_id":"0.0-5.0-11.0"},{"rt":15601.26000000129,"responses":"{\"pregunta2\":\"b) A la relación entre sociedad y constitución social. \"}","question_order":"[0]","trial_type":"survey-multi-choice","trial_index":17,"time_elapsed":282453,"internal_node_id":"0.0-5.0-12.0"},{"rt":1661.4900000003981,"response":{"pregunta2 likert":2},"question_order":[0],"trial_type":"survey-likert","trial_index":18,"time_elapsed":284117,"internal_node_id":"0.0-5.0-13.0"},{"rt":2121.4349999991246,"responses":"{\"pregunta18\":\"b) A la inutilidad de tanto esfuerzo si el objetivo es el reposo. \"}","question_order":"[0]","trial_type":"survey-multi-choice","trial_index":19,"time_elapsed":286241,"internal_node_id":"0.0-5.0-14.0"},{"rt":1273.5899999988615,"response":{"pregunta18 likert":1},"question_order":[0],"trial_type":"survey-likert","trial_index":20,"time_elapsed":287516,"internal_node_id":"0.0-5.0-15.0"},{"rt":1854.9800000000396,"responses":"{\"pregunta13\":\"b) Lo que es normal en un asilo es anormal en un campo de concentración. \"}","question_order":"[0]","trial_type":"survey-multi-choice","trial_index":21,"time_elapsed":289375,"internal_node_id":"0.0-5.0-16.0"},{"rt":2135.7649999990826,"response":{"pregunta13 likert":1},"question_order":[0],"trial_type":"survey-likert","trial_index":22,"time_elapsed":291514,"internal_node_id":"0.0-5.0-17.0"},{"rt":1652.7400000013877,"responses":"{\"pregunta24\":\"c) La publicidad es dañina para sus receptores. \"}","question_order":"[0]","trial_type":"survey-multi-choice","trial_index":23,"time_elapsed":293169,"internal_node_id":"0.0-5.0-18.0"},{"rt":1184.7799999995623,"response":{"pregunta24 likert":1},"question_order":[0],"trial_type":"survey-likert","trial_index":24,"time_elapsed":294356,"internal_node_id":"0.0-5.0-19.0"},{"rt":2645.6500000003725,"responses":"{\"pregunta7\":\"b) La imprenta y el papel han permitido el desarrollo de la civilización y la conservación de su cultura, y ambos son inventos chinos. \"}","question_order":"[0]","trial_type":"survey-multi-choice","trial_index":25,"time_elapsed":297004,"internal_node_id":"0.0-5.0-20.0"},{"rt":2234.875000000058,"response":{"pregunta7 likert":1},"question_order":[0],"trial_type":"survey-likert","trial_index":26,"time_elapsed":299241,"internal_node_id":"0.0-5.0-21.0"},{"rt":1854.6200000000536,"responses":"{\"pregunta27\":\"b) Será difícil que las empresas nacionales compitan con las estadounidenses. \"}","question_order":"[0]","trial_type":"survey-multi-choice","trial_index":27,"time_elapsed":301098,"internal_node_id":"0.0-5.0-22.0"},{"rt":1831.179999999178,"response":{"pregunta27 likert":2},"question_order":[0],"trial_type":"survey-likert","trial_index":28,"time_elapsed":302932,"internal_node_id":"0.0-5.0-23.0"},{"rt":2541.255000000121,"responses":"{\"pregunta16\":\"a) Deleitar a sus receptores por medio de la belleza y el confort. \"}","question_order":"[0]","trial_type":"survey-multi-choice","trial_index":29,"time_elapsed":305475,"internal_node_id":"0.0-5.0-24.0"},{"rt":1509.2100000001374,"response":{"pregunta16 likert":2},"question_order":[0],"trial_type":"survey-likert","trial_index":30,"time_elapsed":306987,"internal_node_id":"0.0-5.0-25.0"},{"rt":1966.764999999199,"responses":"{\"pregunta19\":\"c) Las personas que leen son más flexibles en sus ideas y autónomas en su accionar. \"}","question_order":"[0]","trial_type":"survey-multi-choice","trial_index":31,"time_elapsed":308956,"internal_node_id":"0.0-5.0-26.0"},{"rt":1047.7799999989802,"response":{"pregunta19 likert":1},"question_order":[0],"trial_type":"survey-likert","trial_index":32,"time_elapsed":310006,"internal_node_id":"0.0-5.0-27.0"},{"rt":1603.9199999995762,"responses":"{\"pregunta9\":\"b) pueden ejercer profesiones científicas de la misma forma en que lo hacen los hombres. \"}","question_order":"[0]","trial_type":"survey-multi-choice","trial_index":33,"time_elapsed":311612,"internal_node_id":"0.0-5.0-28.0"},{"rt":1492.529999999504,"response":{"pregunta9 likert":2},"question_order":[0],"trial_type":"survey-likert","trial_index":34,"time_elapsed":313106,"internal_node_id":"0.0-5.0-29.0"},{"rt":1499.0699999998324,"responses":"{\"pregunta5\":\"a) En los viajes es esencial el momento mismo de la escritura. \"}","question_order":"[0]","trial_type":"survey-multi-choice","trial_index":35,"time_elapsed":314608,"internal_node_id":"0.0-5.0-30.0"},{"rt":1451.7699999996694,"response":{"pregunta5 likert":2},"question_order":[0],"trial_type":"survey-likert","trial_index":36,"time_elapsed":316062,"internal_node_id":"0.0-5.0-31.0"},{"rt":1515.3600000012666,"responses":"{\"pregunta29\":\"a) el jardinero era un hombre viejo. \"}","question_order":"[0]","trial_type":"survey-multi-choice","trial_index":37,"time_elapsed":317579,"internal_node_id":"0.0-5.0-32.0"},{"rt":1168.8450000001467,"response":{"pregunta29 likert":1},"question_order":[0],"trial_type":"survey-likert","trial_index":38,"time_elapsed":318750,"internal_node_id":"0.0-5.0-33.0"},{"rt":1548.0999999999767,"responses":"{\"pregunta15\":\"c) hedonistas y soñadores. \"}","question_order":"[0]","trial_type":"survey-multi-choice","trial_index":39,"time_elapsed":320301,"internal_node_id":"0.0-5.0-34.0"},{"rt":2178.4200000002165,"response":{"pregunta15 likert":1},"question_order":[0],"trial_type":"survey-likert","trial_index":40,"time_elapsed":322481,"internal_node_id":"0.0-5.0-35.0"},{"rt":1249.4449999994831,"responses":"{\"pregunta21\":\"a) el uranio es el elemento natural con el mayor número de protones en el núcleo. \"}","question_order":"[0]","trial_type":"survey-multi-choice","trial_index":41,"time_elapsed":323733,"internal_node_id":"0.0-5.0-36.0"},{"rt":1475.840000000957,"response":{"pregunta21 likert":2},"question_order":[0],"trial_type":"survey-likert","trial_index":42,"time_elapsed":325211,"internal_node_id":"0.0-5.0-37.0"},{"rt":2290.704999999434,"responses":"{\"pregunta25\":\"a) llevan un control grupal de su embarazo. \"}","question_order":"[0]","trial_type":"survey-multi-choice","trial_index":43,"time_elapsed":327504,"internal_node_id":"0.0-5.0-38.0"},{"rt":1702.1400000012363,"response":{"pregunta25 likert":1},"question_order":[0],"trial_type":"survey-likert","trial_index":44,"time_elapsed":329208,"internal_node_id":"0.0-5.0-39.0"},{"rt":1547.6850000013364,"responses":"{\"pregunta1\":\"b) Aportan informaciones con las que se reconstruye el personaje dentro de un relato. \"}","question_order":"[0]","trial_type":"survey-multi-choice","trial_index":45,"time_elapsed":330758,"internal_node_id":"0.0-5.0-40.0"},{"rt":1096.4299999995856,"response":{"pregunta1 likert":2},"question_order":[0],"trial_type":"survey-likert","trial_index":46,"time_elapsed":331856,"internal_node_id":"0.0-5.0-41.0"},{"rt":1370.830000001646,"responses":"{\"pregunta20\":\"a) la muerte de Wu Ti fue una bendición. \"}","question_order":"[0]","trial_type":"survey-multi-choice","trial_index":47,"time_elapsed":333229,"internal_node_id":"0.0-5.0-42.0"},{"rt":1064.1450000002515,"response":{"pregunta20 likert":2},"question_order":[0],"trial_type":"survey-likert","trial_index":48,"time_elapsed":334295,"internal_node_id":"0.0-5.0-43.0"},{"rt":1967.4049999994459,"responses":"{\"pregunta3\":\"c) El origen de las grandes civilizaciones. \"}","question_order":"[0]","trial_type":"survey-multi-choice","trial_index":49,"time_elapsed":336265,"internal_node_id":"0.0-5.0-44.0"},{"rt":1015.4449999991339,"response":{"pregunta3 likert":1},"question_order":[0],"trial_type":"survey-likert","trial_index":50,"time_elapsed":337282,"internal_node_id":"0.0-5.0-45.0"},{"rt":1895.2499999995343,"responses":"{\"pregunta23\":\"a) A la inexistencia de un recinto adecuado para el recital. \"}","question_order":"[0]","trial_type":"survey-multi-choice","trial_index":51,"time_elapsed":339180,"internal_node_id":"0.0-5.0-46.0"},{"rt":1588.955000001064,"response":{"pregunta23 likert":2},"question_order":[0],"trial_type":"survey-likert","trial_index":52,"time_elapsed":340771,"internal_node_id":"0.0-5.0-47.0"},{"rt":1467.5250000000233,"responses":"{\"pregunta10\":\"b) La biónica puede asegurar nuestra existencia mediante la aplicación de técnicas copiadas de la naturaleza. \"}","question_order":"[0]","trial_type":"survey-multi-choice","trial_index":53,"time_elapsed":342240,"internal_node_id":"0.0-5.0-48.0"},{"rt":1556.2750000008382,"response":{"pregunta10 likert":1},"question_order":[0],"trial_type":"survey-likert","trial_index":54,"time_elapsed":343799,"internal_node_id":"0.0-5.0-49.0"},{"rt":2056.875000000233,"responses":"{\"pregunta28\":\"a) La prensa tiene derecho a meter sus narices en todos lados. \"}","question_order":"[0]","trial_type":"survey-multi-choice","trial_index":55,"time_elapsed":345858,"internal_node_id":"0.0-5.0-50.0"},{"rt":1901.5400000007357,"response":{"pregunta28 likert":2},"question_order":[0],"trial_type":"survey-likert","trial_index":56,"time_elapsed":347761,"internal_node_id":"0.0-5.0-51.0"},{"rt":1541.2149999993271,"responses":"{\"pregunta26\":\"c) el sujeto sufre con su modo de vida. \"}","question_order":"[0]","trial_type":"survey-multi-choice","trial_index":57,"time_elapsed":349304,"internal_node_id":"0.0-5.0-52.0"},{"rt":1647.4600000000792,"response":{"pregunta26 likert":1},"question_order":[0],"trial_type":"survey-likert","trial_index":58,"time_elapsed":350953,"internal_node_id":"0.0-5.0-53.0"},{"rt":1451.3849999984377,"responses":"{\"pregunta22\":\"a) Por el riesgo que corren diariamente, los bomberos deberían tener mejores condiciones de seguridad. \"}","question_order":"[0]","trial_type":"survey-multi-choice","trial_index":59,"time_elapsed":352406,"internal_node_id":"0.0-5.0-54.0"},{"rt":2226.744999999937,"response":{"pregunta22 likert":2},"question_order":[0],"trial_type":"survey-likert","trial_index":60,"time_elapsed":354635,"internal_node_id":"0.0-5.0-55.0"},{"rt":1547.8700000002864,"responses":"{\"pregunta17\":\"b) Homenajear a quienes murieron. \"}","question_order":"[0]","trial_type":"survey-multi-choice","trial_index":61,"time_elapsed":356185,"internal_node_id":"0.0-5.0-56.0"},{"rt":1597.2599999986123,"response":{"pregunta17 likert":1},"question_order":[0],"trial_type":"survey-likert","trial_index":62,"time_elapsed":357785,"internal_node_id":"0.0-5.0-57.0"},{"rt":2573.739999999816,"responses":"{\"pregunta30\":\"a) para el mexicano, la muerte es cotidiana. \"}","question_order":"[0]","trial_type":"survey-multi-choice","trial_index":63,"time_elapsed":360361,"internal_node_id":"0.0-5.0-58.0"},{"rt":1047.709999998915,"response":{"pregunta30 likert":2},"question_order":[0],"trial_type":"survey-likert","trial_index":64,"time_elapsed":361410,"internal_node_id":"0.0-5.0-59.0"},{"rt":2859.150000000198,"stimulus":"<p style=\"font-size: 120%\">Gracias por completar esta etapa del estudio. Ahora te invitamos a responder el cuestionario.<br><br></p>","response":0,"trial_type":"html-button-response","trial_index":65,"time_elapsed":364277,"internal_node_id":"0.0-6.0"},{"rt":2558.220000000787,"stimulus":"<h1 style=\"margin-top: 5%\">Cuestionario para la Evaluación de Metas Académicas</h1><p style=\"font-size: 120%; margin-left: 3%; margin-top: 5%\">Este es un cuestionario que permite conocer cuáles son los principales motivos por los que los estudiantes se esfuerzan en su trabajo académico. A continuación, se te presentarán una serie de afirmaciones acerca de los motivos que puedes tener para estudiar.<br>Te pedimos que contestes a dichas afirmaciones reflexionando sobre el contenido de cada una de ellas, que, aunque te parezcan semejantes, en realidad, no lo son.<br>NO HAY RESPUESTAS CORRECTAS o INCORRECTAS, sólo queremos que respondas con la mayor precisión y sinceridad posible a las preguntas que se plantean.","response":0,"trial_type":"html-button-response","trial_index":66,"time_elapsed":366837,"internal_node_id":"0.0-7.0"},{"rt":57184.21500000113,"response":{"Metas cuestionario pregunta1":2,"Metas cuestionario pregunta2":2,"Metas cuestionario pregunta3":2,"Metas cuestionario pregunta4":2,"Metas cuestionario pregunta5":2,"Metas cuestionario pregunta6":2,"Metas cuestionario pregunta7":2,"Metas cuestionario pregunta8":3,"Metas cuestionario pregunta9":1,"Metas cuestionario pregunta10":1,"Metas cuestionario pregunta11":0,"Metas cuestionario pregunta12":0,"Metas cuestionario pregunta13":0,"Metas cuestionario pregunta14":2,"Metas cuestionario pregunta15":4,"Metas cuestionario pregunta16":4,"Metas cuestionario pregunta17":4,"Metas cuestionario pregunta18":4,"Metas cuestionario pregunta19":4,"Metas cuestionario pregunta20":4},"question_order":[0,1,2,3,4,5,6,7,8,9,10,11,12,13,14,15,16,17,18,19],"trial_type":"survey-likert","trial_index":67,"time_elapsed":424031,"internal_node_id":"0.0-8.0"},{"rt":1360.6799999997602,"stimulus":"<p style=\"font-size: 120%\">Gracias por responder el cuestionario. Ahora te invitamos a seguir con el juego, que es muy breve.<br><br></p>","response":0,"trial_type":"html-button-response","trial_index":68,"time_elapsed":425396,"internal_node_id":"0.0-9.0"},{"rt":8048.389999999956,"stimulus":"<h1>Juego</h1><p style=\"font-size: 120%;\">A continuación se te presentarán 16 pequeñas historias.<br>Por favor lee el texto presentado en cada una de ellas y luego haz click en el objeto de tu elección.<br>Si estás listo(a),<span style=\"color:red;\"> haz click en \"comenzar\"</span>.</p>","response":0,"trial_type":"html-button-response","trial_index":69,"time_elapsed":433445,"internal_node_id":"0.0-10.0"},{"rt":11579.795000001497,"grid":[[1,1,1],[1,1,1],[1,1,1]],"target":[0,0],"response":[0,0],"correct":true,"juego":10,"trial_type":"serial-reaction-time-mouse","trial_index":70,"time_elapsed":445028,"internal_node_id":"0.0-11.0-0.0"},{"rt":6725.8449999989825,"grid":[[1,1,1]],"target":[0,2],"response":[0,2],"correct":true,"juego":7,"trial_type":"serial-reaction-time-mouse","trial_index":71,"time_elapsed":451755,"internal_node_id":"0.0-11.0-1.0"},{"rt":7507.255000000412,"grid":[[1],[1],[1],[1],[1],[1]],"target":[0,0],"response":[2,0],"correct":false,"juego":5,"trial_type":"serial-reaction-time-mouse","trial_index":72,"time_elapsed":459256,"internal_node_id":"0.0-11.0-2.0"},{"rt":3421.229999999923,"grid":[[1,1,1]],"target":[0,2],"response":[0,1],"correct":false,"juego":1,"trial_type":"serial-reaction-time-mouse","trial_index":73,"time_elapsed":462674,"internal_node_id":"0.0-11.0-3.0"},{"rt":9161.27499999851,"grid":[[1,1,1]],"target":[0,2],"response":[0,1],"correct":false,"juego":8,"trial_type":"serial-reaction-time-mouse","trial_index":74,"time_elapsed":471827,"internal_node_id":"0.0-11.0-4.0"},{"rt":5861.464999999967,"grid":[[1,1,1]],"target":[0,2],"response":[0,1],"correct":false,"juego":2,"trial_type":"serial-reaction-time-mouse","trial_index":75,"time_elapsed":477687,"internal_node_id":"0.0-11.0-5.0"},{"rt":5787.314999999595,"grid":[[1,1],[1,1],[1,1],[1,1],[1,1],[1,1],[1,1]],"target":[0,0],"response":[5,1],"correct":false,"juego":14,"trial_type":"serial-reaction-time-mouse","trial_index":76,"time_elapsed":483474,"internal_node_id":"0.0-11.0-6.0"},{"rt":4286.129999998608,"grid":[[1,1,1]],"target":[0,0],"response":[0,1],"correct":false,"juego":9,"trial_type":"serial-reaction-time-mouse","trial_index":77,"time_elapsed":487760,"internal_node_id":"0.0-11.0-7.0"},{"rt":2007.4050000002608,"grid":[[1,1,1],[1,1,1],[1,1,1],[1,1,1],[1,1,1],[1,1,1],[1,1,1]],"target":[0,0],"response":[1,1],"correct":false,"juego":6,"trial_type":"serial-reaction-time-mouse","trial_index":78,"time_elapsed":489770,"internal_node_id":"0.0-11.0-8.0"},{"rt":4383.724999999686,"grid":[[1,1,1]],"target":[0,2],"response":[0,0],"correct":false,"juego":3,"trial_type":"serial-reaction-time-mouse","trial_index":79,"time_elapsed":494154,"internal_node_id":"0.0-11.0-9.0"},{"rt":7892.595000001194,"grid":[[1,1,1]],"target":[0,0],"response":[0,2],"correct":false,"juego":12,"trial_type":"serial-reaction-time-mouse","trial_index":80,"time_elapsed":502048,"internal_node_id":"0.0-11.0-10.0"},{"rt":6575.855000000913,"grid":[[1,1],[1,1],[1,1],[1,1],[1,1],[1,1],[1,1]],"target":[0,0],"response":[1,1],"correct":false,"juego":15,"trial_type":"serial-reaction-time-mouse","trial_index":81,"time_elapsed":508625,"internal_node_id":"0.0-11.0-11.0"},{"rt":5019.46000000136,"grid":[[1,1,1],[1,1,1],[1,1,1],[1,1,1],[1,1,1],[1,1,1],[1,1,1]],"target":[0,0],"response":[5,1],"correct":false,"juego":13,"trial_type":"serial-reaction-time-mouse","trial_index":82,"time_elapsed":513647,"internal_node_id":"0.0-11.0-12.0"},{"rt":1581.464999999269,"grid":[[1],[1],[1]],"target":[0,2],"response":[0,0],"correct":false,"juego":4,"trial_type":"serial-reaction-time-mouse","trial_index":83,"time_elapsed":515230,"internal_node_id":"0.0-11.0-13.0"},{"rt":6338.169999999111,"grid":[[1,1,1]],"target":[0,0],"response":[0,2],"correct":false,"juego":11,"trial_type":"serial-reaction-time-mouse","trial_index":84,"time_elapsed":521569,"internal_node_id":"0.0-11.0-14.0"},{"rt":1455.8649999999325,"stimulus":"<h1>Último juego</h1><p style=\"font-size: 130%;\">Tienes <span style=\"color:red\">20</span> segundos para recordar los pares de palabras que aparecerán a continuación. <br></p>","response":0,"trial_type":"html-button-response","trial_index":85,"time_elapsed":523029,"internal_node_id":"0.0-12.0"},{"animation_sequence":[{"stimulus":"imagen_juego_interferencia.jpg","time":517.7149999999092},{"stimulus":"imagen_juego_interferencia.jpg","time":1003.9749999996857},{"stimulus":"imagen_juego_interferencia.jpg","time":1505.3449999995646},{"stimulus":"imagen_juego_interferencia.jpg","time":2001.725000000035},{"stimulus":"imagen_juego_interferencia.jpg","time":2502.0650000005844},{"stimulus":"imagen_juego_interferencia.jpg","time":3003.4749999995693},{"stimulus":"imagen_juego_interferencia.jpg","time":3502.075000000361},{"stimulus":"imagen_juego_interferencia.jpg","time":4001.365000000049},{"stimulus":"imagen_juego_interferencia.jpg","time":4502.609999999579},{"stimulus":"imagen_juego_interferencia.jpg","time":5001.6200000008685},{"stimulus":"imagen_juego_interferencia.jpg","time":5501.454999999667},{"stimulus":"imagen_juego_interferencia.jpg","time":6001.185000001045},{"stimulus":"imagen_juego_interferencia.jpg","time":6502.575000000477},{"stimulus":"imagen_juego_interferencia.jpg","time":7002.080000000249},{"stimulus":"imagen_juego_interferencia.jpg","time":7505.245000000286},{"stimulus":"imagen_juego_interferencia.jpg","time":8002.094999999797},{"stimulus":"imagen_juego_interferencia.jpg","time":8502.16999999975},{"stimulus":"imagen_juego_interferencia.jpg","time":9003.64000000077},{"stimulus":"imagen_juego_interferencia.jpg","time":9505.075000000943},{"stimulus":"imagen_juego_interferencia.jpg","time":10001.314999999537},{"stimulus":"imagen_juego_interferencia.jpg","time":10502.244999999704},{"stimulus":"imagen_juego_interferencia.jpg","time":11001.594999999681},{"stimulus":"imagen_juego_interferencia.jpg","time":11502.300000000105},{"stimulus":"imagen_juego_interferencia.jpg","time":12002.280000000552},{"stimulus":"imagen_juego_interferencia.jpg","time":12502.580000000366},{"stimulus":"imagen_juego_interferencia.jpg","time":13003.93500000058},{"stimulus":"imagen_juego_interferencia.jpg","time":13502.104999999574},{"stimulus":"imagen_juego_interferencia.jpg","time":14003.81999999989},{"stimulus":"imagen_juego_interferencia.jpg","time":14504.320000000007},{"stimulus":"imagen_juego_interferencia.jpg","time":15003.790000000678},{"stimulus":"imagen_juego_interferencia.jpg","time":15502.515000000189},{"stimulus":"imagen_juego_interferencia.jpg","time":16001.3500000005},{"stimulus":"imagen_juego_interferencia.jpg","time":16502.80500000011},{"stimulus":"imagen_juego_interferencia.jpg","time":17002.834999999322},{"stimulus":"imagen_juego_interferencia.jpg","time":17505.2950000008},{"stimulus":"imagen_juego_interferencia.jpg","time":18001.36500000005},{"stimulus":"imagen_juego_interferencia.jpg","time":18502.585000000137},{"stimulus":"imagen_juego_interferencia.jpg","time":19003.96499999991},{"stimulus":"imagen_juego_interferencia.jpg","time":19505.255000000063},{"stimulus":"imagen_juego_interferencia.jpg","time":20001.604999999458}],"response":[],"trial_type":"animation","trial_index":86,"time_elapsed":543534,"internal_node_id":"0.0-13.0"},{"rt":4987.359999999171,"responses":"{\"pregunta interferencia3\":\"plata\"}","question_order":"[0]","trial_type":"survey-multi-choice-cuest","trial_index":87,"time_elapsed":548523,"internal_node_id":"0.0-14.0-0.0"},{"rt":7474.710000000312,"responses":"{\"pregunta interferencia4\":\"contador\"}","question_order":"[0]","trial_type":"survey-multi-choice-cuest","trial_index":88,"time_elapsed":556000,"internal_node_id":"0.0-14.0-1.0"},{"rt":2792.2199999992736,"responses":"{\"pregunta interferencia1\":\"naranja\"}","question_order":"[0]","trial_type":"survey-multi-choice-cuest","trial_index":89,"time_elapsed":558794,"internal_node_id":"0.0-14.0-2.0"},{"rt":3938.9200000005076,"responses":"{\"pregunta interferencia2\":\"cucaracha\"}","question_order":"[0]","trial_type":"survey-multi-choice-cuest","trial_index":90,"time_elapsed":562735,"internal_node_id":"0.0-14.0-3.0"},{"success":true,"trial_type":"fullscreen","trial_index":91,"time_elapsed":563739,"internal_node_id":"0.0-15.0"}]