[{"rt":5950.170000010985,"stimulus":"<h1 style=\"color:red; margin-top: 3%;\">¡Bienvenido(a)!</h1><p style=\"text-align:left; justify-content:space-between; margin-right: 5%; margin-left: 5%; margin-top: 5%\"> Antes de empezar el estudio, necesitamos que nos confirmes que estás de acuerdo con participar. Recuerda que tu participación es 100% voluntaria y que lo único que te pedimos es responder lo mejor que puedas. Recuerda también que el estudio incluye:</p><ol style=\"text-align:left; justify-content:space-between; margin-right: 5%; margin-left: 5%;\"><li> un ejercicio de resolución de preguntas de selección múltiple (30’),</li><li>un cuestionario breve (5’),</li><li>un juego muy breve (3’),</li></ol><p style=\"text-align:left; justify-content:space-between; margin-right: 5%; margin-left: 5%;\">Si quieres participar, haz clic en “Acepto” luego de leer lo siguiente:<br></p><p style=\"text-align:left; justify-content:space-between; margin-right: 5%; margin-left: 5%;\">Acepto participar en el estudio “Estrategias de lectura y resolución de preguntas de selección múltiple”, en los términos aquí señalados:<br></p><p style=\"text-align:left; justify-content:space-between; margin-right: 5%; margin-left: 5%;\"><a href=\"http://ciae.uchile.cl/download.php?file=noticias/Asentimiento.pdf\" target=\"_blank\">Link a la hoja de información del Consentimiento.</a></p><p style=\"text-align:left; justify-content:space-between; margin-right: 5%; margin-left: 5%;\">Declaro que he leído (o se me ha leído) y (he) comprendido, las condiciones de mi participación en este estudio. He tenido la oportunidad de hacer preguntas y éstas han sido respondidas. No tengo dudas al respecto.</p>","response":0,"condicion_MCQ":6,"condicion_INTER":18,"numero_participante":18,"numero_version":5,"dimx":1366,"dimy":768,"color_profundidad":24,"pixel_profundidad":24,"Browser":"Google Chrome","trial_type":"html-button-response","trial_index":0,"time_elapsed":5951,"internal_node_id":"0.0-0.0"},{"success":true,"trial_type":"fullscreen","trial_index":1,"time_elapsed":8272,"internal_node_id":"0.0-1.0"},{"rt":114023.91499999794,"responses":"{\"Nombres\":\"victoria (vito)\",\"Apellidos\":\"meersohn espoz\",\"Edad\":\"19\",\"Sexo\":\"si\",\"Curso\":\"primer año\",\"Colegio\":\"unab\",\"Contacto\":\"victoriameersohn@gmail.com\"}","trial_type":"survey-text","trial_index":2,"time_elapsed":122301,"internal_node_id":"0.0-2.0"},{"success":true,"timeout":false,"failed_images":[],"failed_audio":[],"failed_video":[],"trial_type":"preload","trial_index":3,"time_elapsed":127943,"internal_node_id":"0.0-3.0"},{"rt":12799.345000006724,"stimulus":"<h1 style:\"margin-top: 5%;\">Ejercicios de Comprensión de Lectura de la Universidad de Chile</h1><p style=\"font-size: 120%;\">En esta actividad, debes responder 30 preguntas de selección múltiple. Cada pregunta presenta 3 respuestas alternativas, pero sólo una de ellas es correcta. Por lo tanto, debes escoger una sola alternativa para cada pregunta. Además, debes reportar qué tan seguro(a) estás de la respuesta que das, con un:</p><ol style=\"font-size: 120%;text-align:left;margin-left: 40%;\"><li>No estoy seguro(a) para nada</li><li>No estoy muy seguro(a)</li><li>Estoy bastante seguro(a)</li><li>Estoy totalmente seguro(a)</li></ol><p style=\"font-size: 120%;\">Por favor lee bien los enunciados antes de responder. ¡Éxito!</p>","response":0,"trial_type":"html-button-response","trial_index":4,"time_elapsed":140743,"internal_node_id":"0.0-4.0"},{"rt":54962.79499999946,"responses":"{\"pregunta9\":\"c) pueden rendir exámenes para optar y obtener títulos profesionales igual que los hombres. \"}","question_order":"[0]","trial_type":"survey-multi-choice","trial_index":5,"time_elapsed":195707,"internal_node_id":"0.0-5.0-0.0"},{"rt":3922.4749999993946,"response":{"pregunta9 likert":2},"question_order":[0],"trial_type":"survey-likert","trial_index":6,"time_elapsed":199631,"internal_node_id":"0.0-5.0-1.0"},{"rt":234126.71000001137,"responses":"{\"pregunta17\":\"a) Homenajear a quienes murieron. \"}","question_order":"[0]","trial_type":"survey-multi-choice","trial_index":7,"time_elapsed":433759,"internal_node_id":"0.0-5.0-2.0"},{"rt":4234.3350000010105,"response":{"pregunta17 likert":2},"question_order":[0],"trial_type":"survey-likert","trial_index":8,"time_elapsed":437994,"internal_node_id":"0.0-5.0-3.0"},{"rt":42922.890000001644,"responses":"{\"pregunta1\":\"a) Aportan informaciones con las que se reconstruye el personaje dentro de un relato. \"}","question_order":"[0]","trial_type":"survey-multi-choice","trial_index":9,"time_elapsed":480919,"internal_node_id":"0.0-5.0-4.0"},{"rt":5191.590000002179,"response":{"pregunta1 likert":1},"question_order":[0],"trial_type":"survey-likert","trial_index":10,"time_elapsed":486111,"internal_node_id":"0.0-5.0-5.0"},{"rt":26602.805000002263,"responses":"{\"pregunta3\":\"a) El inicio de la civilización china. \"}","question_order":"[0]","trial_type":"survey-multi-choice","trial_index":11,"time_elapsed":512715,"internal_node_id":"0.0-5.0-6.0"},{"rt":2170.7150000002002,"response":{"pregunta3 likert":2},"question_order":[0],"trial_type":"survey-likert","trial_index":12,"time_elapsed":514887,"internal_node_id":"0.0-5.0-7.0"},{"rt":71442.88999999117,"responses":"{\"pregunta19\":\"a) El hábito de la lectura y el progreso mantienen una relación inversamente proporcional. \"}","question_order":"[0]","trial_type":"survey-multi-choice","trial_index":13,"time_elapsed":586330,"internal_node_id":"0.0-5.0-8.0"},{"rt":2691.2149999989197,"response":{"pregunta19 likert":2},"question_order":[0],"trial_type":"survey-likert","trial_index":14,"time_elapsed":589023,"internal_node_id":"0.0-5.0-9.0"},{"rt":47290.57000001194,"responses":"{\"pregunta4\":\"a) En la literatura como en la vida, todo es metáfora. \"}","question_order":"[0]","trial_type":"survey-multi-choice","trial_index":15,"time_elapsed":636314,"internal_node_id":"0.0-5.0-10.0"},{"rt":1439.490000004298,"response":{"pregunta4 likert":1},"question_order":[0],"trial_type":"survey-likert","trial_index":16,"time_elapsed":637755,"internal_node_id":"0.0-5.0-11.0"},{"rt":29590.674999999464,"responses":"{\"pregunta22\":\"a) Bomberos debería tener acceso a un seguro médico, al que pueda recurrir en caso de accidente. \"}","question_order":"[0]","trial_type":"survey-multi-choice","trial_index":17,"time_elapsed":667346,"internal_node_id":"0.0-5.0-12.0"},{"rt":2499.409999989439,"response":{"pregunta22 likert":2},"question_order":[0],"trial_type":"survey-likert","trial_index":18,"time_elapsed":669846,"internal_node_id":"0.0-5.0-13.0"},{"rt":27482.53000000841,"responses":"{\"pregunta21\":\"a) a partir de la manipulación del núcleo se han creado elementos químicos naturales. \"}","question_order":"[0]","trial_type":"survey-multi-choice","trial_index":19,"time_elapsed":697330,"internal_node_id":"0.0-5.0-14.0"},{"rt":4327.380000002449,"response":{"pregunta21 likert":2},"question_order":[0],"trial_type":"survey-likert","trial_index":20,"time_elapsed":701659,"internal_node_id":"0.0-5.0-15.0"},{"rt":47030.930000008084,"responses":"{\"pregunta20\":\"b) el mejor emperador es el que está muerto. \"}","question_order":"[0]","trial_type":"survey-multi-choice","trial_index":21,"time_elapsed":748691,"internal_node_id":"0.0-5.0-16.0"},{"rt":1778.6849999974947,"response":{"pregunta20 likert":2},"question_order":[0],"trial_type":"survey-likert","trial_index":22,"time_elapsed":750470,"internal_node_id":"0.0-5.0-17.0"},{"rt":26611.304999998538,"responses":"{\"pregunta30\":\"b) la muerte es distinta en las grandes ciudades. \"}","question_order":"[0]","trial_type":"survey-multi-choice","trial_index":23,"time_elapsed":777083,"internal_node_id":"0.0-5.0-18.0"},{"rt":1970.8350000000792,"response":{"pregunta30 likert":1},"question_order":[0],"trial_type":"survey-likert","trial_index":24,"time_elapsed":779054,"internal_node_id":"0.0-5.0-19.0"},{"rt":29371.2050000031,"responses":"{\"pregunta18\":\"a) A la inutilidad de tanto esfuerzo si el objetivo es el reposo. \"}","question_order":"[0]","trial_type":"survey-multi-choice","trial_index":25,"time_elapsed":808427,"internal_node_id":"0.0-5.0-20.0"},{"rt":4202.985000010813,"response":{"pregunta18 likert":1},"question_order":[0],"trial_type":"survey-likert","trial_index":26,"time_elapsed":812631,"internal_node_id":"0.0-5.0-21.0"},{"rt":29606.695000009495,"responses":"{\"pregunta8\":\"b) Dar a conocer al ganador del premio Cervantes. \"}","question_order":"[0]","trial_type":"survey-multi-choice","trial_index":27,"time_elapsed":842238,"internal_node_id":"0.0-5.0-22.0"},{"rt":2594.97000000556,"response":{"pregunta8 likert":2},"question_order":[0],"trial_type":"survey-likert","trial_index":28,"time_elapsed":844834,"internal_node_id":"0.0-5.0-23.0"},{"rt":37123.35000000894,"responses":"{\"pregunta28\":\"a) Se necesita un marco legal para delimitar lo público y lo privado en materia informativa. \"}","question_order":"[0]","trial_type":"survey-multi-choice","trial_index":29,"time_elapsed":881958,"internal_node_id":"0.0-5.0-24.0"},{"rt":1943.1449999974575,"response":{"pregunta28 likert":2},"question_order":[0],"trial_type":"survey-likert","trial_index":30,"time_elapsed":883903,"internal_node_id":"0.0-5.0-25.0"},{"rt":404761.5899999945,"responses":"{\"pregunta15\":\"c) ritualistas y obsesivos. \"}","question_order":"[0]","trial_type":"survey-multi-choice","trial_index":31,"time_elapsed":1287622,"internal_node_id":"0.0-5.0-26.0"},{"rt":2243.230000007432,"response":{"pregunta15 likert":2},"question_order":[0],"trial_type":"survey-likert","trial_index":32,"time_elapsed":1289867,"internal_node_id":"0.0-5.0-27.0"},{"rt":51046.43499999656,"responses":"{\"pregunta12\":\"a) se da como existente, y sólo se discute su relación con el cuerpo. \"}","question_order":"[0]","trial_type":"survey-multi-choice","trial_index":33,"time_elapsed":1340915,"internal_node_id":"0.0-5.0-28.0"},{"rt":1971.5849999920465,"response":{"pregunta12 likert":1},"question_order":[0],"trial_type":"survey-likert","trial_index":34,"time_elapsed":1342887,"internal_node_id":"0.0-5.0-29.0"},{"rt":30086.435000004712,"responses":"{\"pregunta11\":\"b) Orientar la opción estética de un grupo de personas en lo que se refiere a la decoración de interiores. \"}","question_order":"[0]","trial_type":"survey-multi-choice","trial_index":35,"time_elapsed":1372974,"internal_node_id":"0.0-5.0-30.0"},{"rt":1887.4449999858625,"response":{"pregunta11 likert":0},"question_order":[0],"trial_type":"survey-likert","trial_index":36,"time_elapsed":1374863,"internal_node_id":"0.0-5.0-31.0"},{"rt":63523.404999999795,"responses":"{\"pregunta2\":\"c) A la relación entre pensamiento y estructura social. \"}","question_order":"[0]","trial_type":"survey-multi-choice","trial_index":37,"time_elapsed":1438387,"internal_node_id":"0.0-5.0-32.0"},{"rt":2099.0699999965727,"response":{"pregunta2 likert":1},"question_order":[0],"trial_type":"survey-likert","trial_index":38,"time_elapsed":1440487,"internal_node_id":"0.0-5.0-33.0"},{"rt":148990.2749999892,"responses":"{\"pregunta27\":\"c) Nuestra economía vivirá un proceso de ajuste a la nueva realidad. \"}","question_order":"[0]","trial_type":"survey-multi-choice","trial_index":39,"time_elapsed":1589478,"internal_node_id":"0.0-5.0-34.0"},{"rt":2331.1550000072457,"response":{"pregunta27 likert":2},"question_order":[0],"trial_type":"survey-likert","trial_index":40,"time_elapsed":1591810,"internal_node_id":"0.0-5.0-35.0"},{"rt":95247.74999999511,"responses":"{\"pregunta6\":\"a) La aparición del Diccionario Académico ha sido polémica. \"}","question_order":"[0]","trial_type":"survey-multi-choice","trial_index":41,"time_elapsed":1687059,"internal_node_id":"0.0-5.0-36.0"},{"rt":2066.1450000044424,"response":{"pregunta6 likert":0},"question_order":[0],"trial_type":"survey-likert","trial_index":42,"time_elapsed":1689126,"internal_node_id":"0.0-5.0-37.0"},{"rt":117442.92999999016,"responses":"{\"pregunta5\":\"b) Los momentos triviales de los viajes, en la escritura se vuelven significativos. \"}","question_order":"[0]","trial_type":"survey-multi-choice","trial_index":43,"time_elapsed":1806570,"internal_node_id":"0.0-5.0-38.0"},{"rt":1263.0449999994598,"response":{"pregunta5 likert":1},"question_order":[0],"trial_type":"survey-likert","trial_index":44,"time_elapsed":1807835,"internal_node_id":"0.0-5.0-39.0"},{"rt":589510.1900000006,"responses":"{\"pregunta24\":\"b) La publicidad es dañina para sus receptores. \"}","question_order":"[0]","trial_type":"survey-multi-choice","trial_index":45,"time_elapsed":2397346,"internal_node_id":"0.0-5.0-40.0"},{"rt":3954.874999995809,"response":{"pregunta24 likert":1},"question_order":[0],"trial_type":"survey-likert","trial_index":46,"time_elapsed":2401302,"internal_node_id":"0.0-5.0-41.0"},{"rt":1369517.8100000047,"responses":"{\"pregunta16\":\"b) Provocar el deseo de la adquisición vertiginosa. \"}","question_order":"[0]","trial_type":"survey-multi-choice","trial_index":47,"time_elapsed":3770821,"internal_node_id":"0.0-5.0-42.0"},{"rt":1818.9400000115857,"response":{"pregunta16 likert":0},"question_order":[0],"trial_type":"survey-likert","trial_index":48,"time_elapsed":3772641,"internal_node_id":"0.0-5.0-43.0"},{"rt":19570.359999998007,"responses":"{\"pregunta26\":\"b) el sujeto sufre con su modo de vida. \"}","question_order":"[0]","trial_type":"survey-multi-choice","trial_index":49,"time_elapsed":3792212,"internal_node_id":"0.0-5.0-44.0"},{"rt":2851.555000001099,"response":{"pregunta26 likert":0},"question_order":[0],"trial_type":"survey-likert","trial_index":50,"time_elapsed":3795065,"internal_node_id":"0.0-5.0-45.0"},{"rt":41775.269999998156,"responses":"{\"pregunta14\":\"a) la persistencia de la melancolía y la desesperanza. \"}","question_order":"[0]","trial_type":"survey-multi-choice","trial_index":51,"time_elapsed":3836840,"internal_node_id":"0.0-5.0-46.0"},{"rt":1550.9799999999814,"response":{"pregunta14 likert":1},"question_order":[0],"trial_type":"survey-likert","trial_index":52,"time_elapsed":3838392,"internal_node_id":"0.0-5.0-47.0"},{"rt":27134.714999992866,"responses":"{\"pregunta23\":\"a) A la temática satánica de las canciones del grupo. \"}","question_order":"[0]","trial_type":"survey-multi-choice","trial_index":53,"time_elapsed":3865528,"internal_node_id":"0.0-5.0-48.0"},{"rt":4199.104999992531,"response":{"pregunta23 likert":2},"question_order":[0],"trial_type":"survey-likert","trial_index":54,"time_elapsed":3869728,"internal_node_id":"0.0-5.0-49.0"},{"rt":24574.980000005104,"responses":"{\"pregunta25\":\"c) llevan un control grupal de su embarazo. \"}","question_order":"[0]","trial_type":"survey-multi-choice","trial_index":55,"time_elapsed":3894305,"internal_node_id":"0.0-5.0-50.0"},{"rt":4098.855000004172,"response":{"pregunta25 likert":1},"question_order":[0],"trial_type":"survey-likert","trial_index":56,"time_elapsed":3898405,"internal_node_id":"0.0-5.0-51.0"},{"rt":580582.6050000032,"responses":"{\"pregunta13\":\"b) El ser humano se comporta de acuerdo con las circunstancias. \"}","question_order":"[0]","trial_type":"survey-multi-choice","trial_index":57,"time_elapsed":4478988,"internal_node_id":"0.0-5.0-52.0"},{"rt":1874.8400000045076,"response":{"pregunta13 likert":0},"question_order":[0],"trial_type":"survey-likert","trial_index":58,"time_elapsed":4480864,"internal_node_id":"0.0-5.0-53.0"},{"rt":49979.110000000335,"responses":"{\"pregunta29\":\"b) el jardinero estará muerto al día siguiente. \"}","question_order":"[0]","trial_type":"survey-multi-choice","trial_index":59,"time_elapsed":4530844,"internal_node_id":"0.0-5.0-54.0"},{"rt":2794.9000000087544,"response":{"pregunta29 likert":2},"question_order":[0],"trial_type":"survey-likert","trial_index":60,"time_elapsed":4533639,"internal_node_id":"0.0-5.0-55.0"},{"rt":210090.2849999983,"responses":"{\"pregunta10\":\"a) La biónica puede asegurar nuestra existencia mediante la aplicación de técnicas copiadas de la naturaleza. \"}","question_order":"[0]","trial_type":"survey-multi-choice","trial_index":61,"time_elapsed":4743731,"internal_node_id":"0.0-5.0-56.0"},{"rt":2371.139999988489,"response":{"pregunta10 likert":1},"question_order":[0],"trial_type":"survey-likert","trial_index":62,"time_elapsed":4746103,"internal_node_id":"0.0-5.0-57.0"},{"rt":15027.019999994896,"responses":"{\"pregunta7\":\"c) Si desaparecieran el papel y la imprenta, se produciría un gran retraso en nuestra civilización. \"}","question_order":"[0]","trial_type":"survey-multi-choice","trial_index":63,"time_elapsed":4761131,"internal_node_id":"0.0-5.0-58.0"},{"rt":2466.8500000117347,"response":{"pregunta7 likert":1},"question_order":[0],"trial_type":"survey-likert","trial_index":64,"time_elapsed":4763599,"internal_node_id":"0.0-5.0-59.0"},{"rt":2769.2950000055134,"stimulus":"<p style=\"font-size: 120%\">Gracias por completar esta etapa del estudio. Ahora te invitamos a responder el cuestionario.<br><br></p>","response":0,"trial_type":"html-button-response","trial_index":65,"time_elapsed":4766371,"internal_node_id":"0.0-6.0"},{"rt":11419.729999993928,"stimulus":"<h1 style=\"margin-top: 5%\">Cuestionario para la Evaluación de Metas Académicas</h1><p style=\"font-size: 120%; margin-left: 3%; margin-top: 5%\">Este es un cuestionario que permite conocer cuáles son los principales motivos por los que los estudiantes se esfuerzan en su trabajo académico. A continuación, se te presentarán una serie de afirmaciones acerca de los motivos que puedes tener para estudiar.<br>Te pedimos que contestes a dichas afirmaciones reflexionando sobre el contenido de cada una de ellas, que, aunque te parezcan semejantes, en realidad, no lo son.<br>NO HAY RESPUESTAS CORRECTAS o INCORRECTAS, sólo queremos que respondas con la mayor precisión y sinceridad posible a las preguntas que se plantean.","response":0,"trial_type":"html-button-response","trial_index":66,"time_elapsed":4777792,"internal_node_id":"0.0-7.0"},{"rt":91898.17499999516,"response":{"Metas cuestionario pregunta1":3,"Metas cuestionario pregunta2":1,"Metas cuestionario pregunta3":3,"Metas cuestionario pregunta4":0,"Metas cuestionario pregunta5":1,"Metas cuestionario pregunta6":3,"Metas cuestionario pregunta7":3,"Metas cuestionario pregunta8":3,"Metas cuestionario pregunta9":2,"Metas cuestionario pregunta10":2,"Metas cuestionario pregunta11":2,"Metas cuestionario pregunta12":2,"Metas cuestionario pregunta13":2,"Metas cuestionario pregunta14":1,"Metas cuestionario pregunta15":3,"Metas cuestionario pregunta16":3,"Metas cuestionario pregunta17":3,"Metas cuestionario pregunta18":3,"Metas cuestionario pregunta19":4,"Metas cuestionario pregunta20":2},"question_order":[0,1,2,3,4,5,6,7,8,9,10,11,12,13,14,15,16,17,18,19],"trial_type":"survey-likert","trial_index":67,"time_elapsed":4869694,"internal_node_id":"0.0-8.0"},{"rt":1951.4049999993294,"stimulus":"<p style=\"font-size: 120%\">Gracias por responder el cuestionario. Ahora te invitamos a seguir con el juego, que es muy breve.<br><br></p>","response":0,"trial_type":"html-button-response","trial_index":68,"time_elapsed":4871647,"internal_node_id":"0.0-9.0"},{"rt":6603.214999996126,"stimulus":"<h1>Juego</h1><p style=\"font-size: 120%;\">A continuación se te presentarán 16 pequeñas historias.<br>Por favor lee el texto presentado en cada una de ellas y luego haz click en el objeto de tu elección.<br>Si estás listo(a),<span style=\"color:red;\"> haz click en \"comenzar\"</span>.</p>","response":0,"trial_type":"html-button-response","trial_index":69,"time_elapsed":4878251,"internal_node_id":"0.0-10.0"},{"rt":11505.85000000149,"grid":[[1,1],[1,1],[1,1],[1,1],[1,1],[1,1],[1,1]],"target":[0,0],"response":[3,1],"correct":false,"juego":15,"trial_type":"serial-reaction-time-mouse","trial_index":70,"time_elapsed":4889758,"internal_node_id":"0.0-11.0-0.0"},{"rt":8387.18000000529,"grid":[[1,1,1],[1,1,1],[1,1,1],[1,1,1],[1,1,1],[1,1,1],[1,1,1]],"target":[0,0],"response":[1,1],"correct":false,"juego":6,"trial_type":"serial-reaction-time-mouse","trial_index":71,"time_elapsed":4898146,"internal_node_id":"0.0-11.0-1.0"},{"rt":7735.34499999322,"grid":[[1,1],[1,1],[1,1],[1,1],[1,1],[1,1],[1,1]],"target":[0,0],"response":[5,1],"correct":false,"juego":14,"trial_type":"serial-reaction-time-mouse","trial_index":72,"time_elapsed":4905882,"internal_node_id":"0.0-11.0-2.0"},{"rt":16476.225000005215,"grid":[[1,1,1]],"target":[0,2],"response":[0,1],"correct":false,"juego":3,"trial_type":"serial-reaction-time-mouse","trial_index":73,"time_elapsed":4922359,"internal_node_id":"0.0-11.0-3.0"},{"rt":9571.219999997877,"grid":[[1],[1],[1],[1],[1],[1]],"target":[0,0],"response":[0,0],"correct":true,"juego":5,"trial_type":"serial-reaction-time-mouse","trial_index":74,"time_elapsed":4931931,"internal_node_id":"0.0-11.0-4.0"},{"rt":6682.694999996573,"grid":[[1,1,1]],"target":[0,0],"response":[0,0],"correct":true,"juego":12,"trial_type":"serial-reaction-time-mouse","trial_index":75,"time_elapsed":4938614,"internal_node_id":"0.0-11.0-5.0"},{"rt":9283.060000001453,"grid":[[1,1,1],[1,1,1],[1,1,1],[1,1,1],[1,1,1],[1,1,1],[1,1,1]],"target":[0,0],"response":[5,1],"correct":false,"juego":13,"trial_type":"serial-reaction-time-mouse","trial_index":76,"time_elapsed":4947898,"internal_node_id":"0.0-11.0-6.0"},{"rt":5359.215000003576,"grid":[[1,1,1]],"target":[0,2],"response":[0,0],"correct":false,"juego":8,"trial_type":"serial-reaction-time-mouse","trial_index":77,"time_elapsed":4953258,"internal_node_id":"0.0-11.0-7.0"},{"rt":4924.599999998696,"grid":[[1,1,1]],"target":[0,2],"response":[0,0],"correct":false,"juego":1,"trial_type":"serial-reaction-time-mouse","trial_index":78,"time_elapsed":4958183,"internal_node_id":"0.0-11.0-8.0"},{"rt":3395.0550000015646,"grid":[[1],[1],[1]],"target":[0,2],"response":[1,0],"correct":false,"juego":4,"trial_type":"serial-reaction-time-mouse","trial_index":79,"time_elapsed":4961579,"internal_node_id":"0.0-11.0-9.0"},{"rt":2482.64500001166,"grid":[[1,1,1]],"target":[0,2],"response":[0,2],"correct":true,"juego":7,"trial_type":"serial-reaction-time-mouse","trial_index":80,"time_elapsed":4964062,"internal_node_id":"0.0-11.0-10.0"},{"rt":3807.215000008233,"grid":[[1,1,1]],"target":[0,2],"response":[0,0],"correct":false,"juego":2,"trial_type":"serial-reaction-time-mouse","trial_index":81,"time_elapsed":4967870,"internal_node_id":"0.0-11.0-11.0"},{"rt":6023.610000004061,"grid":[[1,1,1]],"target":[0,0],"response":[0,2],"correct":false,"juego":9,"trial_type":"serial-reaction-time-mouse","trial_index":82,"time_elapsed":4973894,"internal_node_id":"0.0-11.0-12.0"},{"rt":3700.110000004992,"grid":[[1,1,1]],"target":[0,0],"response":[0,0],"correct":true,"juego":11,"trial_type":"serial-reaction-time-mouse","trial_index":83,"time_elapsed":4977595,"internal_node_id":"0.0-11.0-13.0"},{"rt":6638.475000000559,"grid":[[1,1,1],[1,1,1],[1,1,1]],"target":[0,0],"response":[0,2],"correct":false,"juego":10,"trial_type":"serial-reaction-time-mouse","trial_index":84,"time_elapsed":4984234,"internal_node_id":"0.0-11.0-14.0"},{"rt":3451.255000007339,"stimulus":"<h1>Último juego</h1><p style=\"font-size: 130%;\">Tienes <span style=\"color:red\">20</span> segundos para recordar los pares de palabras que aparecerán a continuación. <br></p>","response":0,"trial_type":"html-button-response","trial_index":85,"time_elapsed":4987687,"internal_node_id":"0.0-12.0"},{"animation_sequence":[{"stimulus":"imagen_juego_interferencia.jpg","time":514.4549999963492},{"stimulus":"imagen_juego_interferencia.jpg","time":1001.0399999879301},{"stimulus":"imagen_juego_interferencia.jpg","time":1501.3999999938533},{"stimulus":"imagen_juego_interferencia.jpg","time":2000.929999994114},{"stimulus":"imagen_juego_interferencia.jpg","time":2500.874999997206},{"stimulus":"imagen_juego_interferencia.jpg","time":3001.5599999893457},{"stimulus":"imagen_juego_interferencia.jpg","time":3501.2399999974295},{"stimulus":"imagen_juego_interferencia.jpg","time":4001.4999999981374},{"stimulus":"imagen_juego_interferencia.jpg","time":4500.569999989122},{"stimulus":"imagen_juego_interferencia.jpg","time":5014.344999988563},{"stimulus":"imagen_juego_interferencia.jpg","time":5500.7949999999255},{"stimulus":"imagen_juego_interferencia.jpg","time":6000.719999996014},{"stimulus":"imagen_juego_interferencia.jpg","time":6500.910000002012},{"stimulus":"imagen_juego_interferencia.jpg","time":7000.6299999943},{"stimulus":"imagen_juego_interferencia.jpg","time":7501.380000001751},{"stimulus":"imagen_juego_interferencia.jpg","time":8004.214999993332},{"stimulus":"imagen_juego_interferencia.jpg","time":8501.359999994747},{"stimulus":"imagen_juego_interferencia.jpg","time":9006.840000001714},{"stimulus":"imagen_juego_interferencia.jpg","time":9503.079999994487},{"stimulus":"imagen_juego_interferencia.jpg","time":10013.934999994934},{"stimulus":"imagen_juego_interferencia.jpg","time":10509.284999992698},{"stimulus":"imagen_juego_interferencia.jpg","time":11009.239999999292},{"stimulus":"imagen_juego_interferencia.jpg","time":11509.039999989793},{"stimulus":"imagen_juego_interferencia.jpg","time":12007.604999991134},{"stimulus":"imagen_juego_interferencia.jpg","time":12501.124999995343},{"stimulus":"imagen_juego_interferencia.jpg","time":13001.559999989346},{"stimulus":"imagen_juego_interferencia.jpg","time":13513.464999996126},{"stimulus":"imagen_juego_interferencia.jpg","time":14013.76499999594},{"stimulus":"imagen_juego_interferencia.jpg","time":14512.219999989495},{"stimulus":"imagen_juego_interferencia.jpg","time":15002.229999997653},{"stimulus":"imagen_juego_interferencia.jpg","time":15508.40500000026},{"stimulus":"imagen_juego_interferencia.jpg","time":16008.065000001341},{"stimulus":"imagen_juego_interferencia.jpg","time":16501.879999996163},{"stimulus":"imagen_juego_interferencia.jpg","time":17003.279999990016},{"stimulus":"imagen_juego_interferencia.jpg","time":17501.159999999218},{"stimulus":"imagen_juego_interferencia.jpg","time":18002.789999998175},{"stimulus":"imagen_juego_interferencia.jpg","time":18504.48499999754},{"stimulus":"imagen_juego_interferencia.jpg","time":19001.624999989755},{"stimulus":"imagen_juego_interferencia.jpg","time":19503.744999994524},{"stimulus":"imagen_juego_interferencia.jpg","time":20001.424999994226}],"response":[],"trial_type":"animation","trial_index":86,"time_elapsed":5008189,"internal_node_id":"0.0-13.0"},{"rt":4988.464999987744,"responses":"{\"pregunta interferencia3\":\"aluminio\"}","question_order":"[0]","trial_type":"survey-multi-choice-cuest","trial_index":87,"time_elapsed":5013179,"internal_node_id":"0.0-14.0-0.0"},{"rt":4674.894999989308,"responses":"{\"pregunta interferencia4\":\"dentista\"}","question_order":"[0]","trial_type":"survey-multi-choice-cuest","trial_index":88,"time_elapsed":5017855,"internal_node_id":"0.0-14.0-1.0"},{"rt":2179.0650000032037,"responses":"{\"pregunta interferencia1\":\"naranja\"}","question_order":"[0]","trial_type":"survey-multi-choice-cuest","trial_index":89,"time_elapsed":5020035,"internal_node_id":"0.0-14.0-2.0"},{"rt":3154.9450000021607,"responses":"{\"pregunta interferencia2\":\"saltamontes\"}","question_order":"[0]","trial_type":"survey-multi-choice-cuest","trial_index":90,"time_elapsed":5023191,"internal_node_id":"0.0-14.0-3.0"},{"success":true,"trial_type":"fullscreen","trial_index":91,"time_elapsed":5024199,"internal_node_id":"0.0-15.0"},{"rt":26763.070000000298,"responses":"{\"Telefono\":\"\"}","trial_type":"survey-text","trial_index":92,"time_elapsed":5050968,"internal_node_id":"0.0-16.0"}]