[{"rt":8280.475000035949,"stimulus":"<h1 style=\"color:red; margin-top: 3%;\">¡Bienvenido(a)!</h1><p style=\"text-align:left; justify-content:space-between; margin-right: 5%; margin-left: 5%; margin-top: 5%\"> Antes de empezar el estudio, necesitamos que nos confirmes que estás de acuerdo con participar. Recuerda que tu participación es 100% voluntaria y que lo único que te pedimos es responder lo mejor que puedas. Recuerda también que el estudio incluye:</p><ol style=\"text-align:left; justify-content:space-between; margin-right: 5%; margin-left: 5%;\"><li> un ejercicio de resolución de preguntas de selección múltiple (30’),</li><li>un cuestionario breve (5’),</li><li>un juego muy breve (3’),</li></ol><p style=\"text-align:left; justify-content:space-between; margin-right: 5%; margin-left: 5%;\">Si quieres participar, haz clic en “Acepto” luego de leer lo siguiente:<br></p><p style=\"text-align:left; justify-content:space-between; margin-right: 5%; margin-left: 5%;\">Acepto participar en el estudio “Estrategias de lectura y resolución de preguntas de selección múltiple”, en los términos aquí señalados:<br></p><p style=\"text-align:left; justify-content:space-between; margin-right: 5%; margin-left: 5%;\"><a href=\"http://ciae.uchile.cl/download.php?file=noticias/Asentimiento.pdf\" target=\"_blank\">Link a la hoja de información del Consentimiento.</a></p><p style=\"text-align:left; justify-content:space-between; margin-right: 5%; margin-left: 5%;\">Declaro que he leído (o se me ha leído) y (he) comprendido, las condiciones de mi participación en este estudio. He tenido la oportunidad de hacer preguntas y éstas han sido respondidas. No tengo dudas al respecto.</p>","response":0,"condicion_MCQ":1,"condicion_INTER":1,"numero_participante":49,"numero_version":1,"dimx":1366,"dimy":768,"color_profundidad":24,"pixel_profundidad":24,"Browser":"Google Chrome","trial_type":"html-button-response","trial_index":0,"time_elapsed":8287,"internal_node_id":"0.0-0.0"},{"success":true,"trial_type":"fullscreen","trial_index":1,"time_elapsed":14370,"internal_node_id":"0.0-1.0"},{"rt":61219.3650000263,"responses":"{\"Nombres\":\"Victoria Paz\",\"Apellidos\":\"Villalobos Duarte\",\"Edad\":\"18\",\"Sexo\":\"mujer\",\"Curso\":\"primer año\",\"Colegio\":\"universidad andres bello\",\"Contacto\":\"vicky.paz.duerte@gmail.com\"}","trial_type":"survey-text","trial_index":2,"time_elapsed":75620,"internal_node_id":"0.0-2.0"},{"success":true,"timeout":false,"failed_images":[],"failed_audio":[],"failed_video":[],"trial_type":"preload","trial_index":3,"time_elapsed":76370,"internal_node_id":"0.0-3.0"},{"rt":9710.919999983162,"stimulus":"<h1 style:\"margin-top: 5%;\">Ejercicios de Comprensión de Lectura de la Universidad de Chile</h1><p style=\"font-size: 120%;\">En esta actividad, debes responder 30 preguntas de selección múltiple. Cada pregunta presenta 3 respuestas alternativas, pero sólo una de ellas es correcta. Por lo tanto, debes escoger una sola alternativa para cada pregunta. Además, debes reportar qué tan seguro(a) estás de la respuesta que das, con un:</p><ol style=\"font-size: 120%;text-align:left;margin-left: 40%;\"><li>No estoy seguro(a) para nada</li><li>No estoy muy seguro(a)</li><li>Estoy bastante seguro(a)</li><li>Estoy totalmente seguro(a)</li></ol><p style=\"font-size: 120%;\">Por favor lee bien los enunciados antes de responder. ¡Éxito!</p>","response":0,"trial_type":"html-button-response","trial_index":4,"time_elapsed":86083,"internal_node_id":"0.0-4.0"},{"rt":64461.92000003066,"responses":"{\"pregunta9\":\"a) pueden rendir exámenes para optar y obtener títulos profesionales igual que los hombres. \"}","question_order":"[0]","trial_type":"survey-multi-choice","trial_index":5,"time_elapsed":150548,"internal_node_id":"0.0-5.0-0.0"},{"rt":6281.205000006594,"response":{"pregunta9 likert":2},"question_order":[0],"trial_type":"survey-likert","trial_index":6,"time_elapsed":156833,"internal_node_id":"0.0-5.0-1.0"},{"rt":46198.359999922104,"responses":"{\"pregunta3\":\"c) El inicio de la dinastía Chang. \"}","question_order":"[0]","trial_type":"survey-multi-choice","trial_index":7,"time_elapsed":203035,"internal_node_id":"0.0-5.0-2.0"},{"rt":3577.7300000190735,"response":{"pregunta3 likert":2},"question_order":[0],"trial_type":"survey-likert","trial_index":8,"time_elapsed":206616,"internal_node_id":"0.0-5.0-3.0"},{"rt":104803.70499996934,"responses":"{\"pregunta7\":\"b) La imprenta y el papel han permitido el desarrollo de la civilización y la conservación de su cultura, y ambos son inventos chinos. \"}","question_order":"[0]","trial_type":"survey-multi-choice","trial_index":9,"time_elapsed":311423,"internal_node_id":"0.0-5.0-4.0"},{"rt":3117.1549999853596,"response":{"pregunta7 likert":3},"question_order":[0],"trial_type":"survey-likert","trial_index":10,"time_elapsed":314544,"internal_node_id":"0.0-5.0-5.0"},{"rt":44309.05000003986,"responses":"{\"pregunta29\":\"c) el jardinero estará muerto al día siguiente. \"}","question_order":"[0]","trial_type":"survey-multi-choice","trial_index":11,"time_elapsed":358856,"internal_node_id":"0.0-5.0-6.0"},{"rt":2615.1049999753013,"response":{"pregunta29 likert":3},"question_order":[0],"trial_type":"survey-likert","trial_index":12,"time_elapsed":361474,"internal_node_id":"0.0-5.0-7.0"},{"rt":69563.62000002991,"responses":"{\"pregunta19\":\"a) El hábito de la lectura y el progreso mantienen una relación inversamente proporcional. \"}","question_order":"[0]","trial_type":"survey-multi-choice","trial_index":13,"time_elapsed":431041,"internal_node_id":"0.0-5.0-8.0"},{"rt":2968.914999975823,"response":{"pregunta19 likert":3},"question_order":[0],"trial_type":"survey-likert","trial_index":14,"time_elapsed":434013,"internal_node_id":"0.0-5.0-9.0"},{"rt":46422.14499996044,"responses":"{\"pregunta18\":\"c) A la inutilidad de tanto esfuerzo si el objetivo es el reposo. \"}","question_order":"[0]","trial_type":"survey-multi-choice","trial_index":15,"time_elapsed":480437,"internal_node_id":"0.0-5.0-10.0"},{"rt":2956.83000003919,"response":{"pregunta18 likert":2},"question_order":[0],"trial_type":"survey-likert","trial_index":16,"time_elapsed":483397,"internal_node_id":"0.0-5.0-11.0"},{"rt":16745.509999920614,"responses":"{\"pregunta6\":\"b) Las personas escandalosas constantemente critican a la Academia. \"}","question_order":"[0]","trial_type":"survey-multi-choice","trial_index":17,"time_elapsed":500145,"internal_node_id":"0.0-5.0-12.0"},{"rt":3710.244999965653,"response":{"pregunta6 likert":1},"question_order":[0],"trial_type":"survey-likert","trial_index":18,"time_elapsed":503858,"internal_node_id":"0.0-5.0-13.0"},{"rt":35429.05500007328,"responses":"{\"pregunta5\":\"c) Los momentos triviales de los viajes, en la escritura se vuelven significativos. \"}","question_order":"[0]","trial_type":"survey-multi-choice","trial_index":19,"time_elapsed":539290,"internal_node_id":"0.0-5.0-14.0"},{"rt":3322.3650000290945,"response":{"pregunta5 likert":1},"question_order":[0],"trial_type":"survey-likert","trial_index":20,"time_elapsed":542615,"internal_node_id":"0.0-5.0-15.0"},{"rt":24100.774999940768,"responses":"{\"pregunta20\":\"a) sólo las leyes bastan para gobernarse. \"}","question_order":"[0]","trial_type":"survey-multi-choice","trial_index":21,"time_elapsed":566719,"internal_node_id":"0.0-5.0-16.0"},{"rt":3222.580000059679,"response":{"pregunta20 likert":2},"question_order":[0],"trial_type":"survey-likert","trial_index":22,"time_elapsed":569945,"internal_node_id":"0.0-5.0-17.0"},{"rt":27810.960000031628,"responses":"{\"pregunta30\":\"a) para el mexicano, la muerte es cotidiana. \"}","question_order":"[0]","trial_type":"survey-multi-choice","trial_index":23,"time_elapsed":597760,"internal_node_id":"0.0-5.0-18.0"},{"rt":4966.234999941662,"response":{"pregunta30 likert":2},"question_order":[0],"trial_type":"survey-likert","trial_index":24,"time_elapsed":602729,"internal_node_id":"0.0-5.0-19.0"},{"rt":41639.13499994669,"responses":"{\"pregunta16\":\"c) Provocar el deseo de la adquisición vertiginosa. \"}","question_order":"[0]","trial_type":"survey-multi-choice","trial_index":25,"time_elapsed":644370,"internal_node_id":"0.0-5.0-20.0"},{"rt":2347.19000000041,"response":{"pregunta16 likert":1},"question_order":[0],"trial_type":"survey-likert","trial_index":26,"time_elapsed":646720,"internal_node_id":"0.0-5.0-21.0"},{"rt":18517.03499990981,"responses":"{\"pregunta2\":\"b) A la relación entre civilización y sociedad. \"}","question_order":"[0]","trial_type":"survey-multi-choice","trial_index":27,"time_elapsed":665239,"internal_node_id":"0.0-5.0-22.0"},{"rt":3321.9350000144914,"response":{"pregunta2 likert":2},"question_order":[0],"trial_type":"survey-likert","trial_index":28,"time_elapsed":668564,"internal_node_id":"0.0-5.0-23.0"},{"rt":7572.975000017323,"responses":"{\"pregunta17\":\"b) Homenajear a quienes murieron. \"}","question_order":"[0]","trial_type":"survey-multi-choice","trial_index":29,"time_elapsed":676139,"internal_node_id":"0.0-5.0-24.0"},{"rt":2395.4049999592826,"response":{"pregunta17 likert":2},"question_order":[0],"trial_type":"survey-likert","trial_index":30,"time_elapsed":678538,"internal_node_id":"0.0-5.0-25.0"},{"rt":33706.329999957234,"responses":"{\"pregunta15\":\"c) religiosos y precavidos. \"}","question_order":"[0]","trial_type":"survey-multi-choice","trial_index":31,"time_elapsed":712247,"internal_node_id":"0.0-5.0-26.0"},{"rt":4980.350000085309,"response":{"pregunta15 likert":2},"question_order":[0],"trial_type":"survey-likert","trial_index":32,"time_elapsed":717231,"internal_node_id":"0.0-5.0-27.0"},{"rt":9004.24500007648,"responses":"{\"pregunta12\":\"c) es una noción que obedece a una visión pesimista de la vida. \"}","question_order":"[0]","trial_type":"survey-multi-choice","trial_index":33,"time_elapsed":726238,"internal_node_id":"0.0-5.0-28.0"},{"rt":2409.914999967441,"response":{"pregunta12 likert":2},"question_order":[0],"trial_type":"survey-likert","trial_index":34,"time_elapsed":728651,"internal_node_id":"0.0-5.0-29.0"},{"rt":3856.1200000112876,"responses":"{\"pregunta1\":\"a) Entregan una característica detallada del personaje, a través de la voz narrativa. \"}","question_order":"[0]","trial_type":"survey-multi-choice","trial_index":35,"time_elapsed":732510,"internal_node_id":"0.0-5.0-30.0"},{"rt":4077.159999986179,"response":{"pregunta1 likert":2},"question_order":[0],"trial_type":"survey-likert","trial_index":36,"time_elapsed":736590,"internal_node_id":"0.0-5.0-31.0"},{"rt":101169.22999999952,"responses":"{\"pregunta27\":\"c) Será difícil que las empresas nacionales compitan con las estadounidenses. \"}","question_order":"[0]","trial_type":"survey-multi-choice","trial_index":37,"time_elapsed":837762,"internal_node_id":"0.0-5.0-32.0"},{"rt":2822.3500000312924,"response":{"pregunta27 likert":2},"question_order":[0],"trial_type":"survey-likert","trial_index":38,"time_elapsed":840587,"internal_node_id":"0.0-5.0-33.0"},{"rt":4610.574999940582,"responses":"{\"pregunta24\":\"a) La publicidad es dañina para sus receptores. \"}","question_order":"[0]","trial_type":"survey-multi-choice","trial_index":39,"time_elapsed":845201,"internal_node_id":"0.0-5.0-34.0"},{"rt":2491.6700000176206,"response":{"pregunta24 likert":2},"question_order":[0],"trial_type":"survey-likert","trial_index":40,"time_elapsed":847695,"internal_node_id":"0.0-5.0-35.0"},{"rt":34375.9049999062,"responses":"{\"pregunta22\":\"b) Bomberos debería tener acceso a un seguro médico, al que pueda recurrir en caso de accidente. \"}","question_order":"[0]","trial_type":"survey-multi-choice","trial_index":41,"time_elapsed":882074,"internal_node_id":"0.0-5.0-36.0"},{"rt":4294.830000028014,"response":{"pregunta22 likert":3},"question_order":[0],"trial_type":"survey-likert","trial_index":42,"time_elapsed":886371,"internal_node_id":"0.0-5.0-37.0"},{"rt":4306.194999953732,"responses":"{\"pregunta25\":\"b) sufren dolores de espalda. \"}","question_order":"[0]","trial_type":"survey-multi-choice","trial_index":43,"time_elapsed":890680,"internal_node_id":"0.0-5.0-38.0"},{"rt":3359.1799999121577,"response":{"pregunta25 likert":2},"question_order":[0],"trial_type":"survey-likert","trial_index":44,"time_elapsed":894042,"internal_node_id":"0.0-5.0-39.0"},{"rt":73358.61500003375,"responses":"{\"pregunta28\":\"b) Se necesita un marco legal para delimitar lo público y lo privado en materia informativa. \"}","question_order":"[0]","trial_type":"survey-multi-choice","trial_index":45,"time_elapsed":967403,"internal_node_id":"0.0-5.0-40.0"},{"rt":2737.5899999169633,"response":{"pregunta28 likert":2},"question_order":[0],"trial_type":"survey-likert","trial_index":46,"time_elapsed":970143,"internal_node_id":"0.0-5.0-41.0"},{"rt":39028.320000041276,"responses":"{\"pregunta8\":\"a) Caracterizar al Quijote como un pelmazo. \"}","question_order":"[0]","trial_type":"survey-multi-choice","trial_index":47,"time_elapsed":1009174,"internal_node_id":"0.0-5.0-42.0"},{"rt":2271.640000049956,"response":{"pregunta8 likert":1},"question_order":[0],"trial_type":"survey-likert","trial_index":48,"time_elapsed":1011449,"internal_node_id":"0.0-5.0-43.0"},{"rt":28171.120000071824,"responses":"{\"pregunta4\":\"a) En la literatura como en la vida, todo es metáfora. \"}","question_order":"[0]","trial_type":"survey-multi-choice","trial_index":49,"time_elapsed":1039623,"internal_node_id":"0.0-5.0-44.0"},{"rt":2456.895000068471,"response":{"pregunta4 likert":2},"question_order":[0],"trial_type":"survey-likert","trial_index":50,"time_elapsed":1042082,"internal_node_id":"0.0-5.0-45.0"},{"rt":2992.6549999509007,"responses":"{\"pregunta10\":\"b) La biónica puede asegurar nuestra existencia mediante la aplicación de técnicas copiadas de la naturaleza. \"}","question_order":"[0]","trial_type":"survey-multi-choice","trial_index":51,"time_elapsed":1045078,"internal_node_id":"0.0-5.0-46.0"},{"rt":2173.94999996759,"response":{"pregunta10 likert":2},"question_order":[0],"trial_type":"survey-likert","trial_index":52,"time_elapsed":1047255,"internal_node_id":"0.0-5.0-47.0"},{"rt":3151.0149999521673,"responses":"{\"pregunta11\":\"a) Promover la asistencia a un evento específico de decoración a través de una atractiva descripción. \"}","question_order":"[0]","trial_type":"survey-multi-choice","trial_index":53,"time_elapsed":1050410,"internal_node_id":"0.0-5.0-48.0"},{"rt":2601.799999945797,"response":{"pregunta11 likert":2},"question_order":[0],"trial_type":"survey-likert","trial_index":54,"time_elapsed":1053014,"internal_node_id":"0.0-5.0-49.0"},{"rt":23625.220000045374,"responses":"{\"pregunta21\":\"a) el uranio es el elemento natural con el mayor número de protones en el núcleo. \"}","question_order":"[0]","trial_type":"survey-multi-choice","trial_index":55,"time_elapsed":1076642,"internal_node_id":"0.0-5.0-50.0"},{"rt":2248.9950000308454,"response":{"pregunta21 likert":2},"question_order":[0],"trial_type":"survey-likert","trial_index":56,"time_elapsed":1078894,"internal_node_id":"0.0-5.0-51.0"},{"rt":3649.420000030659,"responses":"{\"pregunta13\":\"a) Lo que es normal en un asilo es anormal en un campo de concentración. \"}","question_order":"[0]","trial_type":"survey-multi-choice","trial_index":57,"time_elapsed":1082546,"internal_node_id":"0.0-5.0-52.0"},{"rt":2152.9250000603497,"response":{"pregunta13 likert":2},"question_order":[0],"trial_type":"survey-likert","trial_index":58,"time_elapsed":1084702,"internal_node_id":"0.0-5.0-53.0"},{"rt":19108.594999997877,"responses":"{\"pregunta23\":\"a) A la temática satánica de las canciones del grupo. \"}","question_order":"[0]","trial_type":"survey-multi-choice","trial_index":59,"time_elapsed":1103814,"internal_node_id":"0.0-5.0-54.0"},{"rt":2551.7049999907613,"response":{"pregunta23 likert":2},"question_order":[0],"trial_type":"survey-likert","trial_index":60,"time_elapsed":1106369,"internal_node_id":"0.0-5.0-55.0"},{"rt":4258.569999947213,"responses":"{\"pregunta26\":\"b) el sujeto sufre con su modo de vida. \"}","question_order":"[0]","trial_type":"survey-multi-choice","trial_index":61,"time_elapsed":1110630,"internal_node_id":"0.0-5.0-56.0"},{"rt":2247.7550000185147,"response":{"pregunta26 likert":2},"question_order":[0],"trial_type":"survey-likert","trial_index":62,"time_elapsed":1112881,"internal_node_id":"0.0-5.0-57.0"},{"rt":3139.1500000609085,"responses":"{\"pregunta14\":\"a) preparar los recuerdos del mañana. \"}","question_order":"[0]","trial_type":"survey-multi-choice","trial_index":63,"time_elapsed":1116023,"internal_node_id":"0.0-5.0-58.0"},{"rt":2321.914999978617,"response":{"pregunta14 likert":2},"question_order":[0],"trial_type":"survey-likert","trial_index":64,"time_elapsed":1118348,"internal_node_id":"0.0-5.0-59.0"},{"rt":4472.589999902993,"stimulus":"<p style=\"font-size: 120%\">Gracias por completar esta etapa del estudio. Ahora te invitamos a responder el cuestionario.<br><br></p>","response":0,"trial_type":"html-button-response","trial_index":65,"time_elapsed":1122826,"internal_node_id":"0.0-6.0"},{"rt":2749.750000075437,"stimulus":"<h1 style=\"margin-top: 5%\">Cuestionario para la Evaluación de Metas Académicas</h1><p style=\"font-size: 120%; margin-left: 3%; margin-top: 5%\">Este es un cuestionario que permite conocer cuáles son los principales motivos por los que los estudiantes se esfuerzan en su trabajo académico. A continuación, se te presentarán una serie de afirmaciones acerca de los motivos que puedes tener para estudiar.<br>Te pedimos que contestes a dichas afirmaciones reflexionando sobre el contenido de cada una de ellas, que, aunque te parezcan semejantes, en realidad, no lo son.<br>NO HAY RESPUESTAS CORRECTAS o INCORRECTAS, sólo queremos que respondas con la mayor precisión y sinceridad posible a las preguntas que se plantean.","response":0,"trial_type":"html-button-response","trial_index":66,"time_elapsed":1125578,"internal_node_id":"0.0-7.0"},{"rt":108430.1549999509,"response":{"Metas cuestionario pregunta1":3,"Metas cuestionario pregunta2":3,"Metas cuestionario pregunta3":3,"Metas cuestionario pregunta4":2,"Metas cuestionario pregunta5":4,"Metas cuestionario pregunta6":2,"Metas cuestionario pregunta7":3,"Metas cuestionario pregunta8":4,"Metas cuestionario pregunta9":2,"Metas cuestionario pregunta10":0,"Metas cuestionario pregunta11":0,"Metas cuestionario pregunta12":3,"Metas cuestionario pregunta13":3,"Metas cuestionario pregunta14":0,"Metas cuestionario pregunta15":4,"Metas cuestionario pregunta16":4,"Metas cuestionario pregunta17":4,"Metas cuestionario pregunta18":4,"Metas cuestionario pregunta19":4,"Metas cuestionario pregunta20":4},"question_order":[0,1,2,3,4,5,6,7,8,9,10,11,12,13,14,15,16,17,18,19],"trial_type":"survey-likert","trial_index":67,"time_elapsed":1234019,"internal_node_id":"0.0-8.0"},{"rt":2979.585000080988,"stimulus":"<p style=\"font-size: 120%\">Gracias por responder el cuestionario. Ahora te invitamos a seguir con el juego, que es muy breve.<br><br></p>","response":0,"trial_type":"html-button-response","trial_index":68,"time_elapsed":1237007,"internal_node_id":"0.0-9.0"},{"rt":1578.0249999370426,"stimulus":"<h1>Juego</h1><p style=\"font-size: 120%;\">A continuación se te presentarán 16 pequeñas historias.<br>Por favor lee el texto presentado en cada una de ellas y luego haz click en el objeto de tu elección.<br>Si estás listo(a),<span style=\"color:red;\"> haz click en \"comenzar\"</span>.</p>","response":0,"trial_type":"html-button-response","trial_index":69,"time_elapsed":1238588,"internal_node_id":"0.0-10.0"},{"rt":16513.030000030994,"grid":[[1,1,1]],"target":[0,0],"response":[0,2],"correct":false,"juego":9,"trial_type":"serial-reaction-time-mouse","trial_index":70,"time_elapsed":1255104,"internal_node_id":"0.0-11.0-0.0"},{"rt":4761.505000060424,"grid":[[1,1,1]],"target":[0,2],"response":[0,0],"correct":false,"juego":1,"trial_type":"serial-reaction-time-mouse","trial_index":71,"time_elapsed":1259867,"internal_node_id":"0.0-11.0-1.0"},{"rt":10332.950000069104,"grid":[[1],[1],[1],[1],[1],[1]],"target":[0,0],"response":[2,0],"correct":false,"juego":5,"trial_type":"serial-reaction-time-mouse","trial_index":72,"time_elapsed":1270204,"internal_node_id":"0.0-11.0-2.0"},{"rt":7032.305000000633,"grid":[[1,1,1]],"target":[0,2],"response":[0,1],"correct":false,"juego":2,"trial_type":"serial-reaction-time-mouse","trial_index":73,"time_elapsed":1277241,"internal_node_id":"0.0-11.0-3.0"},{"rt":5103.584999917075,"grid":[[1,1,1]],"target":[0,2],"response":[0,2],"correct":true,"juego":8,"trial_type":"serial-reaction-time-mouse","trial_index":74,"time_elapsed":1282352,"internal_node_id":"0.0-11.0-4.0"},{"rt":2673.469999921508,"grid":[[1],[1],[1]],"target":[0,2],"response":[1,0],"correct":false,"juego":4,"trial_type":"serial-reaction-time-mouse","trial_index":75,"time_elapsed":1285030,"internal_node_id":"0.0-11.0-5.0"},{"rt":4886.315000010654,"grid":[[1,1,1]],"target":[0,2],"response":[0,2],"correct":true,"juego":3,"trial_type":"serial-reaction-time-mouse","trial_index":76,"time_elapsed":1289919,"internal_node_id":"0.0-11.0-6.0"},{"rt":10640.314999967813,"grid":[[1,1,1],[1,1,1],[1,1,1]],"target":[0,0],"response":[1,2],"correct":false,"juego":10,"trial_type":"serial-reaction-time-mouse","trial_index":77,"time_elapsed":1300563,"internal_node_id":"0.0-11.0-7.0"},{"rt":6429.569999920204,"grid":[[1,1,1],[1,1,1],[1,1,1],[1,1,1],[1,1,1],[1,1,1],[1,1,1]],"target":[0,0],"response":[5,1],"correct":false,"juego":13,"trial_type":"serial-reaction-time-mouse","trial_index":78,"time_elapsed":1306999,"internal_node_id":"0.0-11.0-8.0"},{"rt":7518.7999999616295,"grid":[[1,1],[1,1],[1,1],[1,1],[1,1],[1,1],[1,1]],"target":[0,0],"response":[1,1],"correct":false,"juego":15,"trial_type":"serial-reaction-time-mouse","trial_index":79,"time_elapsed":1314523,"internal_node_id":"0.0-11.0-9.0"},{"rt":4252.045000088401,"grid":[[1,1],[1,1],[1,1],[1,1],[1,1],[1,1],[1,1]],"target":[0,0],"response":[3,1],"correct":false,"juego":14,"trial_type":"serial-reaction-time-mouse","trial_index":80,"time_elapsed":1318780,"internal_node_id":"0.0-11.0-10.0"},{"rt":6194.079999928363,"grid":[[1,1,1]],"target":[0,0],"response":[0,2],"correct":false,"juego":12,"trial_type":"serial-reaction-time-mouse","trial_index":81,"time_elapsed":1324978,"internal_node_id":"0.0-11.0-11.0"},{"rt":5796.014999970794,"grid":[[1,1,1]],"target":[0,0],"response":[0,0],"correct":true,"juego":11,"trial_type":"serial-reaction-time-mouse","trial_index":82,"time_elapsed":1330779,"internal_node_id":"0.0-11.0-12.0"},{"rt":2580.560000031255,"grid":[[1,1,1]],"target":[0,2],"response":[0,1],"correct":false,"juego":7,"trial_type":"serial-reaction-time-mouse","trial_index":83,"time_elapsed":1333362,"internal_node_id":"0.0-11.0-13.0"},{"rt":4253.494999953546,"grid":[[1,1,1],[1,1,1],[1,1,1],[1,1,1],[1,1,1],[1,1,1],[1,1,1]],"target":[0,0],"response":[1,1],"correct":false,"juego":6,"trial_type":"serial-reaction-time-mouse","trial_index":84,"time_elapsed":1337620,"internal_node_id":"0.0-11.0-14.0"}]