[{"rt":3219.38499994576,"stimulus":"<h1 style=\"color:red; margin-top: 3%;\">¡Bienvenido(a)!</h1><p style=\"text-align:left; justify-content:space-between; margin-right: 5%; margin-left: 5%; margin-top: 5%\"> Antes de empezar el estudio, necesitamos que nos confirmes que estás de acuerdo con participar. Recuerda que tu participación es 100% voluntaria y que lo único que te pedimos es responder lo mejor que puedas. Recuerda también que el estudio incluye:</p><ol style=\"text-align:left; justify-content:space-between; margin-right: 5%; margin-left: 5%;\"><li> un ejercicio de resolución de preguntas de selección múltiple (30’),</li><li>un cuestionario breve (5’),</li><li>un juego muy breve (3’),</li></ol><p style=\"text-align:left; justify-content:space-between; margin-right: 5%; margin-left: 5%;\">Si quieres participar, haz clic en “Acepto” luego de leer lo siguiente:<br></p><p style=\"text-align:left; justify-content:space-between; margin-right: 5%; margin-left: 5%;\">Acepto participar en el estudio “Estrategias de lectura y resolución de preguntas de selección múltiple”, en los términos aquí señalados:<br></p><p style=\"text-align:left; justify-content:space-between; margin-right: 5%; margin-left: 5%;\"><a href=\"http://ciae.uchile.cl/download.php?file=noticias/Asentimiento.pdf\" target=\"_blank\">Link a la hoja de información del Consentimiento.</a></p><p style=\"text-align:left; justify-content:space-between; margin-right: 5%; margin-left: 5%;\">Declaro que he leído (o se me ha leído) y (he) comprendido, las condiciones de mi participación en este estudio. He tenido la oportunidad de hacer preguntas y éstas han sido respondidas. No tengo dudas al respecto.</p>","response":0,"condicion_MCQ":1,"condicion_INTER":13,"numero_participante":61,"numero_version":2,"dimx":1366,"dimy":768,"color_profundidad":24,"pixel_profundidad":24,"Browser":"Google Chrome","trial_type":"html-button-response","trial_index":0,"time_elapsed":3221,"internal_node_id":"0.0-0.0"},{"success":true,"trial_type":"fullscreen","trial_index":1,"time_elapsed":6881,"internal_node_id":"0.0-1.0"},{"rt":41670.445000054315,"responses":"{\"Nombres\":\"Camila Amaya \",\"Apellidos\":\"de Requeséns Herr\",\"Edad\":\"20\",\"Sexo\":\"mujer\",\"Curso\":\"1er año Universidad\",\"Colegio\":\"Universidad Andrés Bello\",\"Contacto\":\"camila.amayaheer@gmail.com\"}","trial_type":"survey-text","trial_index":2,"time_elapsed":48557,"internal_node_id":"0.0-2.0"},{"success":true,"timeout":false,"failed_images":[],"failed_audio":[],"failed_video":[],"trial_type":"preload","trial_index":3,"time_elapsed":49016,"internal_node_id":"0.0-3.0"},{"rt":4538.835000013933,"stimulus":"<h1 style:\"margin-top: 5%;\">Ejercicios de Comprensión de Lectura de la Universidad de Chile</h1><p style=\"font-size: 120%;\">En esta actividad, debes responder 30 preguntas de selección múltiple. Cada pregunta presenta 3 respuestas alternativas, pero sólo una de ellas es correcta. Por lo tanto, debes escoger una sola alternativa para cada pregunta. Además, debes reportar qué tan seguro(a) estás de la respuesta que das, con un:</p><ol style=\"font-size: 120%;text-align:left;margin-left: 40%;\"><li>No estoy seguro(a) para nada</li><li>No estoy muy seguro(a)</li><li>Estoy bastante seguro(a)</li><li>Estoy totalmente seguro(a)</li></ol><p style=\"font-size: 120%;\">Por favor lee bien los enunciados antes de responder. ¡Éxito!</p>","response":0,"trial_type":"html-button-response","trial_index":4,"time_elapsed":53556,"internal_node_id":"0.0-4.0"},{"rt":3793.7549999915063,"responses":"{\"pregunta15\":\"a) ritualistas y obsesivos. \"}","question_order":"[0]","trial_type":"survey-multi-choice","trial_index":5,"time_elapsed":57352,"internal_node_id":"0.0-5.0-0.0"},{"rt":3129.6250000596046,"response":{"pregunta15 likert":2},"question_order":[0],"trial_type":"survey-likert","trial_index":6,"time_elapsed":60483,"internal_node_id":"0.0-5.0-1.0"},{"rt":34595.75999993831,"responses":"{\"pregunta6\":\"a) La aparición del Diccionario Académico ha sido polémica. \"}","question_order":"[0]","trial_type":"survey-multi-choice","trial_index":7,"time_elapsed":95080,"internal_node_id":"0.0-5.0-2.0"},{"rt":3261.430000187829,"response":{"pregunta6 likert":1},"question_order":[0],"trial_type":"survey-likert","trial_index":8,"time_elapsed":98344,"internal_node_id":"0.0-5.0-3.0"},{"rt":49095.58500000276,"responses":"{\"pregunta19\":\"a) El hábito de la lectura y el progreso mantienen una relación inversamente proporcional. \"}","question_order":"[0]","trial_type":"survey-multi-choice","trial_index":9,"time_elapsed":147442,"internal_node_id":"0.0-5.0-4.0"},{"rt":3457.3900001123548,"response":{"pregunta19 likert":1},"question_order":[0],"trial_type":"survey-likert","trial_index":10,"time_elapsed":150901,"internal_node_id":"0.0-5.0-5.0"},{"rt":302554.315000074,"responses":"{\"pregunta23\":\"c) A la influencia de grupos que rechazaban su música. \"}","question_order":"[0]","trial_type":"survey-multi-choice","trial_index":11,"time_elapsed":453457,"internal_node_id":"0.0-5.0-6.0"},{"rt":7479.034999851137,"response":{"pregunta23 likert":3},"question_order":[0],"trial_type":"survey-likert","trial_index":12,"time_elapsed":460938,"internal_node_id":"0.0-5.0-7.0"},{"rt":939561.1849999987,"responses":"{\"pregunta4\":\"a) En la literatura como en la vida, todo es metáfora. \"}","question_order":"[0]","trial_type":"survey-multi-choice","trial_index":13,"time_elapsed":1400501,"internal_node_id":"0.0-5.0-8.0"},{"rt":2995.244999881834,"response":{"pregunta4 likert":1},"question_order":[0],"trial_type":"survey-likert","trial_index":14,"time_elapsed":1403498,"internal_node_id":"0.0-5.0-9.0"},{"rt":3035.3800000157207,"responses":"{\"pregunta25\":\"c) llevan un control grupal de su embarazo. \"}","question_order":"[0]","trial_type":"survey-multi-choice","trial_index":15,"time_elapsed":1406535,"internal_node_id":"0.0-5.0-10.0"},{"rt":2081.955000059679,"response":{"pregunta25 likert":1},"question_order":[0],"trial_type":"survey-likert","trial_index":16,"time_elapsed":1408619,"internal_node_id":"0.0-5.0-11.0"},{"rt":4358.590000076219,"responses":"{\"pregunta14\":\"a) preparar los recuerdos del mañana. \"}","question_order":"[0]","trial_type":"survey-multi-choice","trial_index":17,"time_elapsed":1412979,"internal_node_id":"0.0-5.0-12.0"},{"rt":5745.069999946281,"response":{"pregunta14 likert":2},"question_order":[0],"trial_type":"survey-likert","trial_index":18,"time_elapsed":1418726,"internal_node_id":"0.0-5.0-13.0"},{"rt":3734.90499984473,"responses":"{\"pregunta22\":\"c) Por el riesgo que corren diariamente, los bomberos deberían tener mejores condiciones de seguridad. \"}","question_order":"[0]","trial_type":"survey-multi-choice","trial_index":19,"time_elapsed":1422463,"internal_node_id":"0.0-5.0-14.0"},{"rt":4273.719999939203,"response":{"pregunta22 likert":1},"question_order":[0],"trial_type":"survey-likert","trial_index":20,"time_elapsed":1426738,"internal_node_id":"0.0-5.0-15.0"},{"rt":2970.8849999587983,"responses":"{\"pregunta1\":\"c) Muestran las opiniones expuestas por los personajes en un relato. \"}","question_order":"[0]","trial_type":"survey-multi-choice","trial_index":21,"time_elapsed":1429711,"internal_node_id":"0.0-5.0-16.0"},{"rt":2816.1950001958758,"response":{"pregunta1 likert":1},"question_order":[0],"trial_type":"survey-likert","trial_index":22,"time_elapsed":1432529,"internal_node_id":"0.0-5.0-17.0"},{"rt":10350.220000138506,"responses":"{\"pregunta30\":\"c) para el mexicano, la muerte es como una mujer. \"}","question_order":"[0]","trial_type":"survey-multi-choice","trial_index":23,"time_elapsed":1442881,"internal_node_id":"0.0-5.0-18.0"},{"rt":2455.3449999075383,"response":{"pregunta30 likert":2},"question_order":[0],"trial_type":"survey-likert","trial_index":24,"time_elapsed":1445338,"internal_node_id":"0.0-5.0-19.0"},{"rt":7669.5249998010695,"responses":"{\"pregunta11\":\"b) Orientar la opción estética de un grupo de personas en lo que se refiere a la decoración de interiores. \"}","question_order":"[0]","trial_type":"survey-multi-choice","trial_index":25,"time_elapsed":1453010,"internal_node_id":"0.0-5.0-20.0"},{"rt":5074.829999823123,"response":{"pregunta11 likert":2},"question_order":[0],"trial_type":"survey-likert","trial_index":26,"time_elapsed":1458086,"internal_node_id":"0.0-5.0-21.0"},{"rt":6173.849999904633,"responses":"{\"pregunta7\":\"b) La imprenta y el papel han permitido el desarrollo de la civilización y la conservación de su cultura, y ambos son inventos chinos. \"}","question_order":"[0]","trial_type":"survey-multi-choice","trial_index":27,"time_elapsed":1464262,"internal_node_id":"0.0-5.0-22.0"},{"rt":2266.950000077486,"response":{"pregunta7 likert":2},"question_order":[0],"trial_type":"survey-likert","trial_index":28,"time_elapsed":1466531,"internal_node_id":"0.0-5.0-23.0"},{"rt":4567.144999979064,"responses":"{\"pregunta3\":\"c) El inicio de la dinastía Chang. \"}","question_order":"[0]","trial_type":"survey-multi-choice","trial_index":29,"time_elapsed":1471100,"internal_node_id":"0.0-5.0-24.0"},{"rt":3788.8149998616427,"response":{"pregunta3 likert":1},"question_order":[0],"trial_type":"survey-likert","trial_index":30,"time_elapsed":1474892,"internal_node_id":"0.0-5.0-25.0"},{"rt":2916.6149999946356,"responses":"{\"pregunta18\":\"a) Al premio merecido después de tantos esfuerzos. \"}","question_order":"[0]","trial_type":"survey-multi-choice","trial_index":31,"time_elapsed":1477811,"internal_node_id":"0.0-5.0-26.0"},{"rt":3101.225000107661,"response":{"pregunta18 likert":1},"question_order":[0],"trial_type":"survey-likert","trial_index":32,"time_elapsed":1480913,"internal_node_id":"0.0-5.0-27.0"},{"rt":2499.434999888763,"responses":"{\"pregunta12\":\"b) se da como existente, y sólo se discute su relación con el cuerpo. \"}","question_order":"[0]","trial_type":"survey-multi-choice","trial_index":33,"time_elapsed":1483414,"internal_node_id":"0.0-5.0-28.0"},{"rt":3374.80999995023,"response":{"pregunta12 likert":1},"question_order":[0],"trial_type":"survey-likert","trial_index":34,"time_elapsed":1486791,"internal_node_id":"0.0-5.0-29.0"},{"rt":4949.2450000252575,"responses":"{\"pregunta5\":\"a) La escritura plasma los mejores momentos de los viajes. \"}","question_order":"[0]","trial_type":"survey-multi-choice","trial_index":35,"time_elapsed":1491742,"internal_node_id":"0.0-5.0-30.0"},{"rt":5202.055000001565,"response":{"pregunta5 likert":1},"question_order":[0],"trial_type":"survey-likert","trial_index":36,"time_elapsed":1496946,"internal_node_id":"0.0-5.0-31.0"},{"rt":2215.9899999387562,"responses":"{\"pregunta10\":\"b) La biónica puede asegurar nuestra existencia mediante la aplicación de técnicas copiadas de la naturaleza. \"}","question_order":"[0]","trial_type":"survey-multi-choice","trial_index":37,"time_elapsed":1499163,"internal_node_id":"0.0-5.0-32.0"},{"rt":28024.85499996692,"response":{"pregunta10 likert":1},"question_order":[0],"trial_type":"survey-likert","trial_index":38,"time_elapsed":1527190,"internal_node_id":"0.0-5.0-33.0"},{"rt":3420.1950000133365,"responses":"{\"pregunta2\":\"a) A la relación entre pensamiento y estructura social. \"}","question_order":"[0]","trial_type":"survey-multi-choice","trial_index":39,"time_elapsed":1530611,"internal_node_id":"0.0-5.0-34.0"},{"rt":3723.6199998296797,"response":{"pregunta2 likert":2},"question_order":[0],"trial_type":"survey-likert","trial_index":40,"time_elapsed":1534337,"internal_node_id":"0.0-5.0-35.0"},{"rt":2418.040000135079,"responses":"{\"pregunta26\":\"a) para Aristóteles la virtud estaba en el justo equilibrio. \"}","question_order":"[0]","trial_type":"survey-multi-choice","trial_index":41,"time_elapsed":1536757,"internal_node_id":"0.0-5.0-36.0"},{"rt":2219.3449998740107,"response":{"pregunta26 likert":1},"question_order":[0],"trial_type":"survey-likert","trial_index":42,"time_elapsed":1538978,"internal_node_id":"0.0-5.0-37.0"},{"rt":2169.5850000251085,"responses":"{\"pregunta9\":\"b) deben ser capaces de mantenerse económicamente de la misma forma que los hombres. \"}","question_order":"[0]","trial_type":"survey-multi-choice","trial_index":43,"time_elapsed":1541149,"internal_node_id":"0.0-5.0-38.0"},{"rt":2447.249999968335,"response":{"pregunta9 likert":2},"question_order":[0],"trial_type":"survey-likert","trial_index":44,"time_elapsed":1543598,"internal_node_id":"0.0-5.0-39.0"},{"rt":4172.430000035092,"responses":"{\"pregunta21\":\"b) la creación de elementos químicos artificiales ha resultado de la manipulación del uranio. \"}","question_order":"[0]","trial_type":"survey-multi-choice","trial_index":45,"time_elapsed":1547772,"internal_node_id":"0.0-5.0-40.0"},{"rt":3088.549999985844,"response":{"pregunta21 likert":2},"question_order":[0],"trial_type":"survey-likert","trial_index":46,"time_elapsed":1550862,"internal_node_id":"0.0-5.0-41.0"},{"rt":2401.8200000282377,"responses":"{\"pregunta28\":\"c) La prensa tiene derecho a meter sus narices en todos lados. \"}","question_order":"[0]","trial_type":"survey-multi-choice","trial_index":47,"time_elapsed":1553266,"internal_node_id":"0.0-5.0-42.0"},{"rt":5007.519999984652,"response":{"pregunta28 likert":2},"question_order":[0],"trial_type":"survey-likert","trial_index":48,"time_elapsed":1558275,"internal_node_id":"0.0-5.0-43.0"},{"rt":5021.200000075623,"responses":"{\"pregunta13\":\"c) El ser humano se comporta de acuerdo con las circunstancias. \"}","question_order":"[0]","trial_type":"survey-multi-choice","trial_index":49,"time_elapsed":1563298,"internal_node_id":"0.0-5.0-44.0"},{"rt":2233.2950001582503,"response":{"pregunta13 likert":2},"question_order":[0],"trial_type":"survey-likert","trial_index":50,"time_elapsed":1565533,"internal_node_id":"0.0-5.0-45.0"},{"rt":4470.919999992475,"responses":"{\"pregunta20\":\"a) sólo las leyes bastan para gobernarse. \"}","question_order":"[0]","trial_type":"survey-multi-choice","trial_index":51,"time_elapsed":1570006,"internal_node_id":"0.0-5.0-46.0"},{"rt":2586.3949998747557,"response":{"pregunta20 likert":2},"question_order":[0],"trial_type":"survey-likert","trial_index":52,"time_elapsed":1572594,"internal_node_id":"0.0-5.0-47.0"},{"rt":2804.905000142753,"responses":"{\"pregunta24\":\"a) La publicidad es dañina para sus receptores. \"}","question_order":"[0]","trial_type":"survey-multi-choice","trial_index":53,"time_elapsed":1575401,"internal_node_id":"0.0-5.0-48.0"},{"rt":2331.7700000479817,"response":{"pregunta24 likert":1},"question_order":[0],"trial_type":"survey-likert","trial_index":54,"time_elapsed":1577734,"internal_node_id":"0.0-5.0-49.0"},{"rt":2569.7149999905378,"responses":"{\"pregunta27\":\"b) El TLC causará una completa transformación de la economía chilena. \"}","question_order":"[0]","trial_type":"survey-multi-choice","trial_index":55,"time_elapsed":1580306,"internal_node_id":"0.0-5.0-50.0"},{"rt":2534.1050000861287,"response":{"pregunta27 likert":2},"question_order":[0],"trial_type":"survey-likert","trial_index":56,"time_elapsed":1582842,"internal_node_id":"0.0-5.0-51.0"},{"rt":4217.4700000323355,"responses":"{\"pregunta29\":\"a) la Muerte vaticina el futuro mediante gestos. \"}","question_order":"[0]","trial_type":"survey-multi-choice","trial_index":57,"time_elapsed":1587061,"internal_node_id":"0.0-5.0-52.0"},{"rt":2015.2950000483543,"response":{"pregunta29 likert":2},"question_order":[0],"trial_type":"survey-likert","trial_index":58,"time_elapsed":1589078,"internal_node_id":"0.0-5.0-53.0"},{"rt":2037.9900000989437,"responses":"{\"pregunta8\":\"c) Dar a conocer al ganador del premio Cervantes. \"}","question_order":"[0]","trial_type":"survey-multi-choice","trial_index":59,"time_elapsed":1591118,"internal_node_id":"0.0-5.0-54.0"},{"rt":2203.0650000087917,"response":{"pregunta8 likert":1},"question_order":[0],"trial_type":"survey-likert","trial_index":60,"time_elapsed":1593323,"internal_node_id":"0.0-5.0-55.0"},{"rt":5708.614999894053,"responses":"{\"pregunta16\":\"b) Deleitar a sus receptores por medio de la belleza y el confort. \"}","question_order":"[0]","trial_type":"survey-multi-choice","trial_index":61,"time_elapsed":1599033,"internal_node_id":"0.0-5.0-56.0"},{"rt":2562.0050001889467,"response":{"pregunta16 likert":1},"question_order":[0],"trial_type":"survey-likert","trial_index":62,"time_elapsed":1601597,"internal_node_id":"0.0-5.0-57.0"},{"rt":3656.904999865219,"responses":"{\"pregunta17\":\"a) Atraer a los turistas. \"}","question_order":"[0]","trial_type":"survey-multi-choice","trial_index":63,"time_elapsed":1605255,"internal_node_id":"0.0-5.0-58.0"},{"rt":4272.33500010334,"response":{"pregunta17 likert":1},"question_order":[0],"trial_type":"survey-likert","trial_index":64,"time_elapsed":1609530,"internal_node_id":"0.0-5.0-59.0"},{"rt":1777.37500006333,"stimulus":"<p style=\"font-size: 120%\">Gracias por completar esta etapa del estudio. Ahora te invitamos a responder el cuestionario.<br><br></p>","response":0,"trial_type":"html-button-response","trial_index":65,"time_elapsed":1611364,"internal_node_id":"0.0-6.0"},{"rt":8461.704999906942,"stimulus":"<h1 style=\"margin-top: 5%\">Cuestionario para la Evaluación de Metas Académicas</h1><p style=\"font-size: 120%; margin-left: 3%; margin-top: 5%\">Este es un cuestionario que permite conocer cuáles son los principales motivos por los que los estudiantes se esfuerzan en su trabajo académico. A continuación, se te presentarán una serie de afirmaciones acerca de los motivos que puedes tener para estudiar.<br>Te pedimos que contestes a dichas afirmaciones reflexionando sobre el contenido de cada una de ellas, que, aunque te parezcan semejantes, en realidad, no lo son.<br>NO HAY RESPUESTAS CORRECTAS o INCORRECTAS, sólo queremos que respondas con la mayor precisión y sinceridad posible a las preguntas que se plantean.","response":0,"trial_type":"html-button-response","trial_index":66,"time_elapsed":1619827,"internal_node_id":"0.0-7.0"},{"rt":639448.8199998159,"response":{"Metas cuestionario pregunta1":4,"Metas cuestionario pregunta2":2,"Metas cuestionario pregunta3":2,"Metas cuestionario pregunta4":0,"Metas cuestionario pregunta5":1,"Metas cuestionario pregunta6":2,"Metas cuestionario pregunta7":1,"Metas cuestionario pregunta8":1,"Metas cuestionario pregunta9":0,"Metas cuestionario pregunta10":0,"Metas cuestionario pregunta11":0,"Metas cuestionario pregunta12":0,"Metas cuestionario pregunta13":0,"Metas cuestionario pregunta14":0,"Metas cuestionario pregunta15":3,"Metas cuestionario pregunta16":3,"Metas cuestionario pregunta17":4,"Metas cuestionario pregunta18":4,"Metas cuestionario pregunta19":4,"Metas cuestionario pregunta20":4},"question_order":[0,1,2,3,4,5,6,7,8,9,10,11,12,13,14,15,16,17,18,19],"trial_type":"survey-likert","trial_index":67,"time_elapsed":2259282,"internal_node_id":"0.0-8.0"},{"rt":2787.5200000125915,"stimulus":"<p style=\"font-size: 120%\">Gracias por responder el cuestionario. Ahora te invitamos a seguir con el juego, que es muy breve.<br><br></p>","response":0,"trial_type":"html-button-response","trial_index":68,"time_elapsed":2262073,"internal_node_id":"0.0-9.0"},{"rt":10661.655000178143,"stimulus":"<h1>Juego</h1><p style=\"font-size: 120%;\">A continuación se te presentarán 16 pequeñas historias.<br>Por favor lee el texto presentado en cada una de ellas y luego haz click en el objeto de tu elección.<br>Si estás listo(a),<span style=\"color:red;\"> haz click en \"comenzar\"</span>.</p>","response":0,"trial_type":"html-button-response","trial_index":69,"time_elapsed":2272736,"internal_node_id":"0.0-10.0"},{"rt":47633.78000003286,"grid":[[1,1,1]],"target":[0,0],"response":[0,1],"correct":false,"juego":11,"trial_type":"serial-reaction-time-mouse","trial_index":70,"time_elapsed":2320381,"internal_node_id":"0.0-11.0-0.0"},{"rt":16066.464999923483,"grid":[[1,1,1]],"target":[0,0],"response":[0,1],"correct":false,"juego":12,"trial_type":"serial-reaction-time-mouse","trial_index":71,"time_elapsed":2336449,"internal_node_id":"0.0-11.0-1.0"},{"rt":6099.984999978915,"grid":[[1,1,1]],"target":[0,2],"response":[0,0],"correct":false,"juego":2,"trial_type":"serial-reaction-time-mouse","trial_index":72,"time_elapsed":2342549,"internal_node_id":"0.0-11.0-2.0"},{"rt":9573.749999981374,"grid":[[1,1],[1,1],[1,1],[1,1],[1,1],[1,1],[1,1]],"target":[0,0],"response":[3,1],"correct":false,"juego":15,"trial_type":"serial-reaction-time-mouse","trial_index":73,"time_elapsed":2352124,"internal_node_id":"0.0-11.0-3.0"},{"rt":8655.215000035241,"grid":[[1,1,1],[1,1,1],[1,1,1],[1,1,1],[1,1,1],[1,1,1],[1,1,1]],"target":[0,0],"response":[3,1],"correct":false,"juego":6,"trial_type":"serial-reaction-time-mouse","trial_index":74,"time_elapsed":2360780,"internal_node_id":"0.0-11.0-4.0"},{"rt":8550.280000083148,"grid":[[1,1,1]],"target":[0,0],"response":[0,0],"correct":true,"juego":9,"trial_type":"serial-reaction-time-mouse","trial_index":75,"time_elapsed":2369331,"internal_node_id":"0.0-11.0-5.0"},{"rt":11788.445000071079,"grid":[[1],[1],[1],[1],[1],[1]],"target":[0,0],"response":[2,0],"correct":false,"juego":5,"trial_type":"serial-reaction-time-mouse","trial_index":76,"time_elapsed":2381120,"internal_node_id":"0.0-11.0-6.0"},{"rt":6374.130000127479,"grid":[[1,1,1],[1,1,1],[1,1,1],[1,1,1],[1,1,1],[1,1,1],[1,1,1]],"target":[0,0],"response":[1,1],"correct":false,"juego":13,"trial_type":"serial-reaction-time-mouse","trial_index":77,"time_elapsed":2387496,"internal_node_id":"0.0-11.0-7.0"},{"rt":8517.125000013039,"grid":[[1,1,1]],"target":[0,2],"response":[0,0],"correct":false,"juego":3,"trial_type":"serial-reaction-time-mouse","trial_index":78,"time_elapsed":2396013,"internal_node_id":"0.0-11.0-8.0"},{"rt":7940.799999982119,"grid":[[1,1,1]],"target":[0,2],"response":[0,0],"correct":false,"juego":8,"trial_type":"serial-reaction-time-mouse","trial_index":79,"time_elapsed":2403955,"internal_node_id":"0.0-11.0-9.0"},{"rt":23465.395000064746,"grid":[[1,1],[1,1],[1,1],[1,1],[1,1],[1,1],[1,1]],"target":[0,0],"response":[5,1],"correct":false,"juego":14,"trial_type":"serial-reaction-time-mouse","trial_index":80,"time_elapsed":2427421,"internal_node_id":"0.0-11.0-10.0"},{"rt":23392.63499993831,"grid":[[1,1,1]],"target":[0,2],"response":[0,0],"correct":false,"juego":1,"trial_type":"serial-reaction-time-mouse","trial_index":81,"time_elapsed":2450814,"internal_node_id":"0.0-11.0-11.0"},{"rt":3691.7499999981374,"grid":[[1],[1],[1]],"target":[0,2],"response":[1,0],"correct":false,"juego":4,"trial_type":"serial-reaction-time-mouse","trial_index":82,"time_elapsed":2454507,"internal_node_id":"0.0-11.0-12.0"},{"rt":14346.494999947026,"grid":[[1,1,1]],"target":[0,2],"response":[0,2],"correct":true,"juego":7,"trial_type":"serial-reaction-time-mouse","trial_index":83,"time_elapsed":2468854,"internal_node_id":"0.0-11.0-13.0"},{"rt":12438.450000016019,"grid":[[1,1,1],[1,1,1],[1,1,1]],"target":[0,0],"response":[2,2],"correct":false,"juego":10,"trial_type":"serial-reaction-time-mouse","trial_index":84,"time_elapsed":2481293,"internal_node_id":"0.0-11.0-14.0"},{"rt":2707.5650000479072,"stimulus":"<h1>Último juego</h1><p style=\"font-size: 130%;\">Tienes <span style=\"color:red\">20</span> segundos para recordar los pares de palabras que aparecerán a continuación. <br></p>","response":0,"trial_type":"html-button-response","trial_index":85,"time_elapsed":2484003,"internal_node_id":"0.0-12.0"},{"animation_sequence":[{"stimulus":"imagen_juego_interferencia.jpg","time":552.7950001414865},{"stimulus":"imagen_juego_interferencia.jpg","time":1021.0600001737475},{"stimulus":"imagen_juego_interferencia.jpg","time":1517.9149999748915},{"stimulus":"imagen_juego_interferencia.jpg","time":2015.4500000644475},{"stimulus":"imagen_juego_interferencia.jpg","time":2511.5450001321733},{"stimulus":"imagen_juego_interferencia.jpg","time":3014.500000048429},{"stimulus":"imagen_juego_interferencia.jpg","time":3513.0849999841303},{"stimulus":"imagen_juego_interferencia.jpg","time":4016.0300000570714},{"stimulus":"imagen_juego_interferencia.jpg","time":4513.114999979734},{"stimulus":"imagen_juego_interferencia.jpg","time":5015.445000026375},{"stimulus":"imagen_juego_interferencia.jpg","time":5507.970000151545},{"stimulus":"imagen_juego_interferencia.jpg","time":6015.515000093728},{"stimulus":"imagen_juego_interferencia.jpg","time":6516.350000165403},{"stimulus":"imagen_juego_interferencia.jpg","time":7021.7250001151115},{"stimulus":"imagen_juego_interferencia.jpg","time":7507.810000097379},{"stimulus":"imagen_juego_interferencia.jpg","time":8019.590000156313},{"stimulus":"imagen_juego_interferencia.jpg","time":8520.860000047833},{"stimulus":"imagen_juego_interferencia.jpg","time":9021.655000047758},{"stimulus":"imagen_juego_interferencia.jpg","time":9508.910000091419},{"stimulus":"imagen_juego_interferencia.jpg","time":10019.510000012815},{"stimulus":"imagen_juego_interferencia.jpg","time":10507.059999974445},{"stimulus":"imagen_juego_interferencia.jpg","time":11008.254999993369},{"stimulus":"imagen_juego_interferencia.jpg","time":11507.660000119358},{"stimulus":"imagen_juego_interferencia.jpg","time":12009.61000006646},{"stimulus":"imagen_juego_interferencia.jpg","time":12507.205000147223},{"stimulus":"imagen_juego_interferencia.jpg","time":13007.205000147223},{"stimulus":"imagen_juego_interferencia.jpg","time":13512.590000173077},{"stimulus":"imagen_juego_interferencia.jpg","time":14013.625000137836},{"stimulus":"imagen_juego_interferencia.jpg","time":14514.625000068918},{"stimulus":"imagen_juego_interferencia.jpg","time":15014.73499997519},{"stimulus":"imagen_juego_interferencia.jpg","time":15515.155000146478},{"stimulus":"imagen_juego_interferencia.jpg","time":16018.950000172481},{"stimulus":"imagen_juego_interferencia.jpg","time":16517.325000138953},{"stimulus":"imagen_juego_interferencia.jpg","time":17017.815000144765},{"stimulus":"imagen_juego_interferencia.jpg","time":17518.555000191554},{"stimulus":"imagen_juego_interferencia.jpg","time":18019.07500019297},{"stimulus":"imagen_juego_interferencia.jpg","time":18520.040000090376},{"stimulus":"imagen_juego_interferencia.jpg","time":19020.860000047833},{"stimulus":"imagen_juego_interferencia.jpg","time":19521.685000043362},{"stimulus":"imagen_juego_interferencia.jpg","time":20022.21000008285}],"response":[],"trial_type":"animation","trial_index":86,"time_elapsed":2504564,"internal_node_id":"0.0-13.0"},{"rt":22470.14499991201,"responses":"{\"pregunta interferencia4\":\"dentista\"}","question_order":"[0]","trial_type":"survey-multi-choice-cuest","trial_index":87,"time_elapsed":2527044,"internal_node_id":"0.0-14.0-0.0"},{"rt":16776.06500010006,"responses":"{\"pregunta interferencia2\":\"saltamontes\"}","question_order":"[0]","trial_type":"survey-multi-choice-cuest","trial_index":88,"time_elapsed":2543822,"internal_node_id":"0.0-14.0-1.0"},{"rt":5527.805000077933,"responses":"{\"pregunta interferencia1\":\"naranja\"}","question_order":"[0]","trial_type":"survey-multi-choice-cuest","trial_index":89,"time_elapsed":2549352,"internal_node_id":"0.0-14.0-2.0"},{"rt":19855.870000086725,"responses":"{\"pregunta interferencia3\":\"plata\"}","question_order":"[0]","trial_type":"survey-multi-choice-cuest","trial_index":90,"time_elapsed":2569209,"internal_node_id":"0.0-14.0-3.0"},{"success":true,"trial_type":"fullscreen","trial_index":91,"time_elapsed":2570228,"internal_node_id":"0.0-15.0"},{"rt":13373.549999902025,"responses":"{\"Telefono\":\"+56973378447\"}","trial_type":"survey-text","trial_index":92,"time_elapsed":2583616,"internal_node_id":"0.0-16.0"}]