[{"rt":12866.719999990892,"stimulus":"<h1 style=\"color:red; margin-top: 3%;\">¡Bienvenido(a)!</h1><p style=\"text-align:left; justify-content:space-between; margin-right: 5%; margin-left: 5%; margin-top: 5%\"> Antes de empezar el estudio, necesitamos que nos confirmes que estás de acuerdo con participar. Recuerda que tu participación es 100% voluntaria y que lo único que te pedimos es responder lo mejor que puedas. Recuerda también que el estudio incluye:</p><ol style=\"text-align:left; justify-content:space-between; margin-right: 5%; margin-left: 5%;\"><li> un ejercicio de resolución de preguntas de selección múltiple (30’),</li><li>un cuestionario breve (5’),</li><li>un juego muy breve (3’),</li></ol><p style=\"text-align:left; justify-content:space-between; margin-right: 5%; margin-left: 5%;\">Si quieres participar, haz clic en “Acepto” luego de leer lo siguiente:<br></p><p style=\"text-align:left; justify-content:space-between; margin-right: 5%; margin-left: 5%;\">Acepto participar en el estudio “Estrategias de lectura y resolución de preguntas de selección múltiple”, en los términos aquí señalados:<br></p><p style=\"text-align:left; justify-content:space-between; margin-right: 5%; margin-left: 5%;\"><a href=\"http://ciae.uchile.cl/download.php?file=noticias/Asentimiento.pdf\" target=\"_blank\">Link a la hoja de información del Consentimiento.</a></p><p style=\"text-align:left; justify-content:space-between; margin-right: 5%; margin-left: 5%;\">Declaro que he leído (o se me ha leído) y (he) comprendido, las condiciones de mi participación en este estudio. He tenido la oportunidad de hacer preguntas y éstas han sido respondidas. No tengo dudas al respecto.</p>","response":0,"condicion_MCQ":3,"condicion_INTER":15,"numero_participante":39,"numero_version":1,"dimx":1366,"dimy":768,"color_profundidad":24,"pixel_profundidad":24,"Browser":"Google Chrome","trial_type":"html-button-response","trial_index":0,"time_elapsed":12871,"internal_node_id":"0.0-0.0"},{"success":true,"trial_type":"fullscreen","trial_index":1,"time_elapsed":22028,"internal_node_id":"0.0-1.0"},{"rt":35266.545000020415,"responses":"{\"Nombres\":\"María José\",\"Apellidos\":\"Morales Blanco\",\"Edad\":\"22\",\"Sexo\":\"Mujer\",\"Curso\":\"Primer año\",\"Colegio\":\"Unab\",\"Contacto\":\"coti.99111@gmail.com\"}","trial_type":"survey-text","trial_index":2,"time_elapsed":57317,"internal_node_id":"0.0-2.0"},{"success":true,"timeout":false,"failed_images":[],"failed_audio":[],"failed_video":[],"trial_type":"preload","trial_index":3,"time_elapsed":58745,"internal_node_id":"0.0-3.0"},{"rt":6949.51000000583,"stimulus":"<h1 style:\"margin-top: 5%;\">Ejercicios de Comprensión de Lectura de la Universidad de Chile</h1><p style=\"font-size: 120%;\">En esta actividad, debes responder 30 preguntas de selección múltiple. Cada pregunta presenta 3 respuestas alternativas, pero sólo una de ellas es correcta. Por lo tanto, debes escoger una sola alternativa para cada pregunta. Además, debes reportar qué tan seguro(a) estás de la respuesta que das, con un:</p><ol style=\"font-size: 120%;text-align:left;margin-left: 40%;\"><li>No estoy seguro(a) para nada</li><li>No estoy muy seguro(a)</li><li>Estoy bastante seguro(a)</li><li>Estoy totalmente seguro(a)</li></ol><p style=\"font-size: 120%;\">Por favor lee bien los enunciados antes de responder. ¡Éxito!</p>","response":0,"trial_type":"html-button-response","trial_index":4,"time_elapsed":65697,"internal_node_id":"0.0-4.0"},{"rt":54692.91000004159,"responses":"{\"pregunta20\":\"b) el mejor emperador es el que está muerto. \"}","question_order":"[0]","trial_type":"survey-multi-choice","trial_index":5,"time_elapsed":120394,"internal_node_id":"0.0-5.0-0.0"},{"rt":4658.484999963548,"response":{"pregunta20 likert":2},"question_order":[0],"trial_type":"survey-likert","trial_index":6,"time_elapsed":125059,"internal_node_id":"0.0-5.0-1.0"},{"rt":28455.445000028703,"responses":"{\"pregunta8\":\"b) Dar a conocer al ganador del premio Cervantes. \"}","question_order":"[0]","trial_type":"survey-multi-choice","trial_index":7,"time_elapsed":153520,"internal_node_id":"0.0-5.0-2.0"},{"rt":3560.8749999664724,"response":{"pregunta8 likert":3},"question_order":[0],"trial_type":"survey-likert","trial_index":8,"time_elapsed":157088,"internal_node_id":"0.0-5.0-3.0"},{"rt":54806.265000021085,"responses":"{\"pregunta3\":\"a) El inicio de la civilización china. \"}","question_order":"[0]","trial_type":"survey-multi-choice","trial_index":9,"time_elapsed":211905,"internal_node_id":"0.0-5.0-4.0"},{"rt":4080.2050000056624,"response":{"pregunta3 likert":2},"question_order":[0],"trial_type":"survey-likert","trial_index":10,"time_elapsed":215994,"internal_node_id":"0.0-5.0-5.0"},{"rt":80564.48500003899,"responses":"{\"pregunta10\":\"c) La biónica es una disciplina que aprovecha las condiciones del entorno. \"}","question_order":"[0]","trial_type":"survey-multi-choice","trial_index":11,"time_elapsed":296563,"internal_node_id":"0.0-5.0-6.0"},{"rt":3623.8800000282936,"response":{"pregunta10 likert":3},"question_order":[0],"trial_type":"survey-likert","trial_index":12,"time_elapsed":300193,"internal_node_id":"0.0-5.0-7.0"},{"rt":44439.95500000892,"responses":"{\"pregunta18\":\"c) Al premio merecido después de tantos esfuerzos. \"}","question_order":"[0]","trial_type":"survey-multi-choice","trial_index":13,"time_elapsed":344641,"internal_node_id":"0.0-5.0-8.0"},{"rt":3524.990000005346,"response":{"pregunta18 likert":3},"question_order":[0],"trial_type":"survey-likert","trial_index":14,"time_elapsed":348173,"internal_node_id":"0.0-5.0-9.0"},{"rt":115937.55499995314,"responses":"{\"pregunta26\":\"c) para Aristóteles la virtud estaba en el justo equilibrio. \"}","question_order":"[0]","trial_type":"survey-multi-choice","trial_index":15,"time_elapsed":464118,"internal_node_id":"0.0-5.0-10.0"},{"rt":2976.07000003336,"response":{"pregunta26 likert":3},"question_order":[0],"trial_type":"survey-likert","trial_index":16,"time_elapsed":467102,"internal_node_id":"0.0-5.0-11.0"},{"rt":47523.17999996012,"responses":"{\"pregunta21\":\"a) la creación de elementos químicos artificiales ha resultado de la manipulación del uranio. \"}","question_order":"[0]","trial_type":"survey-multi-choice","trial_index":17,"time_elapsed":514631,"internal_node_id":"0.0-5.0-12.0"},{"rt":3128.4250000026077,"response":{"pregunta21 likert":2},"question_order":[0],"trial_type":"survey-likert","trial_index":18,"time_elapsed":517767,"internal_node_id":"0.0-5.0-13.0"},{"rt":52959.68999998877,"responses":"{\"pregunta19\":\"b) Las personas que leen son más flexibles en sus ideas y autónomas en su accionar. \"}","question_order":"[0]","trial_type":"survey-multi-choice","trial_index":19,"time_elapsed":570733,"internal_node_id":"0.0-5.0-14.0"},{"rt":3740.8000000286847,"response":{"pregunta19 likert":3},"question_order":[0],"trial_type":"survey-likert","trial_index":20,"time_elapsed":574482,"internal_node_id":"0.0-5.0-15.0"},{"rt":67476.25500004506,"responses":"{\"pregunta2\":\"b) A la relación entre sociedad y constitución social. \"}","question_order":"[0]","trial_type":"survey-multi-choice","trial_index":21,"time_elapsed":641966,"internal_node_id":"0.0-5.0-16.0"},{"rt":3739.1550000174902,"response":{"pregunta2 likert":3},"question_order":[0],"trial_type":"survey-likert","trial_index":22,"time_elapsed":645713,"internal_node_id":"0.0-5.0-17.0"},{"rt":68241.09500000486,"responses":"{\"pregunta11\":\"b) Presentar positivamente las diversas tendencias del diseño de interiores a través de un comentario. \"}","question_order":"[0]","trial_type":"survey-multi-choice","trial_index":23,"time_elapsed":713959,"internal_node_id":"0.0-5.0-18.0"},{"rt":3259.639999945648,"response":{"pregunta11 likert":3},"question_order":[0],"trial_type":"survey-likert","trial_index":24,"time_elapsed":717226,"internal_node_id":"0.0-5.0-19.0"},{"rt":41290.52000003867,"responses":"{\"pregunta28\":\"a) Se necesita un marco legal para delimitar lo público y lo privado en materia informativa. \"}","question_order":"[0]","trial_type":"survey-multi-choice","trial_index":25,"time_elapsed":758523,"internal_node_id":"0.0-5.0-20.0"},{"rt":2817.5199999823235,"response":{"pregunta28 likert":2},"question_order":[0],"trial_type":"survey-likert","trial_index":26,"time_elapsed":761348,"internal_node_id":"0.0-5.0-21.0"},{"rt":58385.58000000194,"responses":"{\"pregunta16\":\"b) Provocar el deseo de la adquisición vertiginosa. \"}","question_order":"[0]","trial_type":"survey-multi-choice","trial_index":27,"time_elapsed":819740,"internal_node_id":"0.0-5.0-22.0"},{"rt":3201.795000000857,"response":{"pregunta16 likert":3},"question_order":[0],"trial_type":"survey-likert","trial_index":28,"time_elapsed":822950,"internal_node_id":"0.0-5.0-23.0"},{"rt":68914.2550000106,"responses":"{\"pregunta5\":\"b) Los momentos triviales de los viajes, en la escritura se vuelven significativos. \"}","question_order":"[0]","trial_type":"survey-multi-choice","trial_index":29,"time_elapsed":891870,"internal_node_id":"0.0-5.0-24.0"},{"rt":2783.7999999755993,"response":{"pregunta5 likert":2},"question_order":[0],"trial_type":"survey-likert","trial_index":30,"time_elapsed":894663,"internal_node_id":"0.0-5.0-25.0"},{"rt":103289.86999997869,"responses":"{\"pregunta6\":\"b) Las voces extranjeras viven una tensión entre la aceptación y el rechazo. \"}","question_order":"[0]","trial_type":"survey-multi-choice","trial_index":31,"time_elapsed":997958,"internal_node_id":"0.0-5.0-26.0"},{"rt":2745.39499997627,"response":{"pregunta6 likert":3},"question_order":[0],"trial_type":"survey-likert","trial_index":32,"time_elapsed":1000710,"internal_node_id":"0.0-5.0-27.0"},{"rt":32797.054999973625,"responses":"{\"pregunta22\":\"a) Bomberos debería tener acceso a un seguro médico, al que pueda recurrir en caso de accidente. \"}","question_order":"[0]","trial_type":"survey-multi-choice","trial_index":33,"time_elapsed":1033513,"internal_node_id":"0.0-5.0-28.0"},{"rt":2935.605000006035,"response":{"pregunta22 likert":3},"question_order":[0],"trial_type":"survey-likert","trial_index":34,"time_elapsed":1036455,"internal_node_id":"0.0-5.0-29.0"},{"rt":72795.91000004439,"responses":"{\"pregunta23\":\"a) A la inexistencia de un recinto adecuado para el recital. \"}","question_order":"[0]","trial_type":"survey-multi-choice","trial_index":35,"time_elapsed":1109258,"internal_node_id":"0.0-5.0-30.0"},{"rt":3038.74500002712,"response":{"pregunta23 likert":2},"question_order":[0],"trial_type":"survey-likert","trial_index":36,"time_elapsed":1112304,"internal_node_id":"0.0-5.0-31.0"},{"rt":78104.41999998875,"responses":"{\"pregunta17\":\"a) Homenajear a quienes murieron. \"}","question_order":"[0]","trial_type":"survey-multi-choice","trial_index":37,"time_elapsed":1190414,"internal_node_id":"0.0-5.0-32.0"},{"rt":2447.195000015199,"response":{"pregunta17 likert":3},"question_order":[0],"trial_type":"survey-likert","trial_index":38,"time_elapsed":1192868,"internal_node_id":"0.0-5.0-33.0"},{"rt":346811.87999999383,"responses":"{\"pregunta27\":\"c) Nuestra economía vivirá un proceso de ajuste a la nueva realidad. \"}","question_order":"[0]","trial_type":"survey-multi-choice","trial_index":39,"time_elapsed":1539686,"internal_node_id":"0.0-5.0-34.0"},{"rt":3161.499999987427,"response":{"pregunta27 likert":3},"question_order":[0],"trial_type":"survey-likert","trial_index":40,"time_elapsed":1542854,"internal_node_id":"0.0-5.0-35.0"},{"rt":62126.35999999475,"responses":"{\"pregunta1\":\"c) Entregan una característica detallada del personaje, a través de la voz narrativa. \"}","question_order":"[0]","trial_type":"survey-multi-choice","trial_index":41,"time_elapsed":1604985,"internal_node_id":"0.0-5.0-36.0"},{"rt":4461.409999988973,"response":{"pregunta1 likert":2},"question_order":[0],"trial_type":"survey-likert","trial_index":42,"time_elapsed":1609454,"internal_node_id":"0.0-5.0-37.0"},{"rt":86990.14000000898,"responses":"{\"pregunta15\":\"b) religiosos y precavidos. \"}","question_order":"[0]","trial_type":"survey-multi-choice","trial_index":43,"time_elapsed":1696450,"internal_node_id":"0.0-5.0-38.0"},{"rt":2537.0399999665096,"response":{"pregunta15 likert":1},"question_order":[0],"trial_type":"survey-likert","trial_index":44,"time_elapsed":1698993,"internal_node_id":"0.0-5.0-39.0"},{"rt":63025.31499997713,"responses":"{\"pregunta4\":\"c) En la literatura como en la vida, todo es metáfora. \"}","question_order":"[0]","trial_type":"survey-multi-choice","trial_index":45,"time_elapsed":1762025,"internal_node_id":"0.0-5.0-40.0"},{"rt":3797.664999961853,"response":{"pregunta4 likert":2},"question_order":[0],"trial_type":"survey-likert","trial_index":46,"time_elapsed":1765827,"internal_node_id":"0.0-5.0-41.0"},{"rt":138847.6999999839,"responses":"{\"pregunta7\":\"b) Si desaparecieran el papel y la imprenta, se produciría un gran retraso en nuestra civilización. \"}","question_order":"[0]","trial_type":"survey-multi-choice","trial_index":47,"time_elapsed":1904680,"internal_node_id":"0.0-5.0-42.0"},{"rt":3136.66000001831,"response":{"pregunta7 likert":2},"question_order":[0],"trial_type":"survey-likert","trial_index":48,"time_elapsed":1907822,"internal_node_id":"0.0-5.0-43.0"},{"rt":62488.04999998538,"responses":"{\"pregunta14\":\"c) preparar los recuerdos del mañana. \"}","question_order":"[0]","trial_type":"survey-multi-choice","trial_index":49,"time_elapsed":1970318,"internal_node_id":"0.0-5.0-44.0"},{"rt":2372.1699999878183,"response":{"pregunta14 likert":2},"question_order":[0],"trial_type":"survey-likert","trial_index":50,"time_elapsed":1972697,"internal_node_id":"0.0-5.0-45.0"},{"rt":154939.8649999639,"responses":"{\"pregunta25\":\"a) sufren dolores de espalda. \"}","question_order":"[0]","trial_type":"survey-multi-choice","trial_index":51,"time_elapsed":2127644,"internal_node_id":"0.0-5.0-46.0"},{"rt":2794.1049999790266,"response":{"pregunta25 likert":1},"question_order":[0],"trial_type":"survey-likert","trial_index":52,"time_elapsed":2130445,"internal_node_id":"0.0-5.0-47.0"},{"rt":98524.97500000754,"responses":"{\"pregunta24\":\"a) El receptor es habitualmente pasivo frente a la publicidad. \"}","question_order":"[0]","trial_type":"survey-multi-choice","trial_index":53,"time_elapsed":2228975,"internal_node_id":"0.0-5.0-48.0"},{"rt":3821.7750000185333,"response":{"pregunta24 likert":3},"question_order":[0],"trial_type":"survey-likert","trial_index":54,"time_elapsed":2232802,"internal_node_id":"0.0-5.0-49.0"},{"rt":271466.54499997385,"responses":"{\"pregunta9\":\"c) pueden rendir exámenes para optar y obtener títulos profesionales igual que los hombres. \"}","question_order":"[0]","trial_type":"survey-multi-choice","trial_index":55,"time_elapsed":2504275,"internal_node_id":"0.0-5.0-50.0"},{"rt":3084.0099999913946,"response":{"pregunta9 likert":2},"question_order":[0],"trial_type":"survey-likert","trial_index":56,"time_elapsed":2507366,"internal_node_id":"0.0-5.0-51.0"},{"rt":30015.86500002304,"responses":"{\"pregunta30\":\"c) para el mexicano, la muerte es cotidiana. \"}","question_order":"[0]","trial_type":"survey-multi-choice","trial_index":57,"time_elapsed":2537388,"internal_node_id":"0.0-5.0-52.0"},{"rt":3514.6200000308454,"response":{"pregunta30 likert":2},"question_order":[0],"trial_type":"survey-likert","trial_index":58,"time_elapsed":2540910,"internal_node_id":"0.0-5.0-53.0"},{"rt":75697.44999997783,"responses":"{\"pregunta12\":\"b) es una noción que obedece a una visión pesimista de la vida. \"}","question_order":"[0]","trial_type":"survey-multi-choice","trial_index":59,"time_elapsed":2616613,"internal_node_id":"0.0-5.0-54.0"},{"rt":2742.2800000058487,"response":{"pregunta12 likert":2},"question_order":[0],"trial_type":"survey-likert","trial_index":60,"time_elapsed":2619361,"internal_node_id":"0.0-5.0-55.0"},{"rt":50230.09500000626,"responses":"{\"pregunta13\":\"b) El ser humano se comporta de acuerdo con las circunstancias. \"}","question_order":"[0]","trial_type":"survey-multi-choice","trial_index":61,"time_elapsed":2669596,"internal_node_id":"0.0-5.0-56.0"},{"rt":3148.734999995213,"response":{"pregunta13 likert":3},"question_order":[0],"trial_type":"survey-likert","trial_index":62,"time_elapsed":2672753,"internal_node_id":"0.0-5.0-57.0"},{"rt":93875.4300000146,"responses":"{\"pregunta29\":\"b) el jardinero estará muerto al día siguiente. \"}","question_order":"[0]","trial_type":"survey-multi-choice","trial_index":63,"time_elapsed":2766633,"internal_node_id":"0.0-5.0-58.0"},{"rt":3151.949999970384,"response":{"pregunta29 likert":3},"question_order":[0],"trial_type":"survey-likert","trial_index":64,"time_elapsed":2769792,"internal_node_id":"0.0-5.0-59.0"},{"rt":3119.9049999704584,"stimulus":"<p style=\"font-size: 120%\">Gracias por completar esta etapa del estudio. Ahora te invitamos a responder el cuestionario.<br><br></p>","response":0,"trial_type":"html-button-response","trial_index":65,"time_elapsed":2772925,"internal_node_id":"0.0-6.0"},{"rt":6483.245000010356,"stimulus":"<h1 style=\"margin-top: 5%\">Cuestionario para la Evaluación de Metas Académicas</h1><p style=\"font-size: 120%; margin-left: 3%; margin-top: 5%\">Este es un cuestionario que permite conocer cuáles son los principales motivos por los que los estudiantes se esfuerzan en su trabajo académico. A continuación, se te presentarán una serie de afirmaciones acerca de los motivos que puedes tener para estudiar.<br>Te pedimos que contestes a dichas afirmaciones reflexionando sobre el contenido de cada una de ellas, que, aunque te parezcan semejantes, en realidad, no lo son.<br>NO HAY RESPUESTAS CORRECTAS o INCORRECTAS, sólo queremos que respondas con la mayor precisión y sinceridad posible a las preguntas que se plantean.","response":0,"trial_type":"html-button-response","trial_index":66,"time_elapsed":2779410,"internal_node_id":"0.0-7.0"},{"rt":130804.29000000004,"response":{"Metas cuestionario pregunta1":2,"Metas cuestionario pregunta2":2,"Metas cuestionario pregunta3":1,"Metas cuestionario pregunta4":1,"Metas cuestionario pregunta5":2,"Metas cuestionario pregunta6":1,"Metas cuestionario pregunta7":2,"Metas cuestionario pregunta8":2,"Metas cuestionario pregunta9":1,"Metas cuestionario pregunta10":3,"Metas cuestionario pregunta11":3,"Metas cuestionario pregunta12":2,"Metas cuestionario pregunta13":2,"Metas cuestionario pregunta14":1,"Metas cuestionario pregunta15":4,"Metas cuestionario pregunta16":4,"Metas cuestionario pregunta17":3,"Metas cuestionario pregunta18":2,"Metas cuestionario pregunta19":4,"Metas cuestionario pregunta20":4},"question_order":[0,1,2,3,4,5,6,7,8,9,10,11,12,13,14,15,16,17,18,19],"trial_type":"survey-likert","trial_index":67,"time_elapsed":2910242,"internal_node_id":"0.0-8.0"},{"rt":3085.594999953173,"stimulus":"<p style=\"font-size: 120%\">Gracias por responder el cuestionario. Ahora te invitamos a seguir con el juego, que es muy breve.<br><br></p>","response":0,"trial_type":"html-button-response","trial_index":68,"time_elapsed":2913341,"internal_node_id":"0.0-9.0"},{"rt":8580.260000017006,"stimulus":"<h1>Juego</h1><p style=\"font-size: 120%;\">A continuación se te presentarán 16 pequeñas historias.<br>Por favor lee el texto presentado en cada una de ellas y luego haz click en el objeto de tu elección.<br>Si estás listo(a),<span style=\"color:red;\"> haz click en \"comenzar\"</span>.</p>","response":0,"trial_type":"html-button-response","trial_index":69,"time_elapsed":2921922,"internal_node_id":"0.0-10.0"},{"rt":7420.599999953993,"grid":[[1,1,1],[1,1,1],[1,1,1],[1,1,1],[1,1,1],[1,1,1],[1,1,1]],"target":[0,0],"response":[1,1],"correct":false,"juego":6,"trial_type":"serial-reaction-time-mouse","trial_index":70,"time_elapsed":2929347,"internal_node_id":"0.0-11.0-0.0"},{"rt":11347.775000031106,"grid":[[1,1,1]],"target":[0,2],"response":[0,1],"correct":false,"juego":1,"trial_type":"serial-reaction-time-mouse","trial_index":71,"time_elapsed":2940696,"internal_node_id":"0.0-11.0-1.0"},{"rt":41294.155000010505,"grid":[[1,1,1]],"target":[0,0],"response":[0,1],"correct":false,"juego":11,"trial_type":"serial-reaction-time-mouse","trial_index":72,"time_elapsed":2981994,"internal_node_id":"0.0-11.0-2.0"},{"rt":9837.31999999145,"grid":[[1,1],[1,1],[1,1],[1,1],[1,1],[1,1],[1,1]],"target":[0,0],"response":[1,1],"correct":false,"juego":14,"trial_type":"serial-reaction-time-mouse","trial_index":73,"time_elapsed":2991833,"internal_node_id":"0.0-11.0-3.0"},{"rt":10785.889999999199,"grid":[[1],[1],[1],[1],[1],[1]],"target":[0,0],"response":[0,0],"correct":true,"juego":5,"trial_type":"serial-reaction-time-mouse","trial_index":74,"time_elapsed":3002621,"internal_node_id":"0.0-11.0-4.0"},{"rt":18883.399999991525,"grid":[[1,1,1]],"target":[0,2],"response":[0,0],"correct":false,"juego":3,"trial_type":"serial-reaction-time-mouse","trial_index":75,"time_elapsed":3021506,"internal_node_id":"0.0-11.0-5.0"},{"rt":36961.699999985285,"grid":[[1,1,1],[1,1,1],[1,1,1]],"target":[0,0],"response":[1,2],"correct":false,"juego":10,"trial_type":"serial-reaction-time-mouse","trial_index":76,"time_elapsed":3058469,"internal_node_id":"0.0-11.0-6.0"},{"rt":4762.445000000298,"grid":[[1],[1],[1]],"target":[0,2],"response":[2,0],"correct":false,"juego":4,"trial_type":"serial-reaction-time-mouse","trial_index":77,"time_elapsed":3063234,"internal_node_id":"0.0-11.0-7.0"},{"rt":8125.395000039134,"grid":[[1,1,1]],"target":[0,2],"response":[0,2],"correct":true,"juego":8,"trial_type":"serial-reaction-time-mouse","trial_index":78,"time_elapsed":3071361,"internal_node_id":"0.0-11.0-8.0"},{"rt":5059.925000008661,"grid":[[1,1,1]],"target":[0,2],"response":[0,0],"correct":false,"juego":2,"trial_type":"serial-reaction-time-mouse","trial_index":79,"time_elapsed":3076422,"internal_node_id":"0.0-11.0-9.0"},{"rt":16091.030000010505,"grid":[[1,1,1],[1,1,1],[1,1,1],[1,1,1],[1,1,1],[1,1,1],[1,1,1]],"target":[0,0],"response":[3,1],"correct":false,"juego":13,"trial_type":"serial-reaction-time-mouse","trial_index":80,"time_elapsed":3092515,"internal_node_id":"0.0-11.0-10.0"},{"rt":6826.595000049565,"grid":[[1,1,1]],"target":[0,2],"response":[0,1],"correct":false,"juego":7,"trial_type":"serial-reaction-time-mouse","trial_index":81,"time_elapsed":3099343,"internal_node_id":"0.0-11.0-11.0"},{"rt":22927.724999957718,"grid":[[1,1],[1,1],[1,1],[1,1],[1,1],[1,1],[1,1]],"target":[0,0],"response":[1,1],"correct":false,"juego":15,"trial_type":"serial-reaction-time-mouse","trial_index":82,"time_elapsed":3122273,"internal_node_id":"0.0-11.0-12.0"},{"rt":8730.125000001863,"grid":[[1,1,1]],"target":[0,0],"response":[0,0],"correct":true,"juego":9,"trial_type":"serial-reaction-time-mouse","trial_index":83,"time_elapsed":3131004,"internal_node_id":"0.0-11.0-13.0"},{"rt":23918.9250000054,"grid":[[1,1,1]],"target":[0,0],"response":[0,1],"correct":false,"juego":12,"trial_type":"serial-reaction-time-mouse","trial_index":84,"time_elapsed":3154925,"internal_node_id":"0.0-11.0-14.0"},{"rt":6091.080000041984,"stimulus":"<h1>Último juego</h1><p style=\"font-size: 130%;\">Tienes <span style=\"color:red\">20</span> segundos para recordar los pares de palabras que aparecerán a continuación. <br></p>","response":0,"trial_type":"html-button-response","trial_index":85,"time_elapsed":3161020,"internal_node_id":"0.0-12.0"},{"animation_sequence":[{"stimulus":"imagen_juego_interferencia.jpg","time":557.7200000407174},{"stimulus":"imagen_juego_interferencia.jpg","time":1001.9949999987148},{"stimulus":"imagen_juego_interferencia.jpg","time":1502.1249999990687},{"stimulus":"imagen_juego_interferencia.jpg","time":2003.2849999843165},{"stimulus":"imagen_juego_interferencia.jpg","time":2504.2400000384077},{"stimulus":"imagen_juego_interferencia.jpg","time":3004.720000026282},{"stimulus":"imagen_juego_interferencia.jpg","time":3505.1100000273436},{"stimulus":"imagen_juego_interferencia.jpg","time":4006.6900000092573},{"stimulus":"imagen_juego_interferencia.jpg","time":4507.50499998685},{"stimulus":"imagen_juego_interferencia.jpg","time":5008.555000007618},{"stimulus":"imagen_juego_interferencia.jpg","time":5510.965000023134},{"stimulus":"imagen_juego_interferencia.jpg","time":6011.040000012144},{"stimulus":"imagen_juego_interferencia.jpg","time":6512.069999997038},{"stimulus":"imagen_juego_interferencia.jpg","time":7014.109999989159},{"stimulus":"imagen_juego_interferencia.jpg","time":7515.355000039563},{"stimulus":"imagen_juego_interferencia.jpg","time":8016.4199999999255},{"stimulus":"imagen_juego_interferencia.jpg","time":8520.70500003174},{"stimulus":"imagen_juego_interferencia.jpg","time":9009.965000033844},{"stimulus":"imagen_juego_interferencia.jpg","time":9516.575000016019},{"stimulus":"imagen_juego_interferencia.jpg","time":10004.820000031032},{"stimulus":"imagen_juego_interferencia.jpg","time":10505.340000032447},{"stimulus":"imagen_juego_interferencia.jpg","time":11005.170000018552},{"stimulus":"imagen_juego_interferencia.jpg","time":11507.02000001911},{"stimulus":"imagen_juego_interferencia.jpg","time":12008.160000026692},{"stimulus":"imagen_juego_interferencia.jpg","time":12508.139999990817},{"stimulus":"imagen_juego_interferencia.jpg","time":13009.505000023637},{"stimulus":"imagen_juego_interferencia.jpg","time":13509.965000033844},{"stimulus":"imagen_juego_interferencia.jpg","time":14012.255000008736},{"stimulus":"imagen_juego_interferencia.jpg","time":14512.630000011995},{"stimulus":"imagen_juego_interferencia.jpg","time":15013.280000013765},{"stimulus":"imagen_juego_interferencia.jpg","time":15514.30000003893},{"stimulus":"imagen_juego_interferencia.jpg","time":16015.584999986459},{"stimulus":"imagen_juego_interferencia.jpg","time":16516.51500002481},{"stimulus":"imagen_juego_interferencia.jpg","time":17002.29999999283},{"stimulus":"imagen_juego_interferencia.jpg","time":17507.725000032224},{"stimulus":"imagen_juego_interferencia.jpg","time":18008.414999989327},{"stimulus":"imagen_juego_interferencia.jpg","time":18513.045000028796},{"stimulus":"imagen_juego_interferencia.jpg","time":19001.450000039767},{"stimulus":"imagen_juego_interferencia.jpg","time":19506.62000000011},{"stimulus":"imagen_juego_interferencia.jpg","time":20007.47000001138}],"response":[],"trial_type":"animation","trial_index":86,"time_elapsed":3181528,"internal_node_id":"0.0-13.0"},{"rt":5810.0650000269525,"responses":"{\"pregunta interferencia1\":\"naranja\"}","question_order":"[0]","trial_type":"survey-multi-choice-cuest","trial_index":87,"time_elapsed":3187341,"internal_node_id":"0.0-14.0-0.0"},{"rt":7175.14000000665,"responses":"{\"pregunta interferencia2\":\"cucaracha\"}","question_order":"[0]","trial_type":"survey-multi-choice-cuest","trial_index":88,"time_elapsed":3194522,"internal_node_id":"0.0-14.0-1.0"},{"rt":4541.915000008885,"responses":"{\"pregunta interferencia4\":\"contador\"}","question_order":"[0]","trial_type":"survey-multi-choice-cuest","trial_index":89,"time_elapsed":3199071,"internal_node_id":"0.0-14.0-2.0"},{"rt":5169.639999978244,"responses":"{\"pregunta interferencia3\":\"aluminio\"}","question_order":"[0]","trial_type":"survey-multi-choice-cuest","trial_index":90,"time_elapsed":3204248,"internal_node_id":"0.0-14.0-3.0"},{"success":true,"trial_type":"fullscreen","trial_index":91,"time_elapsed":3205280,"internal_node_id":"0.0-15.0"}]