[{"rt":11417.985000000044,"stimulus":"<h1 style=\"color:red; margin-top: 3%;\">¡Bienvenido(a)!</h1><p style=\"text-align:left; justify-content:space-between; margin-right: 5%; margin-left: 5%; margin-top: 5%\"> Antes de empezar el estudio, necesitamos que nos confirmes que estás de acuerdo con participar. Recuerda que tu participación es 100% voluntaria y que lo único que te pedimos es responder lo mejor que puedas. Recuerda también que el estudio incluye:</p><ol style=\"text-align:left; justify-content:space-between; margin-right: 5%; margin-left: 5%;\"><li> un ejercicio de resolución de preguntas de selección múltiple (30’),</li><li>un cuestionario breve (5’),</li><li>un juego muy breve (3’),</li></ol><p style=\"text-align:left; justify-content:space-between; margin-right: 5%; margin-left: 5%;\">Si quieres participar, haz clic en “Acepto” luego de leer lo siguiente:<br></p><p style=\"text-align:left; justify-content:space-between; margin-right: 5%; margin-left: 5%;\">Acepto participar en el estudio “Estrategias de lectura y resolución de preguntas de selección múltiple”, en los términos aquí señalados:<br></p><p style=\"text-align:left; justify-content:space-between; margin-right: 5%; margin-left: 5%;\"><a href=\"http://ciae.uchile.cl/download.php?file=noticias/Asentimiento.pdf\" target=\"_blank\">Link a la hoja de información del Consentimiento.</a></p><p style=\"text-align:left; justify-content:space-between; margin-right: 5%; margin-left: 5%;\">Declaro que he leído (o se me ha leído) y (he) comprendido, las condiciones de mi participación en este estudio. He tenido la oportunidad de hacer preguntas y éstas han sido respondidas. No tengo dudas al respecto.</p>","response":0,"condicion_MCQ":4,"condicion_INTER":22,"numero_participante":22,"numero_version":1,"dimx":1366,"dimy":768,"color_profundidad":24,"pixel_profundidad":24,"Browser":"Google Chrome","trial_type":"html-button-response","trial_index":0,"time_elapsed":11420,"internal_node_id":"0.0-0.0"},{"success":true,"trial_type":"fullscreen","trial_index":1,"time_elapsed":16533,"internal_node_id":"0.0-1.0"},{"rt":73734.74499999975,"responses":"{\"Nombres\":\"Byron Francisco\",\"Apellidos\":\"Labbé San Martin\",\"Edad\":\"20\",\"Sexo\":\"Hombre\",\"Curso\":\"primer año\",\"Colegio\":\"unab\",\"Contacto\":\"b.labbsanmartn@uandresbello.edu\"}","trial_type":"survey-text","trial_index":2,"time_elapsed":90275,"internal_node_id":"0.0-2.0"},{"success":true,"timeout":false,"failed_images":[],"failed_audio":[],"failed_video":[],"trial_type":"preload","trial_index":3,"time_elapsed":91684,"internal_node_id":"0.0-3.0"},{"rt":3789.4500000002154,"stimulus":"<h1 style:\"margin-top: 5%;\">Ejercicios de Comprensión de Lectura de la Universidad de Chile</h1><p style=\"font-size: 120%;\">En esta actividad, debes responder 30 preguntas de selección múltiple. Cada pregunta presenta 3 respuestas alternativas, pero sólo una de ellas es correcta. Por lo tanto, debes escoger una sola alternativa para cada pregunta. Además, debes reportar qué tan seguro(a) estás de la respuesta que das, con un:</p><ol style=\"font-size: 120%;text-align:left;margin-left: 40%;\"><li>No estoy seguro(a) para nada</li><li>No estoy muy seguro(a)</li><li>Estoy bastante seguro(a)</li><li>Estoy totalmente seguro(a)</li></ol><p style=\"font-size: 120%;\">Por favor lee bien los enunciados antes de responder. ¡Éxito!</p>","response":0,"trial_type":"html-button-response","trial_index":4,"time_elapsed":95475,"internal_node_id":"0.0-4.0"},{"rt":48453.735000000976,"responses":"{\"pregunta16\":\"c) Provocar el deseo de la adquisición vertiginosa. \"}","question_order":"[0]","trial_type":"survey-multi-choice","trial_index":5,"time_elapsed":143930,"internal_node_id":"0.0-5.0-0.0"},{"rt":2774.7749999998487,"response":{"pregunta16 likert":3},"question_order":[0],"trial_type":"survey-likert","trial_index":6,"time_elapsed":146707,"internal_node_id":"0.0-5.0-1.0"},{"rt":51805.09499999971,"responses":"{\"pregunta11\":\"b) Presentar positivamente las diversas tendencias del diseño de interiores a través de un comentario. \"}","question_order":"[0]","trial_type":"survey-multi-choice","trial_index":7,"time_elapsed":198514,"internal_node_id":"0.0-5.0-2.0"},{"rt":2374.4299999998766,"response":{"pregunta11 likert":3},"question_order":[0],"trial_type":"survey-likert","trial_index":8,"time_elapsed":200890,"internal_node_id":"0.0-5.0-3.0"},{"rt":52797.69499999931,"responses":"{\"pregunta18\":\"a) Al premio merecido después de tantos esfuerzos. \"}","question_order":"[0]","trial_type":"survey-multi-choice","trial_index":9,"time_elapsed":253689,"internal_node_id":"0.0-5.0-4.0"},{"rt":2654.27500000078,"response":{"pregunta18 likert":3},"question_order":[0],"trial_type":"survey-likert","trial_index":10,"time_elapsed":256345,"internal_node_id":"0.0-5.0-5.0"},{"rt":28534.095000000903,"responses":"{\"pregunta27\":\"c) El TLC causará una completa transformación de la economía chilena. \"}","question_order":"[0]","trial_type":"survey-multi-choice","trial_index":11,"time_elapsed":284880,"internal_node_id":"0.0-5.0-6.0"},{"rt":1718.3050000003423,"response":{"pregunta27 likert":3},"question_order":[0],"trial_type":"survey-likert","trial_index":12,"time_elapsed":286600,"internal_node_id":"0.0-5.0-7.0"},{"rt":25326.00000000093,"responses":"{\"pregunta3\":\"b) El inicio de la civilización china. \"}","question_order":"[0]","trial_type":"survey-multi-choice","trial_index":13,"time_elapsed":311928,"internal_node_id":"0.0-5.0-8.0"},{"rt":5238.729999999108,"response":{"pregunta3 likert":2},"question_order":[0],"trial_type":"survey-likert","trial_index":14,"time_elapsed":317168,"internal_node_id":"0.0-5.0-9.0"},{"rt":39045.95999999944,"responses":"{\"pregunta23\":\"c) A la influencia de grupos que rechazaban su música. \"}","question_order":"[0]","trial_type":"survey-multi-choice","trial_index":15,"time_elapsed":356216,"internal_node_id":"0.0-5.0-10.0"},{"rt":1934.4350000010454,"response":{"pregunta23 likert":2},"question_order":[0],"trial_type":"survey-likert","trial_index":16,"time_elapsed":358152,"internal_node_id":"0.0-5.0-11.0"},{"rt":26293.879999999306,"responses":"{\"pregunta8\":\"a) Comparar a Cervantes con Quevedo. \"}","question_order":"[0]","trial_type":"survey-multi-choice","trial_index":17,"time_elapsed":384447,"internal_node_id":"0.0-5.0-12.0"},{"rt":2526.499999999942,"response":{"pregunta8 likert":3},"question_order":[0],"trial_type":"survey-likert","trial_index":18,"time_elapsed":386975,"internal_node_id":"0.0-5.0-13.0"},{"rt":26806.010000000242,"responses":"{\"pregunta2\":\"c) A la relación entre civilización y sociedad. \"}","question_order":"[0]","trial_type":"survey-multi-choice","trial_index":19,"time_elapsed":413782,"internal_node_id":"0.0-5.0-14.0"},{"rt":1318.9800000000396,"response":{"pregunta2 likert":1},"question_order":[0],"trial_type":"survey-likert","trial_index":20,"time_elapsed":415102,"internal_node_id":"0.0-5.0-15.0"},{"rt":52485.96499999985,"responses":"{\"pregunta6\":\"b) La aparición del Diccionario Académico ha sido polémica. \"}","question_order":"[0]","trial_type":"survey-multi-choice","trial_index":21,"time_elapsed":467590,"internal_node_id":"0.0-5.0-16.0"},{"rt":3782.189999999886,"response":{"pregunta6 likert":1},"question_order":[0],"trial_type":"survey-likert","trial_index":22,"time_elapsed":471374,"internal_node_id":"0.0-5.0-17.0"},{"rt":37262.28500000067,"responses":"{\"pregunta4\":\"c) En la literatura como en la vida, lo importante son las preguntas. \"}","question_order":"[0]","trial_type":"survey-multi-choice","trial_index":23,"time_elapsed":508637,"internal_node_id":"0.0-5.0-18.0"},{"rt":1254.969999999972,"response":{"pregunta4 likert":3},"question_order":[0],"trial_type":"survey-likert","trial_index":24,"time_elapsed":509894,"internal_node_id":"0.0-5.0-19.0"},{"rt":42278.485000000685,"responses":"{\"pregunta13\":\"c) El ser humano se comporta de acuerdo con las circunstancias. \"}","question_order":"[0]","trial_type":"survey-multi-choice","trial_index":25,"time_elapsed":552174,"internal_node_id":"0.0-5.0-20.0"},{"rt":1669.59499999939,"response":{"pregunta13 likert":3},"question_order":[0],"trial_type":"survey-likert","trial_index":26,"time_elapsed":553846,"internal_node_id":"0.0-5.0-21.0"},{"rt":37228.60500000033,"responses":"{\"pregunta1\":\"b) Aportan informaciones con las que se reconstruye el personaje dentro de un relato. \"}","question_order":"[0]","trial_type":"survey-multi-choice","trial_index":27,"time_elapsed":591077,"internal_node_id":"0.0-5.0-22.0"},{"rt":1557.3450000011362,"response":{"pregunta1 likert":2},"question_order":[0],"trial_type":"survey-likert","trial_index":28,"time_elapsed":592639,"internal_node_id":"0.0-5.0-23.0"},{"rt":28971.534999998752,"responses":"{\"pregunta29\":\"c) el jardinero estará muerto al día siguiente. \"}","question_order":"[0]","trial_type":"survey-multi-choice","trial_index":29,"time_elapsed":621613,"internal_node_id":"0.0-5.0-24.0"},{"rt":1605.2150000013644,"response":{"pregunta29 likert":3},"question_order":[0],"trial_type":"survey-likert","trial_index":30,"time_elapsed":623221,"internal_node_id":"0.0-5.0-25.0"},{"rt":26660.820000000997,"responses":"{\"pregunta10\":\"c) La biónica es una disciplina que aprovecha las condiciones del entorno. \"}","question_order":"[0]","trial_type":"survey-multi-choice","trial_index":31,"time_elapsed":649885,"internal_node_id":"0.0-5.0-26.0"},{"rt":1452.7999999991152,"response":{"pregunta10 likert":3},"question_order":[0],"trial_type":"survey-likert","trial_index":32,"time_elapsed":651340,"internal_node_id":"0.0-5.0-27.0"},{"rt":40101.13500000071,"responses":"{\"pregunta14\":\"a) preparar los recuerdos del mañana. \"}","question_order":"[0]","trial_type":"survey-multi-choice","trial_index":33,"time_elapsed":691444,"internal_node_id":"0.0-5.0-28.0"},{"rt":1589.365000001737,"response":{"pregunta14 likert":3},"question_order":[0],"trial_type":"survey-likert","trial_index":34,"time_elapsed":693036,"internal_node_id":"0.0-5.0-29.0"},{"rt":20685.265000000014,"responses":"{\"pregunta28\":\"b) Se necesita un marco legal para delimitar lo público y lo privado en materia informativa. \"}","question_order":"[0]","trial_type":"survey-multi-choice","trial_index":35,"time_elapsed":713724,"internal_node_id":"0.0-5.0-30.0"},{"rt":2229.3549999995157,"response":{"pregunta28 likert":3},"question_order":[0],"trial_type":"survey-likert","trial_index":36,"time_elapsed":715956,"internal_node_id":"0.0-5.0-31.0"},{"rt":13445.299999999348,"responses":"{\"pregunta7\":\"c) La impresión de libros es más importante que otros medios de información y comunicación. \"}","question_order":"[0]","trial_type":"survey-multi-choice","trial_index":37,"time_elapsed":729404,"internal_node_id":"0.0-5.0-32.0"},{"rt":1325.4300000007497,"response":{"pregunta7 likert":3},"question_order":[0],"trial_type":"survey-likert","trial_index":38,"time_elapsed":730732,"internal_node_id":"0.0-5.0-33.0"},{"rt":19997.194999999832,"responses":"{\"pregunta30\":\"b) para el mexicano, la muerte es como una mujer. \"}","question_order":"[0]","trial_type":"survey-multi-choice","trial_index":39,"time_elapsed":750731,"internal_node_id":"0.0-5.0-34.0"},{"rt":1277.3399999986868,"response":{"pregunta30 likert":3},"question_order":[0],"trial_type":"survey-likert","trial_index":40,"time_elapsed":752011,"internal_node_id":"0.0-5.0-35.0"},{"rt":6261.234999999986,"responses":"{\"pregunta17\":\"b) Homenajear a quienes murieron. \"}","question_order":"[0]","trial_type":"survey-multi-choice","trial_index":41,"time_elapsed":758275,"internal_node_id":"0.0-5.0-36.0"},{"rt":1117.3299999991432,"response":{"pregunta17 likert":3},"question_order":[0],"trial_type":"survey-likert","trial_index":42,"time_elapsed":759395,"internal_node_id":"0.0-5.0-37.0"},{"rt":6829.320000000764,"responses":"{\"pregunta24\":\"b) El receptor es habitualmente pasivo frente a la publicidad. \"}","question_order":"[0]","trial_type":"survey-multi-choice","trial_index":43,"time_elapsed":766227,"internal_node_id":"0.0-5.0-38.0"},{"rt":1749.675000000978,"response":{"pregunta24 likert":3},"question_order":[0],"trial_type":"survey-likert","trial_index":44,"time_elapsed":767979,"internal_node_id":"0.0-5.0-39.0"},{"rt":10165.10000000021,"responses":"{\"pregunta15\":\"a) ritualistas y obsesivos. \"}","question_order":"[0]","trial_type":"survey-multi-choice","trial_index":45,"time_elapsed":778147,"internal_node_id":"0.0-5.0-40.0"},{"rt":1301.1499999993248,"response":{"pregunta15 likert":3},"question_order":[0],"trial_type":"survey-likert","trial_index":46,"time_elapsed":779451,"internal_node_id":"0.0-5.0-41.0"},{"rt":22469.03999999992,"responses":"{\"pregunta5\":\"c) Los momentos triviales de los viajes, en la escritura se vuelven significativos. \"}","question_order":"[0]","trial_type":"survey-multi-choice","trial_index":47,"time_elapsed":801923,"internal_node_id":"0.0-5.0-42.0"},{"rt":1117.2249999999767,"response":{"pregunta5 likert":3},"question_order":[0],"trial_type":"survey-likert","trial_index":48,"time_elapsed":803043,"internal_node_id":"0.0-5.0-43.0"},{"rt":38909.14999999944,"responses":"{\"pregunta25\":\"a) llevan un control grupal de su embarazo. \"}","question_order":"[0]","trial_type":"survey-multi-choice","trial_index":49,"time_elapsed":841955,"internal_node_id":"0.0-5.0-44.0"},{"rt":1348.5099999997765,"response":{"pregunta25 likert":0},"question_order":[0],"trial_type":"survey-likert","trial_index":50,"time_elapsed":843306,"internal_node_id":"0.0-5.0-45.0"},{"rt":15773.444999998901,"responses":"{\"pregunta22\":\"c) Se debe crear un seguro médico especial para esta institución, pues es de alto riesgo. \"}","question_order":"[0]","trial_type":"survey-multi-choice","trial_index":51,"time_elapsed":859082,"internal_node_id":"0.0-5.0-46.0"},{"rt":1501.4499999997206,"response":{"pregunta22 likert":3},"question_order":[0],"trial_type":"survey-likert","trial_index":52,"time_elapsed":860586,"internal_node_id":"0.0-5.0-47.0"},{"rt":4725.529999999679,"responses":"{\"pregunta9\":\"b) pueden ejercer profesiones científicas de la misma forma en que lo hacen los hombres. \"}","question_order":"[0]","trial_type":"survey-multi-choice","trial_index":53,"time_elapsed":865314,"internal_node_id":"0.0-5.0-48.0"},{"rt":1037.309999999823,"response":{"pregunta9 likert":1},"question_order":[0],"trial_type":"survey-likert","trial_index":54,"time_elapsed":866354,"internal_node_id":"0.0-5.0-49.0"},{"rt":1525.589999999269,"responses":"{\"pregunta12\":\"b) se da como existente, y sólo se discute su relación con el cuerpo. \"}","question_order":"[0]","trial_type":"survey-multi-choice","trial_index":55,"time_elapsed":867882,"internal_node_id":"0.0-5.0-50.0"},{"rt":1893.4699999990407,"response":{"pregunta12 likert":2},"question_order":[0],"trial_type":"survey-likert","trial_index":56,"time_elapsed":869778,"internal_node_id":"0.0-5.0-51.0"},{"rt":14292.799999999232,"responses":"{\"pregunta20\":\"b) sólo las leyes bastan para gobernarse. \"}","question_order":"[0]","trial_type":"survey-multi-choice","trial_index":57,"time_elapsed":884074,"internal_node_id":"0.0-5.0-52.0"},{"rt":1493.7300000000978,"response":{"pregunta20 likert":3},"question_order":[0],"trial_type":"survey-likert","trial_index":58,"time_elapsed":885570,"internal_node_id":"0.0-5.0-53.0"},{"rt":3829.1649999992223,"responses":"{\"pregunta19\":\"c) Las personas que leen son más flexibles en sus ideas y autónomas en su accionar. \"}","question_order":"[0]","trial_type":"survey-multi-choice","trial_index":59,"time_elapsed":889402,"internal_node_id":"0.0-5.0-54.0"},{"rt":2005.4350000009872,"response":{"pregunta19 likert":1},"question_order":[0],"trial_type":"survey-likert","trial_index":60,"time_elapsed":891410,"internal_node_id":"0.0-5.0-55.0"},{"rt":20708.570000000764,"responses":"{\"pregunta26\":\"b) el hombre excesivo es inmoral. \"}","question_order":"[0]","trial_type":"survey-multi-choice","trial_index":61,"time_elapsed":912121,"internal_node_id":"0.0-5.0-56.0"},{"rt":1189.86500000034,"response":{"pregunta26 likert":2},"question_order":[0],"trial_type":"survey-likert","trial_index":62,"time_elapsed":913314,"internal_node_id":"0.0-5.0-57.0"},{"rt":4893.14000000013,"responses":"{\"pregunta21\":\"c) la creación de elementos químicos artificiales ha resultado de la manipulación del uranio. \"}","question_order":"[0]","trial_type":"survey-multi-choice","trial_index":63,"time_elapsed":918210,"internal_node_id":"0.0-5.0-58.0"},{"rt":1109.5199999999022,"response":{"pregunta21 likert":3},"question_order":[0],"trial_type":"survey-likert","trial_index":64,"time_elapsed":919322,"internal_node_id":"0.0-5.0-59.0"},{"rt":1120.9099999996834,"stimulus":"<p style=\"font-size: 120%\">Gracias por completar esta etapa del estudio. Ahora te invitamos a responder el cuestionario.<br><br></p>","response":0,"trial_type":"html-button-response","trial_index":65,"time_elapsed":920450,"internal_node_id":"0.0-6.0"},{"rt":12261.775000000838,"stimulus":"<h1 style=\"margin-top: 5%\">Cuestionario para la Evaluación de Metas Académicas</h1><p style=\"font-size: 120%; margin-left: 3%; margin-top: 5%\">Este es un cuestionario que permite conocer cuáles son los principales motivos por los que los estudiantes se esfuerzan en su trabajo académico. A continuación, se te presentarán una serie de afirmaciones acerca de los motivos que puedes tener para estudiar.<br>Te pedimos que contestes a dichas afirmaciones reflexionando sobre el contenido de cada una de ellas, que, aunque te parezcan semejantes, en realidad, no lo son.<br>NO HAY RESPUESTAS CORRECTAS o INCORRECTAS, sólo queremos que respondas con la mayor precisión y sinceridad posible a las preguntas que se plantean.","response":0,"trial_type":"html-button-response","trial_index":66,"time_elapsed":932713,"internal_node_id":"0.0-7.0"},{"rt":72666.55499999982,"response":{"Metas cuestionario pregunta1":2,"Metas cuestionario pregunta2":1,"Metas cuestionario pregunta3":2,"Metas cuestionario pregunta4":3,"Metas cuestionario pregunta5":3,"Metas cuestionario pregunta6":2,"Metas cuestionario pregunta7":3,"Metas cuestionario pregunta8":3,"Metas cuestionario pregunta9":0,"Metas cuestionario pregunta10":0,"Metas cuestionario pregunta11":0,"Metas cuestionario pregunta12":0,"Metas cuestionario pregunta13":0,"Metas cuestionario pregunta14":0,"Metas cuestionario pregunta15":2,"Metas cuestionario pregunta16":0,"Metas cuestionario pregunta17":1,"Metas cuestionario pregunta18":3,"Metas cuestionario pregunta19":3,"Metas cuestionario pregunta20":2},"question_order":[0,1,2,3,4,5,6,7,8,9,10,11,12,13,14,15,16,17,18,19],"trial_type":"survey-likert","trial_index":67,"time_elapsed":1005391,"internal_node_id":"0.0-8.0"}]