[{"rt":10489.899999985937,"stimulus":"<h1 style=\"color:red; margin-top: 3%;\">¡Bienvenido(a)!</h1><p style=\"text-align:left; justify-content:space-between; margin-right: 5%; margin-left: 5%; margin-top: 5%\"> Antes de empezar el estudio, necesitamos que nos confirmes que estás de acuerdo con participar. Recuerda que tu participación es 100% voluntaria y que lo único que te pedimos es responder lo mejor que puedas. Recuerda también que el estudio incluye:</p><ol style=\"text-align:left; justify-content:space-between; margin-right: 5%; margin-left: 5%;\"><li> un ejercicio de resolución de preguntas de selección múltiple (30’),</li><li>un cuestionario breve (5’),</li><li>un juego muy breve (3’),</li></ol><p style=\"text-align:left; justify-content:space-between; margin-right: 5%; margin-left: 5%;\">Si quieres participar, haz clic en “Acepto” luego de leer lo siguiente:<br></p><p style=\"text-align:left; justify-content:space-between; margin-right: 5%; margin-left: 5%;\">Acepto participar en el estudio “Estrategias de lectura y resolución de preguntas de selección múltiple”, en los términos aquí señalados:<br></p><p style=\"text-align:left; justify-content:space-between; margin-right: 5%; margin-left: 5%;\"><a href=\"http://ciae.uchile.cl/download.php?file=noticias/Asentimiento.pdf\" target=\"_blank\">Link a la hoja de información del Consentimiento.</a></p><p style=\"text-align:left; justify-content:space-between; margin-right: 5%; margin-left: 5%;\">Declaro que he leído (o se me ha leído) y (he) comprendido, las condiciones de mi participación en este estudio. He tenido la oportunidad de hacer preguntas y éstas han sido respondidas. No tengo dudas al respecto.</p>","response":0,"condicion_MCQ":2,"condicion_INTER":8,"numero_participante":8,"numero_version":1,"dimx":1366,"dimy":768,"color_profundidad":24,"pixel_profundidad":24,"Browser":"Google Chrome","trial_type":"html-button-response","trial_index":0,"time_elapsed":10498,"internal_node_id":"0.0-0.0"},{"success":true,"trial_type":"fullscreen","trial_index":1,"time_elapsed":16817,"internal_node_id":"0.0-1.0"},{"rt":101429.18499998632,"responses":"{\"Nombres\":\"Miguel Angel \",\"Apellidos\":\"Muñoz Avila \",\"Edad\":\"18\",\"Sexo\":\"Hombre\",\"Curso\":\"Primer año de carrera Universitaria \",\"Colegio\":\"U  Andres Bello\",\"Contacto\":\"tataxgreyrat@gmail.com\"}","trial_type":"survey-text","trial_index":2,"time_elapsed":118269,"internal_node_id":"0.0-2.0"},{"success":true,"timeout":false,"failed_images":[],"failed_audio":[],"failed_video":[],"trial_type":"preload","trial_index":3,"time_elapsed":118913,"internal_node_id":"0.0-3.0"},{"rt":6056.895000016084,"stimulus":"<h1 style:\"margin-top: 5%;\">Ejercicios de Comprensión de Lectura de la Universidad de Chile</h1><p style=\"font-size: 120%;\">En esta actividad, debes responder 30 preguntas de selección múltiple. Cada pregunta presenta 3 respuestas alternativas, pero sólo una de ellas es correcta. Por lo tanto, debes escoger una sola alternativa para cada pregunta. Además, debes reportar qué tan seguro(a) estás de la respuesta que das, con un:</p><ol style=\"font-size: 120%;text-align:left;margin-left: 40%;\"><li>No estoy seguro(a) para nada</li><li>No estoy muy seguro(a)</li><li>Estoy bastante seguro(a)</li><li>Estoy totalmente seguro(a)</li></ol><p style=\"font-size: 120%;\">Por favor lee bien los enunciados antes de responder. ¡Éxito!</p>","response":0,"trial_type":"html-button-response","trial_index":4,"time_elapsed":124971,"internal_node_id":"0.0-4.0"},{"rt":83306.42499998794,"responses":"{\"pregunta25\":\"c) sufren dolores de espalda. \"}","question_order":"[0]","trial_type":"survey-multi-choice","trial_index":5,"time_elapsed":208280,"internal_node_id":"0.0-5.0-0.0"},{"rt":6670.7449999812525,"response":{"pregunta25 likert":2},"question_order":[0],"trial_type":"survey-likert","trial_index":6,"time_elapsed":214953,"internal_node_id":"0.0-5.0-1.0"},{"rt":58892.38000000478,"responses":"{\"pregunta18\":\"b) Al premio merecido después de tantos esfuerzos. \"}","question_order":"[0]","trial_type":"survey-multi-choice","trial_index":7,"time_elapsed":273848,"internal_node_id":"0.0-5.0-2.0"},{"rt":3378.0599999881815,"response":{"pregunta18 likert":2},"question_order":[0],"trial_type":"survey-likert","trial_index":8,"time_elapsed":277228,"internal_node_id":"0.0-5.0-3.0"},{"rt":32605.78500002157,"responses":"{\"pregunta22\":\"b) Se debe crear un seguro médico especial para esta institución, pues es de alto riesgo. \"}","question_order":"[0]","trial_type":"survey-multi-choice","trial_index":9,"time_elapsed":309835,"internal_node_id":"0.0-5.0-4.0"},{"rt":1582.18999998644,"response":{"pregunta22 likert":3},"question_order":[0],"trial_type":"survey-likert","trial_index":10,"time_elapsed":311420,"internal_node_id":"0.0-5.0-5.0"},{"rt":65947.6849999919,"responses":"{\"pregunta13\":\"a) El ser humano se comporta de acuerdo con las circunstancias. \"}","question_order":"[0]","trial_type":"survey-multi-choice","trial_index":11,"time_elapsed":377370,"internal_node_id":"0.0-5.0-6.0"},{"rt":1264.9749999982305,"response":{"pregunta13 likert":3},"question_order":[0],"trial_type":"survey-likert","trial_index":12,"time_elapsed":378637,"internal_node_id":"0.0-5.0-7.0"},{"rt":27502.29999999283,"responses":"{\"pregunta28\":\"c) Se necesita un marco legal para delimitar lo público y lo privado en materia informativa. \"}","question_order":"[0]","trial_type":"survey-multi-choice","trial_index":13,"time_elapsed":406141,"internal_node_id":"0.0-5.0-8.0"},{"rt":1284.9649999989197,"response":{"pregunta28 likert":3},"question_order":[0],"trial_type":"survey-likert","trial_index":14,"time_elapsed":407428,"internal_node_id":"0.0-5.0-9.0"},{"rt":15218.985000014072,"responses":"{\"pregunta27\":\"b) Nuestra economía vivirá un proceso de ajuste a la nueva realidad. \"}","question_order":"[0]","trial_type":"survey-multi-choice","trial_index":15,"time_elapsed":422649,"internal_node_id":"0.0-5.0-10.0"},{"rt":1468.2899999897927,"response":{"pregunta27 likert":2},"question_order":[0],"trial_type":"survey-likert","trial_index":16,"time_elapsed":424120,"internal_node_id":"0.0-5.0-11.0"},{"rt":45582.7649999992,"responses":"{\"pregunta5\":\"a) Los momentos triviales de los viajes, en la escritura se vuelven significativos. \"}","question_order":"[0]","trial_type":"survey-multi-choice","trial_index":17,"time_elapsed":469705,"internal_node_id":"0.0-5.0-12.0"},{"rt":1623.2299999974202,"response":{"pregunta5 likert":3},"question_order":[0],"trial_type":"survey-likert","trial_index":18,"time_elapsed":471330,"internal_node_id":"0.0-5.0-13.0"},{"rt":29769.15999999619,"responses":"{\"pregunta21\":\"c) la creación de elementos químicos artificiales ha resultado de la manipulación del uranio. \"}","question_order":"[0]","trial_type":"survey-multi-choice","trial_index":19,"time_elapsed":501101,"internal_node_id":"0.0-5.0-14.0"},{"rt":2513.1250000267755,"response":{"pregunta21 likert":1},"question_order":[0],"trial_type":"survey-likert","trial_index":20,"time_elapsed":503616,"internal_node_id":"0.0-5.0-15.0"},{"rt":51680.094999988796,"responses":"{\"pregunta6\":\"a) Las voces extranjeras viven una tensión entre la aceptación y el rechazo. \"}","question_order":"[0]","trial_type":"survey-multi-choice","trial_index":21,"time_elapsed":555297,"internal_node_id":"0.0-5.0-16.0"},{"rt":2380.124999996042,"response":{"pregunta6 likert":2},"question_order":[0],"trial_type":"survey-likert","trial_index":22,"time_elapsed":557679,"internal_node_id":"0.0-5.0-17.0"},{"rt":41363.22999998811,"responses":"{\"pregunta11\":\"a) Presentar positivamente las diversas tendencias del diseño de interiores a través de un comentario. \"}","question_order":"[0]","trial_type":"survey-multi-choice","trial_index":23,"time_elapsed":599044,"internal_node_id":"0.0-5.0-18.0"},{"rt":1697.2349999996368,"response":{"pregunta11 likert":2},"question_order":[0],"trial_type":"survey-likert","trial_index":24,"time_elapsed":600744,"internal_node_id":"0.0-5.0-19.0"},{"rt":40324.99999998254,"responses":"{\"pregunta17\":\"b) Atraer a los turistas. \"}","question_order":"[0]","trial_type":"survey-multi-choice","trial_index":25,"time_elapsed":641071,"internal_node_id":"0.0-5.0-20.0"},{"rt":2762.01000000583,"response":{"pregunta17 likert":3},"question_order":[0],"trial_type":"survey-likert","trial_index":26,"time_elapsed":643835,"internal_node_id":"0.0-5.0-21.0"},{"rt":60978.08999998961,"responses":"{\"pregunta29\":\"a) el jardinero estará muerto al día siguiente. \"}","question_order":"[0]","trial_type":"survey-multi-choice","trial_index":27,"time_elapsed":704815,"internal_node_id":"0.0-5.0-22.0"},{"rt":4898.805000004359,"response":{"pregunta29 likert":3},"question_order":[0],"trial_type":"survey-likert","trial_index":28,"time_elapsed":709716,"internal_node_id":"0.0-5.0-23.0"},{"rt":61776.894999988144,"responses":"{\"pregunta16\":\"a) Provocar el deseo de la adquisición vertiginosa. \"}","question_order":"[0]","trial_type":"survey-multi-choice","trial_index":29,"time_elapsed":771495,"internal_node_id":"0.0-5.0-24.0"},{"rt":2394.9000000138767,"response":{"pregunta16 likert":2},"question_order":[0],"trial_type":"survey-likert","trial_index":30,"time_elapsed":773892,"internal_node_id":"0.0-5.0-25.0"},{"rt":51221.369999984745,"responses":"{\"pregunta20\":\"a) el mejor emperador es el que está muerto. \"}","question_order":"[0]","trial_type":"survey-multi-choice","trial_index":31,"time_elapsed":825114,"internal_node_id":"0.0-5.0-26.0"},{"rt":6209.2500000144355,"response":{"pregunta20 likert":1},"question_order":[0],"trial_type":"survey-likert","trial_index":32,"time_elapsed":831325,"internal_node_id":"0.0-5.0-27.0"},{"rt":24913.044999993872,"responses":"{\"pregunta4\":\"a) En la literatura como en la vida, lo importante son las preguntas. \"}","question_order":"[0]","trial_type":"survey-multi-choice","trial_index":33,"time_elapsed":856240,"internal_node_id":"0.0-5.0-28.0"},{"rt":1222.1950000093784,"response":{"pregunta4 likert":3},"question_order":[0],"trial_type":"survey-likert","trial_index":34,"time_elapsed":857464,"internal_node_id":"0.0-5.0-29.0"},{"rt":60105.07499999949,"responses":"{\"pregunta9\":\"b) pueden rendir exámenes para optar y obtener títulos profesionales igual que los hombres. \"}","question_order":"[0]","trial_type":"survey-multi-choice","trial_index":35,"time_elapsed":917572,"internal_node_id":"0.0-5.0-30.0"},{"rt":1197.1949999860954,"response":{"pregunta9 likert":2},"question_order":[0],"trial_type":"survey-likert","trial_index":36,"time_elapsed":918771,"internal_node_id":"0.0-5.0-31.0"},{"rt":38947.09000000148,"responses":"{\"pregunta19\":\"a) Las personas que leen son más flexibles en sus ideas y autónomas en su accionar. \"}","question_order":"[0]","trial_type":"survey-multi-choice","trial_index":37,"time_elapsed":957720,"internal_node_id":"0.0-5.0-32.0"},{"rt":1108.1299999787007,"response":{"pregunta19 likert":3},"question_order":[0],"trial_type":"survey-likert","trial_index":38,"time_elapsed":958830,"internal_node_id":"0.0-5.0-33.0"},{"rt":78264.85499998671,"responses":"{\"pregunta26\":\"b) para Aristóteles la virtud estaba en el justo equilibrio. \"}","question_order":"[0]","trial_type":"survey-multi-choice","trial_index":39,"time_elapsed":1037096,"internal_node_id":"0.0-5.0-34.0"},{"rt":3279.1850000212435,"response":{"pregunta26 likert":1},"question_order":[0],"trial_type":"survey-likert","trial_index":40,"time_elapsed":1040377,"internal_node_id":"0.0-5.0-35.0"},{"rt":55502.00499998755,"responses":"{\"pregunta15\":\"a) religiosos y precavidos. \"}","question_order":"[0]","trial_type":"survey-multi-choice","trial_index":41,"time_elapsed":1095882,"internal_node_id":"0.0-5.0-36.0"},{"rt":2144.4399999745656,"response":{"pregunta15 likert":1},"question_order":[0],"trial_type":"survey-likert","trial_index":42,"time_elapsed":1098028,"internal_node_id":"0.0-5.0-37.0"},{"rt":88523.17500000936,"responses":"{\"pregunta12\":\"a) es una noción que obedece a una visión pesimista de la vida. \"}","question_order":"[0]","trial_type":"survey-multi-choice","trial_index":43,"time_elapsed":1186553,"internal_node_id":"0.0-5.0-38.0"},{"rt":1479.1750000149477,"response":{"pregunta12 likert":0},"question_order":[0],"trial_type":"survey-likert","trial_index":44,"time_elapsed":1188034,"internal_node_id":"0.0-5.0-39.0"},{"rt":45960.599999991246,"responses":"{\"pregunta7\":\"c) La imprenta y el papel han permitido el desarrollo de la civilización y la conservación de su cultura, y ambos son inventos chinos. \"}","question_order":"[0]","trial_type":"survey-multi-choice","trial_index":45,"time_elapsed":1233997,"internal_node_id":"0.0-5.0-40.0"},{"rt":2001.1000000231434,"response":{"pregunta7 likert":1},"question_order":[0],"trial_type":"survey-likert","trial_index":46,"time_elapsed":1236000,"internal_node_id":"0.0-5.0-41.0"},{"rt":30385.580000001937,"responses":"{\"pregunta23\":\"a) A la influencia de grupos que rechazaban su música. \"}","question_order":"[0]","trial_type":"survey-multi-choice","trial_index":47,"time_elapsed":1266388,"internal_node_id":"0.0-5.0-42.0"},{"rt":1683.3449999976438,"response":{"pregunta23 likert":1},"question_order":[0],"trial_type":"survey-likert","trial_index":48,"time_elapsed":1268073,"internal_node_id":"0.0-5.0-43.0"},{"rt":20763.87500000419,"responses":"{\"pregunta8\":\"c) Comparar a Cervantes con Quevedo. \"}","question_order":"[0]","trial_type":"survey-multi-choice","trial_index":49,"time_elapsed":1288839,"internal_node_id":"0.0-5.0-44.0"},{"rt":1508.3549999981187,"response":{"pregunta8 likert":1},"question_order":[0],"trial_type":"survey-likert","trial_index":50,"time_elapsed":1290349,"internal_node_id":"0.0-5.0-45.0"},{"rt":32024.94000000297,"responses":"{\"pregunta10\":\"c) La biónica puede asegurar nuestra existencia mediante la aplicación de técnicas copiadas de la naturaleza. \"}","question_order":"[0]","trial_type":"survey-multi-choice","trial_index":51,"time_elapsed":1322376,"internal_node_id":"0.0-5.0-46.0"},{"rt":1515.9250000142492,"response":{"pregunta10 likert":2},"question_order":[0],"trial_type":"survey-likert","trial_index":52,"time_elapsed":1323894,"internal_node_id":"0.0-5.0-47.0"},{"rt":62422.68499999773,"responses":"{\"pregunta24\":\"c) El receptor es habitualmente pasivo frente a la publicidad. \"}","question_order":"[0]","trial_type":"survey-multi-choice","trial_index":53,"time_elapsed":1386318,"internal_node_id":"0.0-5.0-48.0"},{"rt":1246.5350000129547,"response":{"pregunta24 likert":2},"question_order":[0],"trial_type":"survey-likert","trial_index":54,"time_elapsed":1387567,"internal_node_id":"0.0-5.0-49.0"},{"rt":21780.39999998873,"responses":"{\"pregunta30\":\"b) para el mexicano, la muerte es cotidiana. \"}","question_order":"[0]","trial_type":"survey-multi-choice","trial_index":55,"time_elapsed":1409350,"internal_node_id":"0.0-5.0-50.0"},{"rt":2111.369999998715,"response":{"pregunta30 likert":3},"question_order":[0],"trial_type":"survey-likert","trial_index":56,"time_elapsed":1411463,"internal_node_id":"0.0-5.0-51.0"},{"rt":27183.030000014696,"responses":"{\"pregunta2\":\"a) A la relación entre sociedad y constitución social. \"}","question_order":"[0]","trial_type":"survey-multi-choice","trial_index":57,"time_elapsed":1438648,"internal_node_id":"0.0-5.0-52.0"},{"rt":1066.385000012815,"response":{"pregunta2 likert":2},"question_order":[0],"trial_type":"survey-likert","trial_index":58,"time_elapsed":1439716,"internal_node_id":"0.0-5.0-53.0"},{"rt":25468.02500000922,"responses":"{\"pregunta3\":\"c) El inicio de la civilización china. \"}","question_order":"[0]","trial_type":"survey-multi-choice","trial_index":59,"time_elapsed":1465186,"internal_node_id":"0.0-5.0-54.0"},{"rt":1318.314999982249,"response":{"pregunta3 likert":2},"question_order":[0],"trial_type":"survey-likert","trial_index":60,"time_elapsed":1466506,"internal_node_id":"0.0-5.0-55.0"},{"rt":17857.105000002775,"responses":"{\"pregunta14\":\"a) la persistencia de la melancolía y la desesperanza. \"}","question_order":"[0]","trial_type":"survey-multi-choice","trial_index":61,"time_elapsed":1484365,"internal_node_id":"0.0-5.0-56.0"},{"rt":1689.024999999674,"response":{"pregunta14 likert":3},"question_order":[0],"trial_type":"survey-likert","trial_index":62,"time_elapsed":1486056,"internal_node_id":"0.0-5.0-57.0"},{"rt":18744.88499999279,"responses":"{\"pregunta1\":\"c) Aportan informaciones con las que se reconstruye el personaje dentro de un relato. \"}","question_order":"[0]","trial_type":"survey-multi-choice","trial_index":63,"time_elapsed":1504803,"internal_node_id":"0.0-5.0-58.0"},{"rt":4410.344999982044,"response":{"pregunta1 likert":3},"question_order":[0],"trial_type":"survey-likert","trial_index":64,"time_elapsed":1509215,"internal_node_id":"0.0-5.0-59.0"}]