[{"rt":11237.910000025295,"stimulus":"<h1 style=\"color:red; margin-top: 3%;\">¡Bienvenido(a)!</h1><p style=\"text-align:left; justify-content:space-between; margin-right: 5%; margin-left: 5%; margin-top: 5%\"> Antes de empezar el estudio, necesitamos que nos confirmes que estás de acuerdo con participar. Recuerda que tu participación es 100% voluntaria y que lo único que te pedimos es responder lo mejor que puedas. Recuerda también que el estudio incluye:</p><ol style=\"text-align:left; justify-content:space-between; margin-right: 5%; margin-left: 5%;\"><li> un ejercicio de resolución de preguntas de selección múltiple (30’),</li><li>un cuestionario breve (5’),</li><li>un juego muy breve (3’),</li></ol><p style=\"text-align:left; justify-content:space-between; margin-right: 5%; margin-left: 5%;\">Si quieres participar, haz clic en “Acepto” luego de leer lo siguiente:<br></p><p style=\"text-align:left; justify-content:space-between; margin-right: 5%; margin-left: 5%;\">Acepto participar en el estudio “Estrategias de lectura y resolución de preguntas de selección múltiple”, en los términos aquí señalados:<br></p><p style=\"text-align:left; justify-content:space-between; margin-right: 5%; margin-left: 5%;\"><a href=\"http://ciae.uchile.cl/download.php?file=noticias/Asentimiento.pdf\" target=\"_blank\">Link a la hoja de información del Consentimiento.</a></p><p style=\"text-align:left; justify-content:space-between; margin-right: 5%; margin-left: 5%;\">Declaro que he leído (o se me ha leído) y (he) comprendido, las condiciones de mi participación en este estudio. He tenido la oportunidad de hacer preguntas y éstas han sido respondidas. No tengo dudas al respecto.</p>","response":0,"condicion_MCQ":5,"condicion_INTER":23,"numero_participante":47,"numero_version":1,"dimx":1366,"dimy":768,"color_profundidad":24,"pixel_profundidad":24,"Browser":"Google Chrome","trial_type":"html-button-response","trial_index":0,"time_elapsed":11245,"internal_node_id":"0.0-0.0"},{"success":true,"trial_type":"fullscreen","trial_index":1,"time_elapsed":16569,"internal_node_id":"0.0-1.0"},{"rt":88201.00000000093,"responses":"{\"Nombres\":\"Victoria Margarita\",\"Apellidos\":\"Bórquez Ibáñez\",\"Edad\":\"19\",\"Sexo\":\"mujer\",\"Curso\":\"psicología\",\"Colegio\":\"UNAB\",\"Contacto\":\"victoriaaborquez98@gmail.com\"}","trial_type":"survey-text","trial_index":2,"time_elapsed":104776,"internal_node_id":"0.0-2.0"},{"success":true,"timeout":false,"failed_images":[],"failed_audio":[],"failed_video":[],"trial_type":"preload","trial_index":3,"time_elapsed":106624,"internal_node_id":"0.0-3.0"},{"rt":16499.550000065938,"stimulus":"<h1 style:\"margin-top: 5%;\">Ejercicios de Comprensión de Lectura de la Universidad de Chile</h1><p style=\"font-size: 120%;\">En esta actividad, debes responder 30 preguntas de selección múltiple. Cada pregunta presenta 3 respuestas alternativas, pero sólo una de ellas es correcta. Por lo tanto, debes escoger una sola alternativa para cada pregunta. Además, debes reportar qué tan seguro(a) estás de la respuesta que das, con un:</p><ol style=\"font-size: 120%;text-align:left;margin-left: 40%;\"><li>No estoy seguro(a) para nada</li><li>No estoy muy seguro(a)</li><li>Estoy bastante seguro(a)</li><li>Estoy totalmente seguro(a)</li></ol><p style=\"font-size: 120%;\">Por favor lee bien los enunciados antes de responder. ¡Éxito!</p>","response":0,"trial_type":"html-button-response","trial_index":4,"time_elapsed":123128,"internal_node_id":"0.0-4.0"},{"rt":46524.665000033565,"responses":"{\"pregunta21\":\"b) el uranio es el elemento natural con el mayor número de protones en el núcleo. \"}","question_order":"[0]","trial_type":"survey-multi-choice","trial_index":5,"time_elapsed":169655,"internal_node_id":"0.0-5.0-0.0"},{"rt":3876.600000075996,"response":{"pregunta21 likert":1},"question_order":[0],"trial_type":"survey-likert","trial_index":6,"time_elapsed":173536,"internal_node_id":"0.0-5.0-1.0"},{"rt":64375.039999955334,"responses":"{\"pregunta4\":\"a) En la literatura como en la vida, lo importante son las preguntas. \"}","question_order":"[0]","trial_type":"survey-multi-choice","trial_index":7,"time_elapsed":237921,"internal_node_id":"0.0-5.0-2.0"},{"rt":3153.829999966547,"response":{"pregunta4 likert":2},"question_order":[0],"trial_type":"survey-likert","trial_index":8,"time_elapsed":241078,"internal_node_id":"0.0-5.0-3.0"},{"rt":52843.635000055656,"responses":"{\"pregunta24\":\"c) El receptor es habitualmente pasivo frente a la publicidad. \"}","question_order":"[0]","trial_type":"survey-multi-choice","trial_index":9,"time_elapsed":293925,"internal_node_id":"0.0-5.0-4.0"},{"rt":7217.410000041127,"response":{"pregunta24 likert":2},"question_order":[0],"trial_type":"survey-likert","trial_index":10,"time_elapsed":301140,"internal_node_id":"0.0-5.0-5.0"},{"rt":53909.18999991845,"responses":"{\"pregunta18\":\"c) A la inutilidad de tanto esfuerzo si el objetivo es el reposo. \"}","question_order":"[0]","trial_type":"survey-multi-choice","trial_index":11,"time_elapsed":355052,"internal_node_id":"0.0-5.0-6.0"},{"rt":3081.8250000011176,"response":{"pregunta18 likert":2},"question_order":[0],"trial_type":"survey-likert","trial_index":12,"time_elapsed":358136,"internal_node_id":"0.0-5.0-7.0"},{"rt":58694.89499996416,"responses":"{\"pregunta7\":\"b) Si desaparecieran el papel y la imprenta, se produciría un gran retraso en nuestra civilización. \"}","question_order":"[0]","trial_type":"survey-multi-choice","trial_index":13,"time_elapsed":416836,"internal_node_id":"0.0-5.0-8.0"},{"rt":3300.6700000260025,"response":{"pregunta7 likert":1},"question_order":[0],"trial_type":"survey-likert","trial_index":14,"time_elapsed":420136,"internal_node_id":"0.0-5.0-9.0"},{"rt":59911.075000069104,"responses":"{\"pregunta2\":\"c) A la relación entre sociedad y constitución social. \"}","question_order":"[0]","trial_type":"survey-multi-choice","trial_index":15,"time_elapsed":480054,"internal_node_id":"0.0-5.0-10.0"},{"rt":2697.8799999924377,"response":{"pregunta2 likert":1},"question_order":[0],"trial_type":"survey-likert","trial_index":16,"time_elapsed":482754,"internal_node_id":"0.0-5.0-11.0"},{"rt":49016.09500008635,"responses":"{\"pregunta5\":\"a) Los momentos triviales de los viajes, en la escritura se vuelven significativos. \"}","question_order":"[0]","trial_type":"survey-multi-choice","trial_index":17,"time_elapsed":531774,"internal_node_id":"0.0-5.0-12.0"},{"rt":3961.7099999450147,"response":{"pregunta5 likert":3},"question_order":[0],"trial_type":"survey-likert","trial_index":18,"time_elapsed":535738,"internal_node_id":"0.0-5.0-13.0"},{"rt":59008.48499999847,"responses":"{\"pregunta26\":\"c) el hombre excesivo es inmoral. \"}","question_order":"[0]","trial_type":"survey-multi-choice","trial_index":19,"time_elapsed":594751,"internal_node_id":"0.0-5.0-14.0"},{"rt":3586.6099999984726,"response":{"pregunta26 likert":0},"question_order":[0],"trial_type":"survey-likert","trial_index":20,"time_elapsed":598341,"internal_node_id":"0.0-5.0-15.0"},{"rt":54705.569999990985,"responses":"{\"pregunta20\":\"a) el mejor emperador es el que está muerto. \"}","question_order":"[0]","trial_type":"survey-multi-choice","trial_index":21,"time_elapsed":653049,"internal_node_id":"0.0-5.0-16.0"},{"rt":1708.890000008978,"response":{"pregunta20 likert":0},"question_order":[0],"trial_type":"survey-likert","trial_index":22,"time_elapsed":654760,"internal_node_id":"0.0-5.0-17.0"},{"rt":24379.270000034012,"responses":"{\"pregunta30\":\"a) la muerte es distinta en las grandes ciudades. \"}","question_order":"[0]","trial_type":"survey-multi-choice","trial_index":23,"time_elapsed":679145,"internal_node_id":"0.0-5.0-18.0"},{"rt":2662.6199999591336,"response":{"pregunta30 likert":1},"question_order":[0],"trial_type":"survey-likert","trial_index":24,"time_elapsed":681810,"internal_node_id":"0.0-5.0-19.0"},{"rt":46508.090000017546,"responses":"{\"pregunta15\":\"b) ritualistas y obsesivos. \"}","question_order":"[0]","trial_type":"survey-multi-choice","trial_index":25,"time_elapsed":728321,"internal_node_id":"0.0-5.0-20.0"},{"rt":3344.5049999281764,"response":{"pregunta15 likert":1},"question_order":[0],"trial_type":"survey-likert","trial_index":26,"time_elapsed":731668,"internal_node_id":"0.0-5.0-21.0"},{"rt":47157.775000086986,"responses":"{\"pregunta10\":\"a) La biónica es una disciplina que aprovecha las condiciones del entorno. \"}","question_order":"[0]","trial_type":"survey-multi-choice","trial_index":27,"time_elapsed":778823,"internal_node_id":"0.0-5.0-22.0"},{"rt":4197.855000034906,"response":{"pregunta10 likert":2},"question_order":[0],"trial_type":"survey-likert","trial_index":28,"time_elapsed":783024,"internal_node_id":"0.0-5.0-23.0"},{"rt":28719.64000002481,"responses":"{\"pregunta22\":\"c) Bomberos debería tener acceso a un seguro médico, al que pueda recurrir en caso de accidente. \"}","question_order":"[0]","trial_type":"survey-multi-choice","trial_index":29,"time_elapsed":811748,"internal_node_id":"0.0-5.0-24.0"},{"rt":3041.869999957271,"response":{"pregunta22 likert":3},"question_order":[0],"trial_type":"survey-likert","trial_index":30,"time_elapsed":814793,"internal_node_id":"0.0-5.0-25.0"},{"rt":65342.20999991521,"responses":"{\"pregunta11\":\"b) Promover la asistencia a un evento específico de decoración a través de una atractiva descripción. \"}","question_order":"[0]","trial_type":"survey-multi-choice","trial_index":31,"time_elapsed":880140,"internal_node_id":"0.0-5.0-26.0"},{"rt":3742.4749999772757,"response":{"pregunta11 likert":2},"question_order":[0],"trial_type":"survey-likert","trial_index":32,"time_elapsed":883885,"internal_node_id":"0.0-5.0-27.0"},{"rt":44627.095000003465,"responses":"{\"pregunta13\":\"a) El ser humano se comporta de acuerdo con las circunstancias. \"}","question_order":"[0]","trial_type":"survey-multi-choice","trial_index":33,"time_elapsed":928509,"internal_node_id":"0.0-5.0-28.0"},{"rt":2507.880000048317,"response":{"pregunta13 likert":3},"question_order":[0],"trial_type":"survey-likert","trial_index":34,"time_elapsed":931019,"internal_node_id":"0.0-5.0-29.0"},{"rt":45200.91000001412,"responses":"{\"pregunta9\":\"a) deben ser capaces de mantenerse económicamente de la misma forma que los hombres. \"}","question_order":"[0]","trial_type":"survey-multi-choice","trial_index":35,"time_elapsed":976223,"internal_node_id":"0.0-5.0-30.0"},{"rt":3477.680000010878,"response":{"pregunta9 likert":2},"question_order":[0],"trial_type":"survey-likert","trial_index":36,"time_elapsed":979704,"internal_node_id":"0.0-5.0-31.0"},{"rt":42071.31499995012,"responses":"{\"pregunta3\":\"c) El inicio de la civilización china. \"}","question_order":"[0]","trial_type":"survey-multi-choice","trial_index":37,"time_elapsed":1021783,"internal_node_id":"0.0-5.0-32.0"},{"rt":3317.2499999636784,"response":{"pregunta3 likert":2},"question_order":[0],"trial_type":"survey-likert","trial_index":38,"time_elapsed":1025103,"internal_node_id":"0.0-5.0-33.0"},{"rt":47878.80500010215,"responses":"{\"pregunta19\":\"c) El hábito de la lectura y el progreso mantienen una relación inversamente proporcional. \"}","question_order":"[0]","trial_type":"survey-multi-choice","trial_index":39,"time_elapsed":1072984,"internal_node_id":"0.0-5.0-34.0"},{"rt":3681.6600000020117,"response":{"pregunta19 likert":2},"question_order":[0],"trial_type":"survey-likert","trial_index":40,"time_elapsed":1076668,"internal_node_id":"0.0-5.0-35.0"},{"rt":57193.95500002429,"responses":"{\"pregunta1\":\"a) Entregan una característica detallada del personaje, a través de la voz narrativa. \"}","question_order":"[0]","trial_type":"survey-multi-choice","trial_index":41,"time_elapsed":1133866,"internal_node_id":"0.0-5.0-36.0"},{"rt":3036.32000007201,"response":{"pregunta1 likert":1},"question_order":[0],"trial_type":"survey-likert","trial_index":42,"time_elapsed":1136906,"internal_node_id":"0.0-5.0-37.0"},{"rt":25960.614999989048,"responses":"{\"pregunta27\":\"b) Nuestra economía vivirá un proceso de ajuste a la nueva realidad. \"}","question_order":"[0]","trial_type":"survey-multi-choice","trial_index":43,"time_elapsed":1162870,"internal_node_id":"0.0-5.0-38.0"},{"rt":3342.8250000579283,"response":{"pregunta27 likert":2},"question_order":[0],"trial_type":"survey-likert","trial_index":44,"time_elapsed":1166215,"internal_node_id":"0.0-5.0-39.0"},{"rt":61103.384999907576,"responses":"{\"pregunta25\":\"b) llevan un control grupal de su embarazo. \"}","question_order":"[0]","trial_type":"survey-multi-choice","trial_index":45,"time_elapsed":1227318,"internal_node_id":"0.0-5.0-40.0"},{"rt":2485.160000040196,"response":{"pregunta25 likert":0},"question_order":[0],"trial_type":"survey-likert","trial_index":46,"time_elapsed":1229806,"internal_node_id":"0.0-5.0-41.0"},{"rt":69240.25499995332,"responses":"{\"pregunta6\":\"a) Las voces extranjeras viven una tensión entre la aceptación y el rechazo. \"}","question_order":"[0]","trial_type":"survey-multi-choice","trial_index":47,"time_elapsed":1299048,"internal_node_id":"0.0-5.0-42.0"},{"rt":4010.1449999492615,"response":{"pregunta6 likert":1},"question_order":[0],"trial_type":"survey-likert","trial_index":48,"time_elapsed":1303061,"internal_node_id":"0.0-5.0-43.0"},{"rt":52265.95999998972,"responses":"{\"pregunta17\":\"c) Homenajear a quienes murieron. \"}","question_order":"[0]","trial_type":"survey-multi-choice","trial_index":49,"time_elapsed":1355331,"internal_node_id":"0.0-5.0-44.0"},{"rt":2395.3749999636784,"response":{"pregunta17 likert":3},"question_order":[0],"trial_type":"survey-likert","trial_index":50,"time_elapsed":1357729,"internal_node_id":"0.0-5.0-45.0"},{"rt":38295.689999940805,"responses":"{\"pregunta28\":\"a) El derecho a informar y el derecho a la privacidad son inconciliables. \"}","question_order":"[0]","trial_type":"survey-multi-choice","trial_index":51,"time_elapsed":1396025,"internal_node_id":"0.0-5.0-46.0"},{"rt":2285.745000001043,"response":{"pregunta28 likert":3},"question_order":[0],"trial_type":"survey-likert","trial_index":52,"time_elapsed":1398314,"internal_node_id":"0.0-5.0-47.0"},{"rt":36547.36500000581,"responses":"{\"pregunta12\":\"c) se da como existente, y sólo se discute su relación con el cuerpo. \"}","question_order":"[0]","trial_type":"survey-multi-choice","trial_index":53,"time_elapsed":1434868,"internal_node_id":"0.0-5.0-48.0"},{"rt":1919.2400000756606,"response":{"pregunta12 likert":1},"question_order":[0],"trial_type":"survey-likert","trial_index":54,"time_elapsed":1436790,"internal_node_id":"0.0-5.0-49.0"},{"rt":38091.9850000646,"responses":"{\"pregunta16\":\"a) Provocar el deseo de la adquisición vertiginosa. \"}","question_order":"[0]","trial_type":"survey-multi-choice","trial_index":55,"time_elapsed":1474884,"internal_node_id":"0.0-5.0-50.0"},{"rt":2409.0699999360368,"response":{"pregunta16 likert":1},"question_order":[0],"trial_type":"survey-likert","trial_index":56,"time_elapsed":1477298,"internal_node_id":"0.0-5.0-51.0"},{"rt":27511.459999950603,"responses":"{\"pregunta8\":\"a) Dar a conocer al ganador del premio Cervantes. \"}","question_order":"[0]","trial_type":"survey-multi-choice","trial_index":57,"time_elapsed":1504813,"internal_node_id":"0.0-5.0-52.0"},{"rt":5216.405000071973,"response":{"pregunta8 likert":1},"question_order":[0],"trial_type":"survey-likert","trial_index":58,"time_elapsed":1510032,"internal_node_id":"0.0-5.0-53.0"},{"rt":31283.885000040755,"responses":"{\"pregunta29\":\"a) el jardinero estará muerto al día siguiente. \"}","question_order":"[0]","trial_type":"survey-multi-choice","trial_index":59,"time_elapsed":1541318,"internal_node_id":"0.0-5.0-54.0"},{"rt":2863.8799999607727,"response":{"pregunta29 likert":2},"question_order":[0],"trial_type":"survey-likert","trial_index":60,"time_elapsed":1544185,"internal_node_id":"0.0-5.0-55.0"},{"rt":56820.440000039525,"responses":"{\"pregunta23\":\"a) A la influencia de grupos que rechazaban su música. \"}","question_order":"[0]","trial_type":"survey-multi-choice","trial_index":61,"time_elapsed":1601002,"internal_node_id":"0.0-5.0-56.0"},{"rt":8582.874999963678,"response":{"pregunta23 likert":2},"question_order":[0],"trial_type":"survey-likert","trial_index":62,"time_elapsed":1609587,"internal_node_id":"0.0-5.0-57.0"},{"rt":26292.574999970384,"responses":"{\"pregunta14\":\"c) la persistencia de la melancolía y la desesperanza. \"}","question_order":"[0]","trial_type":"survey-multi-choice","trial_index":63,"time_elapsed":1635883,"internal_node_id":"0.0-5.0-58.0"},{"rt":4057.2549999924377,"response":{"pregunta14 likert":2},"question_order":[0],"trial_type":"survey-likert","trial_index":64,"time_elapsed":1639943,"internal_node_id":"0.0-5.0-59.0"},{"rt":1567.395000020042,"stimulus":"<p style=\"font-size: 120%\">Gracias por completar esta etapa del estudio. Ahora te invitamos a responder el cuestionario.<br><br></p>","response":0,"trial_type":"html-button-response","trial_index":65,"time_elapsed":1641518,"internal_node_id":"0.0-6.0"},{"rt":16826.314999954775,"stimulus":"<h1 style=\"margin-top: 5%\">Cuestionario para la Evaluación de Metas Académicas</h1><p style=\"font-size: 120%; margin-left: 3%; margin-top: 5%\">Este es un cuestionario que permite conocer cuáles son los principales motivos por los que los estudiantes se esfuerzan en su trabajo académico. A continuación, se te presentarán una serie de afirmaciones acerca de los motivos que puedes tener para estudiar.<br>Te pedimos que contestes a dichas afirmaciones reflexionando sobre el contenido de cada una de ellas, que, aunque te parezcan semejantes, en realidad, no lo son.<br>NO HAY RESPUESTAS CORRECTAS o INCORRECTAS, sólo queremos que respondas con la mayor precisión y sinceridad posible a las preguntas que se plantean.","response":0,"trial_type":"html-button-response","trial_index":66,"time_elapsed":1658346,"internal_node_id":"0.0-7.0"},{"rt":106486.22500000056,"response":{"Metas cuestionario pregunta1":2,"Metas cuestionario pregunta2":3,"Metas cuestionario pregunta3":3,"Metas cuestionario pregunta4":2,"Metas cuestionario pregunta5":4,"Metas cuestionario pregunta6":3,"Metas cuestionario pregunta7":3,"Metas cuestionario pregunta8":4,"Metas cuestionario pregunta9":2,"Metas cuestionario pregunta10":1,"Metas cuestionario pregunta11":0,"Metas cuestionario pregunta12":2,"Metas cuestionario pregunta13":2,"Metas cuestionario pregunta14":1,"Metas cuestionario pregunta15":4,"Metas cuestionario pregunta16":3,"Metas cuestionario pregunta17":4,"Metas cuestionario pregunta18":4,"Metas cuestionario pregunta19":4,"Metas cuestionario pregunta20":4},"question_order":[0,1,2,3,4,5,6,7,8,9,10,11,12,13,14,15,16,17,18,19],"trial_type":"survey-likert","trial_index":67,"time_elapsed":1764844,"internal_node_id":"0.0-8.0"},{"rt":1694.1550000337884,"stimulus":"<p style=\"font-size: 120%\">Gracias por responder el cuestionario. Ahora te invitamos a seguir con el juego, que es muy breve.<br><br></p>","response":0,"trial_type":"html-button-response","trial_index":68,"time_elapsed":1766544,"internal_node_id":"0.0-9.0"},{"rt":5539.549999986775,"stimulus":"<h1>Juego</h1><p style=\"font-size: 120%;\">A continuación se te presentarán 16 pequeñas historias.<br>Por favor lee el texto presentado en cada una de ellas y luego haz click en el objeto de tu elección.<br>Si estás listo(a),<span style=\"color:red;\"> haz click en \"comenzar\"</span>.</p>","response":0,"trial_type":"html-button-response","trial_index":69,"time_elapsed":1772086,"internal_node_id":"0.0-10.0"},{"rt":4302.294999943115,"grid":[[1],[1],[1]],"target":[0,2],"response":[1,0],"correct":false,"juego":4,"trial_type":"serial-reaction-time-mouse","trial_index":70,"time_elapsed":1776391,"internal_node_id":"0.0-11.0-0.0"},{"rt":13106.35999997612,"grid":[[1],[1],[1],[1],[1],[1]],"target":[0,0],"response":[0,0],"correct":true,"juego":5,"trial_type":"serial-reaction-time-mouse","trial_index":71,"time_elapsed":1789499,"internal_node_id":"0.0-11.0-1.0"},{"rt":5715.429999982007,"grid":[[1,1,1]],"target":[0,2],"response":[0,2],"correct":true,"juego":7,"trial_type":"serial-reaction-time-mouse","trial_index":72,"time_elapsed":1795217,"internal_node_id":"0.0-11.0-2.0"},{"rt":10586.800000048243,"grid":[[1,1,1],[1,1,1],[1,1,1]],"target":[0,0],"response":[1,2],"correct":false,"juego":10,"trial_type":"serial-reaction-time-mouse","trial_index":73,"time_elapsed":1805808,"internal_node_id":"0.0-11.0-3.0"},{"rt":10532.099999953061,"grid":[[1,1],[1,1],[1,1],[1,1],[1,1],[1,1],[1,1]],"target":[0,0],"response":[5,1],"correct":false,"juego":15,"trial_type":"serial-reaction-time-mouse","trial_index":74,"time_elapsed":1816343,"internal_node_id":"0.0-11.0-4.0"},{"rt":7142.954999930225,"grid":[[1,1,1]],"target":[0,0],"response":[0,0],"correct":true,"juego":9,"trial_type":"serial-reaction-time-mouse","trial_index":75,"time_elapsed":1823489,"internal_node_id":"0.0-11.0-5.0"},{"rt":2924.005000037141,"grid":[[1,1,1]],"target":[0,2],"response":[0,2],"correct":true,"juego":1,"trial_type":"serial-reaction-time-mouse","trial_index":76,"time_elapsed":1826416,"internal_node_id":"0.0-11.0-6.0"},{"rt":9121.574999997392,"grid":[[1,1,1]],"target":[0,0],"response":[0,1],"correct":false,"juego":12,"trial_type":"serial-reaction-time-mouse","trial_index":77,"time_elapsed":1835540,"internal_node_id":"0.0-11.0-7.0"},{"rt":3971.849999972619,"grid":[[1,1,1]],"target":[0,2],"response":[0,2],"correct":true,"juego":2,"trial_type":"serial-reaction-time-mouse","trial_index":78,"time_elapsed":1839515,"internal_node_id":"0.0-11.0-8.0"},{"rt":5863.320000004023,"grid":[[1,1],[1,1],[1,1],[1,1],[1,1],[1,1],[1,1]],"target":[0,0],"response":[3,1],"correct":false,"juego":14,"trial_type":"serial-reaction-time-mouse","trial_index":79,"time_elapsed":1845382,"internal_node_id":"0.0-11.0-9.0"},{"rt":3028.4199999878183,"grid":[[1,1,1],[1,1,1],[1,1,1],[1,1,1],[1,1,1],[1,1,1],[1,1,1]],"target":[0,0],"response":[1,1],"correct":false,"juego":6,"trial_type":"serial-reaction-time-mouse","trial_index":80,"time_elapsed":1848415,"internal_node_id":"0.0-11.0-10.0"},{"rt":7356.565000023693,"grid":[[1,1,1],[1,1,1],[1,1,1],[1,1,1],[1,1,1],[1,1,1],[1,1,1]],"target":[0,0],"response":[5,1],"correct":false,"juego":13,"trial_type":"serial-reaction-time-mouse","trial_index":81,"time_elapsed":1855776,"internal_node_id":"0.0-11.0-11.0"},{"rt":1698.1500000692904,"grid":[[1,1,1]],"target":[0,2],"response":[0,1],"correct":false,"juego":3,"trial_type":"serial-reaction-time-mouse","trial_index":82,"time_elapsed":1857476,"internal_node_id":"0.0-11.0-12.0"},{"rt":8756.610000040382,"grid":[[1,1,1]],"target":[0,0],"response":[0,1],"correct":false,"juego":11,"trial_type":"serial-reaction-time-mouse","trial_index":83,"time_elapsed":1866235,"internal_node_id":"0.0-11.0-13.0"},{"rt":5074.61000001058,"grid":[[1,1,1]],"target":[0,2],"response":[0,2],"correct":true,"juego":8,"trial_type":"serial-reaction-time-mouse","trial_index":84,"time_elapsed":1871312,"internal_node_id":"0.0-11.0-14.0"}]