[{"rt":19149241.249999963,"stimulus":"<h1 style=\"color:red; margin-top: 3%;\">¡Bienvenido(a)!</h1><p style=\"text-align:left; justify-content:space-between; margin-right: 5%; margin-left: 5%; margin-top: 5%\"> Antes de empezar el estudio, necesitamos que nos confirmes que estás de acuerdo con participar. Recuerda que tu participación es 100% voluntaria y que lo único que te pedimos es responder lo mejor que puedas. Recuerda también que el estudio incluye:</p><ol style=\"text-align:left; justify-content:space-between; margin-right: 5%; margin-left: 5%;\"><li> un ejercicio de resolución de preguntas de selección múltiple (30’),</li><li>un cuestionario breve (5’),</li><li>un juego muy breve (3’),</li></ol><p style=\"text-align:left; justify-content:space-between; margin-right: 5%; margin-left: 5%;\">Si quieres participar, haz clic en “Acepto” luego de leer lo siguiente:<br></p><p style=\"text-align:left; justify-content:space-between; margin-right: 5%; margin-left: 5%;\">Acepto participar en el estudio “Estrategias de lectura y resolución de preguntas de selección múltiple”, en los términos aquí señalados:<br></p><p style=\"text-align:left; justify-content:space-between; margin-right: 5%; margin-left: 5%;\"><a href=\"http://ciae.uchile.cl/download.php?file=noticias/Asentimiento.pdf\" target=\"_blank\">Link a la hoja de información del Consentimiento.</a></p><p style=\"text-align:left; justify-content:space-between; margin-right: 5%; margin-left: 5%;\">Declaro que he leído (o se me ha leído) y (he) comprendido, las condiciones de mi participación en este estudio. He tenido la oportunidad de hacer preguntas y éstas han sido respondidas. No tengo dudas al respecto.</p>","response":0,"condicion_MCQ":5,"condicion_INTER":17,"numero_participante":17,"numero_version":2,"dimx":1280,"dimy":720,"color_profundidad":24,"pixel_profundidad":24,"Browser":"Google Chrome","trial_type":"html-button-response","trial_index":0,"time_elapsed":19149244,"internal_node_id":"0.0-0.0"},{"success":true,"trial_type":"fullscreen","trial_index":1,"time_elapsed":19172843,"internal_node_id":"0.0-1.0"},{"rt":170823.6350000389,"responses":"{\"Nombres\":\"Lorena Catalina\",\"Apellidos\":\"Montano Salinas \",\"Edad\":\"18\",\"Sexo\":\"mujer \",\"Curso\":\"diurno\",\"Colegio\":\"universidad Andrés Bello\",\"Contacto\":\"catalina.montano0684@gmail.com\"}","trial_type":"survey-text","trial_index":2,"time_elapsed":19343676,"internal_node_id":"0.0-2.0"},{"success":true,"timeout":false,"failed_images":[],"failed_audio":[],"failed_video":[],"trial_type":"preload","trial_index":3,"time_elapsed":19351981,"internal_node_id":"0.0-3.0"},{"rt":25680.21000001952,"stimulus":"<h1 style:\"margin-top: 5%;\">Ejercicios de Comprensión de Lectura de la Universidad de Chile</h1><p style=\"font-size: 120%;\">En esta actividad, debes responder 30 preguntas de selección múltiple. Cada pregunta presenta 3 respuestas alternativas, pero sólo una de ellas es correcta. Por lo tanto, debes escoger una sola alternativa para cada pregunta. Además, debes reportar qué tan seguro(a) estás de la respuesta que das, con un:</p><ol style=\"font-size: 120%;text-align:left;margin-left: 40%;\"><li>No estoy seguro(a) para nada</li><li>No estoy muy seguro(a)</li><li>Estoy bastante seguro(a)</li><li>Estoy totalmente seguro(a)</li></ol><p style=\"font-size: 120%;\">Por favor lee bien los enunciados antes de responder. ¡Éxito!</p>","response":0,"trial_type":"html-button-response","trial_index":4,"time_elapsed":19377663,"internal_node_id":"0.0-4.0"},{"rt":184234.49999990314,"responses":"{\"pregunta26\":\"b) para Aristóteles la virtud estaba en el justo equilibrio. \"}","question_order":"[0]","trial_type":"survey-multi-choice","trial_index":5,"time_elapsed":19561899,"internal_node_id":"0.0-5.0-0.0"},{"rt":5663.884999930859,"response":{"pregunta26 likert":1},"question_order":[0],"trial_type":"survey-likert","trial_index":6,"time_elapsed":19567564,"internal_node_id":"0.0-5.0-1.0"},{"rt":34962.36000000313,"responses":"{\"pregunta27\":\"a) El TLC causará una completa transformación de la economía chilena. \"}","question_order":"[0]","trial_type":"survey-multi-choice","trial_index":7,"time_elapsed":19602527,"internal_node_id":"0.0-5.0-2.0"},{"rt":3403.625000037253,"response":{"pregunta27 likert":3},"question_order":[0],"trial_type":"survey-likert","trial_index":8,"time_elapsed":19605932,"internal_node_id":"0.0-5.0-3.0"},{"rt":45690.79999998212,"responses":"{\"pregunta30\":\"b) para el mexicano, la muerte es cotidiana. \"}","question_order":"[0]","trial_type":"survey-multi-choice","trial_index":9,"time_elapsed":19651624,"internal_node_id":"0.0-5.0-4.0"},{"rt":2421.9149999544024,"response":{"pregunta30 likert":3},"question_order":[0],"trial_type":"survey-likert","trial_index":10,"time_elapsed":19654047,"internal_node_id":"0.0-5.0-5.0"},{"rt":110824.49499995261,"responses":"{\"pregunta21\":\"b) el uranio es el elemento natural con el mayor número de protones en el núcleo. \"}","question_order":"[0]","trial_type":"survey-multi-choice","trial_index":11,"time_elapsed":19764872,"internal_node_id":"0.0-5.0-6.0"},{"rt":10592.365000050515,"response":{"pregunta21 likert":2},"question_order":[0],"trial_type":"survey-likert","trial_index":12,"time_elapsed":19775466,"internal_node_id":"0.0-5.0-7.0"},{"rt":62940.6799999997,"responses":"{\"pregunta29\":\"a) el jardinero estará muerto al día siguiente. \"}","question_order":"[0]","trial_type":"survey-multi-choice","trial_index":13,"time_elapsed":19838408,"internal_node_id":"0.0-5.0-8.0"},{"rt":2046.5799999646842,"response":{"pregunta29 likert":3},"question_order":[0],"trial_type":"survey-likert","trial_index":14,"time_elapsed":19840456,"internal_node_id":"0.0-5.0-9.0"},{"rt":91851.36500000954,"responses":"{\"pregunta12\":\"c) se da como existente, y sólo se discute su relación con el cuerpo. \"}","question_order":"[0]","trial_type":"survey-multi-choice","trial_index":15,"time_elapsed":19932309,"internal_node_id":"0.0-5.0-10.0"},{"rt":2855.229999985546,"response":{"pregunta12 likert":0},"question_order":[0],"trial_type":"survey-likert","trial_index":16,"time_elapsed":19935165,"internal_node_id":"0.0-5.0-11.0"},{"rt":56016.58499997482,"responses":"{\"pregunta11\":\"b) Promover la asistencia a un evento específico de decoración a través de una atractiva descripción. \"}","question_order":"[0]","trial_type":"survey-multi-choice","trial_index":17,"time_elapsed":19991183,"internal_node_id":"0.0-5.0-12.0"},{"rt":3187.154999934137,"response":{"pregunta11 likert":0},"question_order":[0],"trial_type":"survey-likert","trial_index":18,"time_elapsed":19994371,"internal_node_id":"0.0-5.0-13.0"},{"rt":68378.95499996096,"responses":"{\"pregunta20\":\"a) el mejor emperador es el que está muerto. \"}","question_order":"[0]","trial_type":"survey-multi-choice","trial_index":19,"time_elapsed":20062751,"internal_node_id":"0.0-5.0-14.0"},{"rt":3463.2149999961257,"response":{"pregunta20 likert":2},"question_order":[0],"trial_type":"survey-likert","trial_index":20,"time_elapsed":20066216,"internal_node_id":"0.0-5.0-15.0"},{"rt":98478.00999996066,"responses":"{\"pregunta17\":\"c) Homenajear a quienes murieron. \"}","question_order":"[0]","trial_type":"survey-multi-choice","trial_index":21,"time_elapsed":20164695,"internal_node_id":"0.0-5.0-16.0"},{"rt":4936.580000095069,"response":{"pregunta17 likert":1},"question_order":[0],"trial_type":"survey-likert","trial_index":22,"time_elapsed":20169632,"internal_node_id":"0.0-5.0-17.0"},{"rt":368807.6249998994,"responses":"{\"pregunta9\":\"b) pueden rendir exámenes para optar y obtener títulos profesionales igual que los hombres. \"}","question_order":"[0]","trial_type":"survey-multi-choice","trial_index":23,"time_elapsed":20538441,"internal_node_id":"0.0-5.0-18.0"},{"rt":3529.3949999623,"response":{"pregunta9 likert":2},"question_order":[0],"trial_type":"survey-likert","trial_index":24,"time_elapsed":20541971,"internal_node_id":"0.0-5.0-19.0"},{"rt":183144.80999996886,"responses":"{\"pregunta3\":\"c) El inicio de la civilización china. \"}","question_order":"[0]","trial_type":"survey-multi-choice","trial_index":25,"time_elapsed":20725117,"internal_node_id":"0.0-5.0-20.0"},{"rt":2347.045000061393,"response":{"pregunta3 likert":3},"question_order":[0],"trial_type":"survey-likert","trial_index":26,"time_elapsed":20727466,"internal_node_id":"0.0-5.0-21.0"},{"rt":92540.70000001416,"responses":"{\"pregunta23\":\"a) A la influencia de grupos que rechazaban su música. \"}","question_order":"[0]","trial_type":"survey-multi-choice","trial_index":27,"time_elapsed":20820008,"internal_node_id":"0.0-5.0-22.0"},{"rt":5315.18000003323,"response":{"pregunta23 likert":3},"question_order":[0],"trial_type":"survey-likert","trial_index":28,"time_elapsed":20825324,"internal_node_id":"0.0-5.0-23.0"},{"rt":168093.07499998063,"responses":"{\"pregunta8\":\"b) Comparar a Cervantes con Quevedo. \"}","question_order":"[0]","trial_type":"survey-multi-choice","trial_index":29,"time_elapsed":20993418,"internal_node_id":"0.0-5.0-24.0"},{"rt":2438.7750000432134,"response":{"pregunta8 likert":0},"question_order":[0],"trial_type":"survey-likert","trial_index":30,"time_elapsed":20995858,"internal_node_id":"0.0-5.0-25.0"},{"rt":196023.82500004023,"responses":"{\"pregunta25\":\"c) sufren dolores de espalda. \"}","question_order":"[0]","trial_type":"survey-multi-choice","trial_index":31,"time_elapsed":21191884,"internal_node_id":"0.0-5.0-26.0"},{"rt":3029.0100000575185,"response":{"pregunta25 likert":1},"question_order":[0],"trial_type":"survey-likert","trial_index":32,"time_elapsed":21194914,"internal_node_id":"0.0-5.0-27.0"},{"rt":73964.62500002235,"responses":"{\"pregunta28\":\"c) Se necesita un marco legal para delimitar lo público y lo privado en materia informativa. \"}","question_order":"[0]","trial_type":"survey-multi-choice","trial_index":33,"time_elapsed":21268879,"internal_node_id":"0.0-5.0-28.0"},{"rt":2687.7199999280274,"response":{"pregunta28 likert":3},"question_order":[0],"trial_type":"survey-likert","trial_index":34,"time_elapsed":21271567,"internal_node_id":"0.0-5.0-29.0"},{"rt":63917.2699999772,"responses":"{\"pregunta16\":\"a) Provocar el deseo de la adquisición vertiginosa. \"}","question_order":"[0]","trial_type":"survey-multi-choice","trial_index":35,"time_elapsed":21335486,"internal_node_id":"0.0-5.0-30.0"},{"rt":1732.8999999426305,"response":{"pregunta16 likert":3},"question_order":[0],"trial_type":"survey-likert","trial_index":36,"time_elapsed":21337220,"internal_node_id":"0.0-5.0-31.0"},{"rt":11546.615000002086,"responses":"{\"pregunta6\":\"a) Las voces extranjeras viven una tensión entre la aceptación y el rechazo. \"}","question_order":"[0]","trial_type":"survey-multi-choice","trial_index":37,"time_elapsed":21348768,"internal_node_id":"0.0-5.0-32.0"},{"rt":2037.2249999791384,"response":{"pregunta6 likert":0},"question_order":[0],"trial_type":"survey-likert","trial_index":38,"time_elapsed":21350806,"internal_node_id":"0.0-5.0-33.0"},{"rt":68333.4099999629,"responses":"{\"pregunta24\":\"c) El receptor es habitualmente pasivo frente a la publicidad. \"}","question_order":"[0]","trial_type":"survey-multi-choice","trial_index":39,"time_elapsed":21419140,"internal_node_id":"0.0-5.0-34.0"},{"rt":2173.554999984801,"response":{"pregunta24 likert":3},"question_order":[0],"trial_type":"survey-likert","trial_index":40,"time_elapsed":21421315,"internal_node_id":"0.0-5.0-35.0"},{"rt":68363.72000002116,"responses":"{\"pregunta19\":\"a) Las personas que leen son más flexibles en sus ideas y autónomas en su accionar. \"}","question_order":"[0]","trial_type":"survey-multi-choice","trial_index":41,"time_elapsed":21489680,"internal_node_id":"0.0-5.0-36.0"},{"rt":1754.6600000932813,"response":{"pregunta19 likert":3},"question_order":[0],"trial_type":"survey-likert","trial_index":42,"time_elapsed":21491435,"internal_node_id":"0.0-5.0-37.0"},{"rt":90907.36999991164,"responses":"{\"pregunta13\":\"a) El ser humano se comporta de acuerdo con las circunstancias. \"}","question_order":"[0]","trial_type":"survey-multi-choice","trial_index":43,"time_elapsed":21582344,"internal_node_id":"0.0-5.0-38.0"},{"rt":1951.615000024438,"response":{"pregunta13 likert":1},"question_order":[0],"trial_type":"survey-likert","trial_index":44,"time_elapsed":21584297,"internal_node_id":"0.0-5.0-39.0"},{"rt":80971.91000007838,"responses":"{\"pregunta4\":\"a) En la literatura como en la vida, lo importante son las preguntas. \"}","question_order":"[0]","trial_type":"survey-multi-choice","trial_index":45,"time_elapsed":21665270,"internal_node_id":"0.0-5.0-40.0"},{"rt":2822.6400000303984,"response":{"pregunta4 likert":1},"question_order":[0],"trial_type":"survey-likert","trial_index":46,"time_elapsed":21668093,"internal_node_id":"0.0-5.0-41.0"},{"rt":41826.385000020266,"responses":"{\"pregunta18\":\"a) Al deseo de privilegiar el ocio por sobre el trabajo. \"}","question_order":"[0]","trial_type":"survey-multi-choice","trial_index":47,"time_elapsed":21709921,"internal_node_id":"0.0-5.0-42.0"},{"rt":3180.9999999813735,"response":{"pregunta18 likert":3},"question_order":[0],"trial_type":"survey-likert","trial_index":48,"time_elapsed":21713103,"internal_node_id":"0.0-5.0-43.0"},{"rt":66237.07000003383,"responses":"{\"pregunta1\":\"c) Aportan informaciones con las que se reconstruye el personaje dentro de un relato. \"}","question_order":"[0]","trial_type":"survey-multi-choice","trial_index":49,"time_elapsed":21779340,"internal_node_id":"0.0-5.0-44.0"},{"rt":2218.929999973625,"response":{"pregunta1 likert":1},"question_order":[0],"trial_type":"survey-likert","trial_index":50,"time_elapsed":21781560,"internal_node_id":"0.0-5.0-45.0"},{"rt":46388.26000003517,"responses":"{\"pregunta22\":\"a) Se debe crear un seguro médico especial para esta institución, pues es de alto riesgo. \"}","question_order":"[0]","trial_type":"survey-multi-choice","trial_index":51,"time_elapsed":21827949,"internal_node_id":"0.0-5.0-46.0"},{"rt":4687.4450000450015,"response":{"pregunta22 likert":2},"question_order":[0],"trial_type":"survey-likert","trial_index":52,"time_elapsed":21832637,"internal_node_id":"0.0-5.0-47.0"},{"rt":45074.55499994382,"responses":"{\"pregunta15\":\"b) ritualistas y obsesivos. \"}","question_order":"[0]","trial_type":"survey-multi-choice","trial_index":53,"time_elapsed":21877713,"internal_node_id":"0.0-5.0-48.0"},{"rt":1941.5999999046326,"response":{"pregunta15 likert":0},"question_order":[0],"trial_type":"survey-likert","trial_index":54,"time_elapsed":21879656,"internal_node_id":"0.0-5.0-49.0"},{"rt":51373.49500006437,"responses":"{\"pregunta2\":\"c) A la relación entre sociedad y constitución social. \"}","question_order":"[0]","trial_type":"survey-multi-choice","trial_index":55,"time_elapsed":21931030,"internal_node_id":"0.0-5.0-50.0"},{"rt":3292.7749999798834,"response":{"pregunta2 likert":1},"question_order":[0],"trial_type":"survey-likert","trial_index":56,"time_elapsed":21934324,"internal_node_id":"0.0-5.0-51.0"},{"rt":8950.130000013858,"responses":"{\"pregunta14\":\"a) un recuerdo nostálgico. \"}","question_order":"[0]","trial_type":"survey-multi-choice","trial_index":57,"time_elapsed":21943275,"internal_node_id":"0.0-5.0-52.0"},{"rt":3399.2200000211596,"response":{"pregunta14 likert":1},"question_order":[0],"trial_type":"survey-likert","trial_index":58,"time_elapsed":21946676,"internal_node_id":"0.0-5.0-53.0"},{"rt":24722.424999929965,"responses":"{\"pregunta5\":\"c) La escritura plasma los mejores momentos de los viajes. \"}","question_order":"[0]","trial_type":"survey-multi-choice","trial_index":59,"time_elapsed":21971399,"internal_node_id":"0.0-5.0-54.0"},{"rt":23727.175000008196,"response":{"pregunta5 likert":1},"question_order":[0],"trial_type":"survey-likert","trial_index":60,"time_elapsed":21995128,"internal_node_id":"0.0-5.0-55.0"},{"rt":39364.259999942034,"responses":"{\"pregunta7\":\"c) La imprenta y el papel han permitido el desarrollo de la civilización y la conservación de su cultura, y ambos son inventos chinos. \"}","question_order":"[0]","trial_type":"survey-multi-choice","trial_index":61,"time_elapsed":22034493,"internal_node_id":"0.0-5.0-56.0"},{"rt":2970.934999987483,"response":{"pregunta7 likert":3},"question_order":[0],"trial_type":"survey-likert","trial_index":62,"time_elapsed":22037466,"internal_node_id":"0.0-5.0-57.0"},{"rt":22288.999999988824,"responses":"{\"pregunta10\":\"a) La biónica es una disciplina que aprovecha las condiciones del entorno. \"}","question_order":"[0]","trial_type":"survey-multi-choice","trial_index":63,"time_elapsed":22059755,"internal_node_id":"0.0-5.0-58.0"},{"rt":2719.1500000208616,"response":{"pregunta10 likert":2},"question_order":[0],"trial_type":"survey-likert","trial_index":64,"time_elapsed":22062476,"internal_node_id":"0.0-5.0-59.0"}]