[{"rt":163087.30000001192,"stimulus":"<h1 style=\"color:red; margin-top: 3%;\">¡Bienvenido(a)!</h1><p style=\"text-align:left; justify-content:space-between; margin-right: 5%; margin-left: 5%; margin-top: 5%\"> Antes de empezar el estudio, necesitamos que nos confirmes que estás de acuerdo con participar. Recuerda que tu participación es 100% voluntaria y que lo único que te pedimos es responder lo mejor que puedas. Recuerda también que el estudio incluye:</p><ol style=\"text-align:left; justify-content:space-between; margin-right: 5%; margin-left: 5%;\"><li> un ejercicio de resolución de preguntas de selección múltiple (30’),</li><li>un cuestionario breve (5’),</li><li>un juego muy breve (3’),</li></ol><p style=\"text-align:left; justify-content:space-between; margin-right: 5%; margin-left: 5%;\">Si quieres participar, haz clic en “Acepto” luego de leer lo siguiente:<br></p><p style=\"text-align:left; justify-content:space-between; margin-right: 5%; margin-left: 5%;\">Acepto participar en el estudio “Estrategias de lectura y resolución de preguntas de selección múltiple”, en los términos aquí señalados:<br></p><p style=\"text-align:left; justify-content:space-between; margin-right: 5%; margin-left: 5%;\"><a href=\"http://ciae.uchile.cl/download.php?file=noticias/Asentimiento.pdf\" target=\"_blank\">Link a la hoja de información del Consentimiento.</a></p><p style=\"text-align:left; justify-content:space-between; margin-right: 5%; margin-left: 5%;\">Declaro que he leído (o se me ha leído) y (he) comprendido, las condiciones de mi participación en este estudio. He tenido la oportunidad de hacer preguntas y éstas han sido respondidas. No tengo dudas al respecto.</p>","response":0,"condicion_MCQ":1,"condicion_INTER":13,"numero_participante":13,"numero_version":1,"dimx":1366,"dimy":768,"color_profundidad":24,"pixel_profundidad":24,"Browser":"Google Chrome","trial_type":"html-button-response","trial_index":0,"time_elapsed":163089,"internal_node_id":"0.0-0.0"},{"success":true,"trial_type":"fullscreen","trial_index":1,"time_elapsed":246335,"internal_node_id":"0.0-1.0"},{"rt":303758.700000003,"responses":"{\"Nombres\":\"Isidora Esperanza\",\"Apellidos\":\"Prado Loyola\",\"Edad\":\"18\",\"Sexo\":\"mujer\",\"Curso\":\"primer año- psicología\",\"Colegio\":\"Universidad  Andres Bello\",\"Contacto\":\"isidoraprado09@gmail.com\"}","trial_type":"survey-text","trial_index":2,"time_elapsed":550104,"internal_node_id":"0.0-2.0"},{"success":true,"timeout":false,"failed_images":[],"failed_audio":[],"failed_video":[],"trial_type":"preload","trial_index":3,"time_elapsed":550947,"internal_node_id":"0.0-3.0"},{"rt":21288.39999999106,"stimulus":"<h1 style:\"margin-top: 5%;\">Ejercicios de Comprensión de Lectura de la Universidad de Chile</h1><p style=\"font-size: 120%;\">En esta actividad, debes responder 30 preguntas de selección múltiple. Cada pregunta presenta 3 respuestas alternativas, pero sólo una de ellas es correcta. Por lo tanto, debes escoger una sola alternativa para cada pregunta. Además, debes reportar qué tan seguro(a) estás de la respuesta que das, con un:</p><ol style=\"font-size: 120%;text-align:left;margin-left: 40%;\"><li>No estoy seguro(a) para nada</li><li>No estoy muy seguro(a)</li><li>Estoy bastante seguro(a)</li><li>Estoy totalmente seguro(a)</li></ol><p style=\"font-size: 120%;\">Por favor lee bien los enunciados antes de responder. ¡Éxito!</p>","response":0,"trial_type":"html-button-response","trial_index":4,"time_elapsed":572236,"internal_node_id":"0.0-4.0"},{"rt":60648.20000000298,"responses":"{\"pregunta27\":\"a) Nuestra economía vivirá un proceso de ajuste a la nueva realidad. \"}","question_order":"[0]","trial_type":"survey-multi-choice","trial_index":5,"time_elapsed":632887,"internal_node_id":"0.0-5.0-0.0"},{"rt":4269.5,"response":{"pregunta27 likert":2},"question_order":[0],"trial_type":"survey-likert","trial_index":6,"time_elapsed":637159,"internal_node_id":"0.0-5.0-1.0"},{"rt":33866.89999999106,"responses":"{\"pregunta28\":\"b) Se necesita un marco legal para delimitar lo público y lo privado en materia informativa. \"}","question_order":"[0]","trial_type":"survey-multi-choice","trial_index":7,"time_elapsed":671028,"internal_node_id":"0.0-5.0-2.0"},{"rt":2076.2999999970198,"response":{"pregunta28 likert":3},"question_order":[0],"trial_type":"survey-likert","trial_index":8,"time_elapsed":673107,"internal_node_id":"0.0-5.0-3.0"},{"rt":56623.40000000596,"responses":"{\"pregunta5\":\"c) Los momentos triviales de los viajes, en la escritura se vuelven significativos. \"}","question_order":"[0]","trial_type":"survey-multi-choice","trial_index":9,"time_elapsed":729733,"internal_node_id":"0.0-5.0-4.0"},{"rt":5056.29999999702,"response":{"pregunta5 likert":2},"question_order":[0],"trial_type":"survey-likert","trial_index":10,"time_elapsed":734791,"internal_node_id":"0.0-5.0-5.0"},{"rt":67442.09999999404,"responses":"{\"pregunta30\":\"a) para el mexicano, la muerte es cotidiana. \"}","question_order":"[0]","trial_type":"survey-multi-choice","trial_index":11,"time_elapsed":802235,"internal_node_id":"0.0-5.0-6.0"},{"rt":3120,"response":{"pregunta30 likert":2},"question_order":[0],"trial_type":"survey-likert","trial_index":12,"time_elapsed":805356,"internal_node_id":"0.0-5.0-7.0"},{"rt":59192.90000000596,"responses":"{\"pregunta7\":\"b) La imprenta y el papel han permitido el desarrollo de la civilización y la conservación de su cultura, y ambos son inventos chinos. \"}","question_order":"[0]","trial_type":"survey-multi-choice","trial_index":13,"time_elapsed":864551,"internal_node_id":"0.0-5.0-8.0"},{"rt":3740.2999999970198,"response":{"pregunta7 likert":2},"question_order":[0],"trial_type":"survey-likert","trial_index":14,"time_elapsed":868293,"internal_node_id":"0.0-5.0-9.0"},{"rt":60315.29999999702,"responses":"{\"pregunta2\":\"a) A la relación entre pensamiento y estructura social. \"}","question_order":"[0]","trial_type":"survey-multi-choice","trial_index":15,"time_elapsed":928610,"internal_node_id":"0.0-5.0-10.0"},{"rt":2101.6000000089407,"response":{"pregunta2 likert":2},"question_order":[0],"trial_type":"survey-likert","trial_index":16,"time_elapsed":930713,"internal_node_id":"0.0-5.0-11.0"},{"rt":80708.29999999702,"responses":"{\"pregunta10\":\"a) La biónica es una disciplina que aprovecha las condiciones del entorno. \"}","question_order":"[0]","trial_type":"survey-multi-choice","trial_index":17,"time_elapsed":1011423,"internal_node_id":"0.0-5.0-12.0"},{"rt":2732.0999999940395,"response":{"pregunta10 likert":2},"question_order":[0],"trial_type":"survey-likert","trial_index":18,"time_elapsed":1014157,"internal_node_id":"0.0-5.0-13.0"},{"rt":64700,"responses":"{\"pregunta15\":\"a) ritualistas y obsesivos. \"}","question_order":"[0]","trial_type":"survey-multi-choice","trial_index":19,"time_elapsed":1078859,"internal_node_id":"0.0-5.0-14.0"},{"rt":2634.0999999940395,"response":{"pregunta15 likert":3},"question_order":[0],"trial_type":"survey-likert","trial_index":20,"time_elapsed":1081495,"internal_node_id":"0.0-5.0-15.0"},{"rt":32329.70000000298,"responses":"{\"pregunta1\":\"a) Entregan una característica detallada del personaje, a través de la voz narrativa. \"}","question_order":"[0]","trial_type":"survey-multi-choice","trial_index":21,"time_elapsed":1113827,"internal_node_id":"0.0-5.0-16.0"},{"rt":2076.199999988079,"response":{"pregunta1 likert":3},"question_order":[0],"trial_type":"survey-likert","trial_index":22,"time_elapsed":1115905,"internal_node_id":"0.0-5.0-17.0"},{"rt":113078.20000000298,"responses":"{\"pregunta11\":\"a) Promover la asistencia a un evento específico de decoración a través de una atractiva descripción. \"}","question_order":"[0]","trial_type":"survey-multi-choice","trial_index":23,"time_elapsed":1228985,"internal_node_id":"0.0-5.0-18.0"},{"rt":2272.0999999940395,"response":{"pregunta11 likert":3},"question_order":[0],"trial_type":"survey-likert","trial_index":24,"time_elapsed":1231259,"internal_node_id":"0.0-5.0-19.0"},{"rt":67189.90000000596,"responses":"{\"pregunta22\":\"a) Se debe crear un seguro médico especial para esta institución, pues es de alto riesgo. \"}","question_order":"[0]","trial_type":"survey-multi-choice","trial_index":25,"time_elapsed":1298451,"internal_node_id":"0.0-5.0-20.0"},{"rt":1960.2000000029802,"response":{"pregunta22 likert":1},"question_order":[0],"trial_type":"survey-likert","trial_index":26,"time_elapsed":1300413,"internal_node_id":"0.0-5.0-21.0"},{"rt":39873.70000000298,"responses":"{\"pregunta29\":\"c) el jardinero estará muerto al día siguiente. \"}","question_order":"[0]","trial_type":"survey-multi-choice","trial_index":27,"time_elapsed":1340289,"internal_node_id":"0.0-5.0-22.0"},{"rt":3922.5,"response":{"pregunta29 likert":2},"question_order":[0],"trial_type":"survey-likert","trial_index":28,"time_elapsed":1344213,"internal_node_id":"0.0-5.0-23.0"},{"rt":71362.90000000596,"responses":"{\"pregunta16\":\"c) Provocar el deseo de la adquisición vertiginosa. \"}","question_order":"[0]","trial_type":"survey-multi-choice","trial_index":29,"time_elapsed":1415577,"internal_node_id":"0.0-5.0-24.0"},{"rt":1722.2000000029802,"response":{"pregunta16 likert":3},"question_order":[0],"trial_type":"survey-likert","trial_index":30,"time_elapsed":1417301,"internal_node_id":"0.0-5.0-25.0"},{"rt":34704.29999999702,"responses":"{\"pregunta21\":\"a) el uranio es el elemento natural con el mayor número de protones en el núcleo. \"}","question_order":"[0]","trial_type":"survey-multi-choice","trial_index":31,"time_elapsed":1452007,"internal_node_id":"0.0-5.0-26.0"},{"rt":1568.199999988079,"response":{"pregunta21 likert":3},"question_order":[0],"trial_type":"survey-likert","trial_index":32,"time_elapsed":1453576,"internal_node_id":"0.0-5.0-27.0"},{"rt":96696.5,"responses":"{\"pregunta20\":\"a) sólo las leyes bastan para gobernarse. \"}","question_order":"[0]","trial_type":"survey-multi-choice","trial_index":33,"time_elapsed":1550275,"internal_node_id":"0.0-5.0-28.0"},{"rt":1718.2999999970198,"response":{"pregunta20 likert":1},"question_order":[0],"trial_type":"survey-likert","trial_index":34,"time_elapsed":1551995,"internal_node_id":"0.0-5.0-29.0"},{"rt":130679.90000000596,"responses":"{\"pregunta6\":\"b) Las personas escandalosas constantemente critican a la Academia. \"}","question_order":"[0]","trial_type":"survey-multi-choice","trial_index":35,"time_elapsed":1682677,"internal_node_id":"0.0-5.0-30.0"},{"rt":2733.2999999970198,"response":{"pregunta6 likert":2},"question_order":[0],"trial_type":"survey-likert","trial_index":36,"time_elapsed":1685411,"internal_node_id":"0.0-5.0-31.0"},{"rt":60942.09999999404,"responses":"{\"pregunta4\":\"c) En la literatura como en la vida, lo importante son las preguntas. \"}","question_order":"[0]","trial_type":"survey-multi-choice","trial_index":37,"time_elapsed":1746355,"internal_node_id":"0.0-5.0-32.0"},{"rt":2557.9000000059605,"response":{"pregunta4 likert":2},"question_order":[0],"trial_type":"survey-likert","trial_index":38,"time_elapsed":1748915,"internal_node_id":"0.0-5.0-33.0"},{"rt":68016.29999999702,"responses":"{\"pregunta9\":\"a) pueden rendir exámenes para optar y obtener títulos profesionales igual que los hombres. \"}","question_order":"[0]","trial_type":"survey-multi-choice","trial_index":39,"time_elapsed":1816933,"internal_node_id":"0.0-5.0-34.0"},{"rt":2162,"response":{"pregunta9 likert":3},"question_order":[0],"trial_type":"survey-likert","trial_index":40,"time_elapsed":1819097,"internal_node_id":"0.0-5.0-35.0"},{"rt":74982,"responses":"{\"pregunta24\":\"b) El receptor es habitualmente pasivo frente a la publicidad. \"}","question_order":"[0]","trial_type":"survey-multi-choice","trial_index":41,"time_elapsed":1894081,"internal_node_id":"0.0-5.0-36.0"},{"rt":2808.0999999940395,"response":{"pregunta24 likert":2},"question_order":[0],"trial_type":"survey-likert","trial_index":42,"time_elapsed":1896891,"internal_node_id":"0.0-5.0-37.0"},{"rt":59554,"responses":"{\"pregunta19\":\"c) Las personas que leen son más flexibles en sus ideas y autónomas en su accionar. \"}","question_order":"[0]","trial_type":"survey-multi-choice","trial_index":43,"time_elapsed":1956447,"internal_node_id":"0.0-5.0-38.0"},{"rt":2440,"response":{"pregunta19 likert":2},"question_order":[0],"trial_type":"survey-likert","trial_index":44,"time_elapsed":1958889,"internal_node_id":"0.0-5.0-39.0"},{"rt":55453.80000001192,"responses":"{\"pregunta12\":\"b) se da como existente, y sólo se discute su relación con el cuerpo. \"}","question_order":"[0]","trial_type":"survey-multi-choice","trial_index":45,"time_elapsed":2014345,"internal_node_id":"0.0-5.0-40.0"},{"rt":2393.9000000059605,"response":{"pregunta12 likert":3},"question_order":[0],"trial_type":"survey-likert","trial_index":46,"time_elapsed":2016740,"internal_node_id":"0.0-5.0-41.0"},{"rt":35504.5,"responses":"{\"pregunta18\":\"c) A la inutilidad de tanto esfuerzo si el objetivo es el reposo. \"}","question_order":"[0]","trial_type":"survey-multi-choice","trial_index":47,"time_elapsed":2052247,"internal_node_id":"0.0-5.0-42.0"},{"rt":1628.4000000059605,"response":{"pregunta18 likert":2},"question_order":[0],"trial_type":"survey-likert","trial_index":48,"time_elapsed":2053877,"internal_node_id":"0.0-5.0-43.0"},{"rt":82356.40000000596,"responses":"{\"pregunta26\":\"a) para Aristóteles la virtud estaba en el justo equilibrio. \"}","question_order":"[0]","trial_type":"survey-multi-choice","trial_index":49,"time_elapsed":2136234,"internal_node_id":"0.0-5.0-44.0"},{"rt":2104.7000000029802,"response":{"pregunta26 likert":1},"question_order":[0],"trial_type":"survey-likert","trial_index":50,"time_elapsed":2138340,"internal_node_id":"0.0-5.0-45.0"},{"rt":44720.29999999702,"responses":"{\"pregunta3\":\"b) El inicio de la civilización china. \"}","question_order":"[0]","trial_type":"survey-multi-choice","trial_index":51,"time_elapsed":2183062,"internal_node_id":"0.0-5.0-46.0"},{"rt":1754.4000000059605,"response":{"pregunta3 likert":2},"question_order":[0],"trial_type":"survey-likert","trial_index":52,"time_elapsed":2184818,"internal_node_id":"0.0-5.0-47.0"},{"rt":83088.5,"responses":"{\"pregunta14\":\"c) la persistencia de la melancolía y la desesperanza. \"}","question_order":"[0]","trial_type":"survey-multi-choice","trial_index":53,"time_elapsed":2267909,"internal_node_id":"0.0-5.0-48.0"},{"rt":5170.29999999702,"response":{"pregunta14 likert":3},"question_order":[0],"trial_type":"survey-likert","trial_index":54,"time_elapsed":2273081,"internal_node_id":"0.0-5.0-49.0"},{"rt":137915.5,"responses":"{\"pregunta25\":\"c) llevan un control grupal de su embarazo. \"}","question_order":"[0]","trial_type":"survey-multi-choice","trial_index":55,"time_elapsed":2410998,"internal_node_id":"0.0-5.0-50.0"},{"rt":2061.2000000029802,"response":{"pregunta25 likert":1},"question_order":[0],"trial_type":"survey-likert","trial_index":56,"time_elapsed":2413061,"internal_node_id":"0.0-5.0-51.0"},{"rt":37156.19999998808,"responses":"{\"pregunta8\":\"c) Dar a conocer al ganador del premio Cervantes. \"}","question_order":"[0]","trial_type":"survey-multi-choice","trial_index":57,"time_elapsed":2450219,"internal_node_id":"0.0-5.0-52.0"},{"rt":2447.9000000059605,"response":{"pregunta8 likert":3},"question_order":[0],"trial_type":"survey-likert","trial_index":58,"time_elapsed":2452669,"internal_node_id":"0.0-5.0-53.0"},{"rt":54409.90000000596,"responses":"{\"pregunta13\":\"c) El ser humano se comporta de acuerdo con las circunstancias. \"}","question_order":"[0]","trial_type":"survey-multi-choice","trial_index":59,"time_elapsed":2507081,"internal_node_id":"0.0-5.0-54.0"},{"rt":2202.5,"response":{"pregunta13 likert":2},"question_order":[0],"trial_type":"survey-likert","trial_index":60,"time_elapsed":2509285,"internal_node_id":"0.0-5.0-55.0"},{"rt":45240,"responses":"{\"pregunta23\":\"c) A la influencia de grupos que rechazaban su música. \"}","question_order":"[0]","trial_type":"survey-multi-choice","trial_index":61,"time_elapsed":2554527,"internal_node_id":"0.0-5.0-56.0"},{"rt":1578,"response":{"pregunta23 likert":2},"question_order":[0],"trial_type":"survey-likert","trial_index":62,"time_elapsed":2556107,"internal_node_id":"0.0-5.0-57.0"},{"rt":76536.20000000298,"responses":"{\"pregunta17\":\"b) Homenajear a quienes murieron. \"}","question_order":"[0]","trial_type":"survey-multi-choice","trial_index":63,"time_elapsed":2632645,"internal_node_id":"0.0-5.0-58.0"},{"rt":1824.199999988079,"response":{"pregunta17 likert":2},"question_order":[0],"trial_type":"survey-likert","trial_index":64,"time_elapsed":2634471,"internal_node_id":"0.0-5.0-59.0"},{"rt":2743.5,"stimulus":"<p style=\"font-size: 120%\">Gracias por completar esta etapa del estudio. Ahora te invitamos a responder el cuestionario.<br><br></p>","response":0,"trial_type":"html-button-response","trial_index":65,"time_elapsed":2637219,"internal_node_id":"0.0-6.0"},{"rt":26966.5,"stimulus":"<h1 style=\"margin-top: 5%\">Cuestionario para la Evaluación de Metas Académicas</h1><p style=\"font-size: 120%; margin-left: 3%; margin-top: 5%\">Este es un cuestionario que permite conocer cuáles son los principales motivos por los que los estudiantes se esfuerzan en su trabajo académico. A continuación, se te presentarán una serie de afirmaciones acerca de los motivos que puedes tener para estudiar.<br>Te pedimos que contestes a dichas afirmaciones reflexionando sobre el contenido de cada una de ellas, que, aunque te parezcan semejantes, en realidad, no lo son.<br>NO HAY RESPUESTAS CORRECTAS o INCORRECTAS, sólo queremos que respondas con la mayor precisión y sinceridad posible a las preguntas que se plantean.","response":0,"trial_type":"html-button-response","trial_index":66,"time_elapsed":2664186,"internal_node_id":"0.0-7.0"},{"rt":109605.40000000596,"response":{"Metas cuestionario pregunta1":2,"Metas cuestionario pregunta2":3,"Metas cuestionario pregunta3":4,"Metas cuestionario pregunta4":3,"Metas cuestionario pregunta5":4,"Metas cuestionario pregunta6":4,"Metas cuestionario pregunta7":4,"Metas cuestionario pregunta8":3,"Metas cuestionario pregunta9":2,"Metas cuestionario pregunta10":1,"Metas cuestionario pregunta11":0,"Metas cuestionario pregunta12":2,"Metas cuestionario pregunta13":2,"Metas cuestionario pregunta14":0,"Metas cuestionario pregunta15":3,"Metas cuestionario pregunta16":4,"Metas cuestionario pregunta17":4,"Metas cuestionario pregunta18":4,"Metas cuestionario pregunta19":4,"Metas cuestionario pregunta20":3},"question_order":[0,1,2,3,4,5,6,7,8,9,10,11,12,13,14,15,16,17,18,19],"trial_type":"survey-likert","trial_index":67,"time_elapsed":2773798,"internal_node_id":"0.0-8.0"}]