[{"rt":24602.359999902546,"stimulus":"<h1 style=\"color:red; margin-top: 3%;\">¡Bienvenido(a)!</h1><p style=\"text-align:left; justify-content:space-between; margin-right: 5%; margin-left: 5%; margin-top: 5%\"> Antes de empezar el estudio, necesitamos que nos confirmes que estás de acuerdo con participar. Recuerda que tu participación es 100% voluntaria y que lo único que te pedimos es responder lo mejor que puedas. Recuerda también que el estudio incluye:</p><ol style=\"text-align:left; justify-content:space-between; margin-right: 5%; margin-left: 5%;\"><li> un ejercicio de resolución de preguntas de selección múltiple (30’),</li><li>un cuestionario breve (5’),</li><li>un juego muy breve (3’),</li></ol><p style=\"text-align:left; justify-content:space-between; margin-right: 5%; margin-left: 5%;\">Si quieres participar, haz clic en “Acepto” luego de leer lo siguiente:<br></p><p style=\"text-align:left; justify-content:space-between; margin-right: 5%; margin-left: 5%;\">Acepto participar en el estudio “Estrategias de lectura y resolución de preguntas de selección múltiple”, en los términos aquí señalados:<br></p><p style=\"text-align:left; justify-content:space-between; margin-right: 5%; margin-left: 5%;\"><a href=\"http://ciae.uchile.cl/download.php?file=noticias/Asentimiento.pdf\" target=\"_blank\">Link a la hoja de información del Consentimiento.</a></p><p style=\"text-align:left; justify-content:space-between; margin-right: 5%; margin-left: 5%;\">Declaro que he leído (o se me ha leído) y (he) comprendido, las condiciones de mi participación en este estudio. He tenido la oportunidad de hacer preguntas y éstas han sido respondidas. No tengo dudas al respecto.</p>","response":0,"condicion_MCQ":6,"condicion_INTER":12,"numero_participante":36,"numero_version":1,"dimx":1366,"dimy":768,"color_profundidad":24,"pixel_profundidad":24,"Browser":"Google Chrome","trial_type":"html-button-response","trial_index":0,"time_elapsed":24605,"internal_node_id":"0.0-0.0"},{"success":true,"trial_type":"fullscreen","trial_index":1,"time_elapsed":26847,"internal_node_id":"0.0-1.0"},{"rt":61197.840000037104,"responses":"{\"Nombres\":\"David\",\"Apellidos\":\"Jana Donire\",\"Edad\":\"18\",\"Sexo\":\"hombre\",\"Curso\":\"Primer año\",\"Colegio\":\"Universidad Andres Bello\",\"Contacto\":\"davidjana48@gmail.com\"}","trial_type":"survey-text","trial_index":2,"time_elapsed":88058,"internal_node_id":"0.0-2.0"},{"success":true,"timeout":false,"failed_images":[],"failed_audio":[],"failed_video":[],"trial_type":"preload","trial_index":3,"time_elapsed":88684,"internal_node_id":"0.0-3.0"},{"rt":14014.124999986961,"stimulus":"<h1 style:\"margin-top: 5%;\">Ejercicios de Comprensión de Lectura de la Universidad de Chile</h1><p style=\"font-size: 120%;\">En esta actividad, debes responder 30 preguntas de selección múltiple. Cada pregunta presenta 3 respuestas alternativas, pero sólo una de ellas es correcta. Por lo tanto, debes escoger una sola alternativa para cada pregunta. Además, debes reportar qué tan seguro(a) estás de la respuesta que das, con un:</p><ol style=\"font-size: 120%;text-align:left;margin-left: 40%;\"><li>No estoy seguro(a) para nada</li><li>No estoy muy seguro(a)</li><li>Estoy bastante seguro(a)</li><li>Estoy totalmente seguro(a)</li></ol><p style=\"font-size: 120%;\">Por favor lee bien los enunciados antes de responder. ¡Éxito!</p>","response":0,"trial_type":"html-button-response","trial_index":4,"time_elapsed":102699,"internal_node_id":"0.0-4.0"},{"rt":119871.59000011161,"responses":"{\"pregunta19\":\"a) El hábito de la lectura y el progreso mantienen una relación inversamente proporcional. \"}","question_order":"[0]","trial_type":"survey-multi-choice","trial_index":5,"time_elapsed":222572,"internal_node_id":"0.0-5.0-0.0"},{"rt":4100.435000145808,"response":{"pregunta19 likert":1},"question_order":[0],"trial_type":"survey-likert","trial_index":6,"time_elapsed":226673,"internal_node_id":"0.0-5.0-1.0"},{"rt":425289.5450000651,"responses":"{\"pregunta8\":\"b) Dar a conocer al ganador del premio Cervantes. \"}","question_order":"[0]","trial_type":"survey-multi-choice","trial_index":7,"time_elapsed":651964,"internal_node_id":"0.0-5.0-2.0"},{"rt":1721.0600001271814,"response":{"pregunta8 likert":1},"question_order":[0],"trial_type":"survey-likert","trial_index":8,"time_elapsed":653686,"internal_node_id":"0.0-5.0-3.0"},{"rt":210657.68000017852,"responses":"{\"pregunta24\":\"a) El receptor es habitualmente pasivo frente a la publicidad. \"}","question_order":"[0]","trial_type":"survey-multi-choice","trial_index":9,"time_elapsed":864345,"internal_node_id":"0.0-5.0-4.0"},{"rt":1929.414999904111,"response":{"pregunta24 likert":2},"question_order":[0],"trial_type":"survey-likert","trial_index":10,"time_elapsed":866275,"internal_node_id":"0.0-5.0-5.0"},{"rt":242333.6100000888,"responses":"{\"pregunta6\":\"b) Las voces extranjeras viven una tensión entre la aceptación y el rechazo. \"}","question_order":"[0]","trial_type":"survey-multi-choice","trial_index":11,"time_elapsed":1108610,"internal_node_id":"0.0-5.0-6.0"},{"rt":895.784999942407,"response":{"pregunta6 likert":2},"question_order":[0],"trial_type":"survey-likert","trial_index":12,"time_elapsed":1109507,"internal_node_id":"0.0-5.0-7.0"},{"rt":66208.16000015475,"responses":"{\"pregunta18\":\"a) A la inutilidad de tanto esfuerzo si el objetivo es el reposo. \"}","question_order":"[0]","trial_type":"survey-multi-choice","trial_index":13,"time_elapsed":1175716,"internal_node_id":"0.0-5.0-8.0"},{"rt":1601.7799999099225,"response":{"pregunta18 likert":3},"question_order":[0],"trial_type":"survey-likert","trial_index":14,"time_elapsed":1177319,"internal_node_id":"0.0-5.0-9.0"},{"rt":222933.7349999696,"responses":"{\"pregunta12\":\"a) se da como existente, y sólo se discute su relación con el cuerpo. \"}","question_order":"[0]","trial_type":"survey-multi-choice","trial_index":15,"time_elapsed":1400254,"internal_node_id":"0.0-5.0-10.0"},{"rt":1464.9799999315292,"response":{"pregunta12 likert":3},"question_order":[0],"trial_type":"survey-likert","trial_index":16,"time_elapsed":1401720,"internal_node_id":"0.0-5.0-11.0"},{"rt":341507.49999983236,"responses":"{\"pregunta25\":\"a) sufren dolores de espalda. \"}","question_order":"[0]","trial_type":"survey-multi-choice","trial_index":17,"time_elapsed":1743229,"internal_node_id":"0.0-5.0-12.0"},{"rt":3315.199999837205,"response":{"pregunta25 likert":3},"question_order":[0],"trial_type":"survey-likert","trial_index":18,"time_elapsed":1746546,"internal_node_id":"0.0-5.0-13.0"},{"rt":501382.4200001545,"responses":"{\"pregunta20\":\"b) el mejor emperador es el que está muerto. \"}","question_order":"[0]","trial_type":"survey-multi-choice","trial_index":19,"time_elapsed":2247928,"internal_node_id":"0.0-5.0-14.0"},{"rt":2393.944999901578,"response":{"pregunta20 likert":1},"question_order":[0],"trial_type":"survey-likert","trial_index":20,"time_elapsed":2250323,"internal_node_id":"0.0-5.0-15.0"},{"rt":8263344.485000009,"responses":"{\"pregunta26\":\"b) el sujeto sufre con su modo de vida. \"}","question_order":"[0]","trial_type":"survey-multi-choice","trial_index":21,"time_elapsed":10513659,"internal_node_id":"0.0-5.0-16.0"},{"rt":5218.110000016168,"response":{"pregunta26 likert":3},"question_order":[0],"trial_type":"survey-likert","trial_index":22,"time_elapsed":10518880,"internal_node_id":"0.0-5.0-17.0"},{"rt":102988.79000009038,"responses":"{\"pregunta1\":\"a) Aportan informaciones con las que se reconstruye el personaje dentro de un relato. \"}","question_order":"[0]","trial_type":"survey-multi-choice","trial_index":23,"time_elapsed":10621870,"internal_node_id":"0.0-5.0-18.0"},{"rt":5757.440000073984,"response":{"pregunta1 likert":3},"question_order":[0],"trial_type":"survey-likert","trial_index":24,"time_elapsed":10627628,"internal_node_id":"0.0-5.0-19.0"},{"rt":89914.22999999486,"responses":"{\"pregunta27\":\"c) Nuestra economía vivirá un proceso de ajuste a la nueva realidad. \"}","question_order":"[0]","trial_type":"survey-multi-choice","trial_index":25,"time_elapsed":10717543,"internal_node_id":"0.0-5.0-20.0"},{"rt":2193.2650001253933,"response":{"pregunta27 likert":2},"question_order":[0],"trial_type":"survey-likert","trial_index":26,"time_elapsed":10719737,"internal_node_id":"0.0-5.0-21.0"},{"rt":93129.8100000713,"responses":"{\"pregunta13\":\"b) El ser humano se comporta de acuerdo con las circunstancias. \"}","question_order":"[0]","trial_type":"survey-multi-choice","trial_index":27,"time_elapsed":10812868,"internal_node_id":"0.0-5.0-22.0"},{"rt":1962.790000019595,"response":{"pregunta13 likert":3},"question_order":[0],"trial_type":"survey-likert","trial_index":28,"time_elapsed":10814833,"internal_node_id":"0.0-5.0-23.0"},{"rt":95555.31500000507,"responses":"{\"pregunta10\":\"b) La biónica es una disciplina que aprovecha las condiciones del entorno. \"}","question_order":"[0]","trial_type":"survey-multi-choice","trial_index":29,"time_elapsed":10910389,"internal_node_id":"0.0-5.0-24.0"},{"rt":1360.8750000130385,"response":{"pregunta10 likert":3},"question_order":[0],"trial_type":"survey-likert","trial_index":30,"time_elapsed":10911751,"internal_node_id":"0.0-5.0-25.0"},{"rt":135072.5749998819,"responses":"{\"pregunta3\":\"a) El inicio de la civilización china. \"}","question_order":"[0]","trial_type":"survey-multi-choice","trial_index":31,"time_elapsed":11046825,"internal_node_id":"0.0-5.0-26.0"},{"rt":1625.1199999824166,"response":{"pregunta3 likert":3},"question_order":[0],"trial_type":"survey-likert","trial_index":32,"time_elapsed":11048452,"internal_node_id":"0.0-5.0-27.0"},{"rt":298533.8500000071,"responses":"{\"pregunta9\":\"a) pueden ejercer profesiones científicas de la misma forma en que lo hacen los hombres. \"}","question_order":"[0]","trial_type":"survey-multi-choice","trial_index":33,"time_elapsed":11346986,"internal_node_id":"0.0-5.0-28.0"},{"rt":2113.2100000977516,"response":{"pregunta9 likert":2},"question_order":[0],"trial_type":"survey-likert","trial_index":34,"time_elapsed":11349101,"internal_node_id":"0.0-5.0-29.0"},{"rt":89721.13499999978,"responses":"{\"pregunta15\":\"c) ritualistas y obsesivos. \"}","question_order":"[0]","trial_type":"survey-multi-choice","trial_index":35,"time_elapsed":11438824,"internal_node_id":"0.0-5.0-30.0"},{"rt":1159.7900001797825,"response":{"pregunta15 likert":2},"question_order":[0],"trial_type":"survey-likert","trial_index":36,"time_elapsed":11439984,"internal_node_id":"0.0-5.0-31.0"},{"rt":80214.90999986418,"responses":"{\"pregunta17\":\"b) Atraer a los turistas. \"}","question_order":"[0]","trial_type":"survey-multi-choice","trial_index":37,"time_elapsed":11520200,"internal_node_id":"0.0-5.0-32.0"},{"rt":1904.9849999137223,"response":{"pregunta17 likert":3},"question_order":[0],"trial_type":"survey-likert","trial_index":38,"time_elapsed":11522106,"internal_node_id":"0.0-5.0-33.0"},{"rt":461057.1250000503,"responses":"{\"pregunta21\":\"c) el uranio es el elemento natural con el mayor número de protones en el núcleo. \"}","question_order":"[0]","trial_type":"survey-multi-choice","trial_index":39,"time_elapsed":11983164,"internal_node_id":"0.0-5.0-34.0"},{"rt":1239.8700001649559,"response":{"pregunta21 likert":1},"question_order":[0],"trial_type":"survey-likert","trial_index":40,"time_elapsed":11984405,"internal_node_id":"0.0-5.0-35.0"},{"rt":75311.13999988884,"responses":"{\"pregunta11\":\"c) Promover la asistencia a un evento específico de decoración a través de una atractiva descripción. \"}","question_order":"[0]","trial_type":"survey-multi-choice","trial_index":41,"time_elapsed":12059717,"internal_node_id":"0.0-5.0-36.0"},{"rt":1953.4650000277907,"response":{"pregunta11 likert":3},"question_order":[0],"trial_type":"survey-likert","trial_index":42,"time_elapsed":12061671,"internal_node_id":"0.0-5.0-37.0"},{"rt":51379.86999982968,"responses":"{\"pregunta16\":\"b) Provocar el deseo de la adquisición vertiginosa. \"}","question_order":"[0]","trial_type":"survey-multi-choice","trial_index":43,"time_elapsed":12113052,"internal_node_id":"0.0-5.0-38.0"},{"rt":1904.1949999518692,"response":{"pregunta16 likert":3},"question_order":[0],"trial_type":"survey-likert","trial_index":44,"time_elapsed":12114958,"internal_node_id":"0.0-5.0-39.0"},{"rt":56031.74000000581,"responses":"{\"pregunta23\":\"b) A la influencia de grupos que rechazaban su música. \"}","question_order":"[0]","trial_type":"survey-multi-choice","trial_index":45,"time_elapsed":12170991,"internal_node_id":"0.0-5.0-40.0"},{"rt":14161.294999998063,"response":{"pregunta23 likert":3},"question_order":[0],"trial_type":"survey-likert","trial_index":46,"time_elapsed":12185153,"internal_node_id":"0.0-5.0-41.0"},{"rt":61904.04499997385,"responses":"{\"pregunta22\":\"a) Bomberos debería tener acceso a un seguro médico, al que pueda recurrir en caso de accidente. \"}","question_order":"[0]","trial_type":"survey-multi-choice","trial_index":47,"time_elapsed":12247058,"internal_node_id":"0.0-5.0-42.0"},{"rt":2145.930000115186,"response":{"pregunta22 likert":3},"question_order":[0],"trial_type":"survey-likert","trial_index":48,"time_elapsed":12249205,"internal_node_id":"0.0-5.0-43.0"},{"rt":104996.86000007205,"responses":"{\"pregunta5\":\"a) La escritura plasma los mejores momentos de los viajes. \"}","question_order":"[0]","trial_type":"survey-multi-choice","trial_index":49,"time_elapsed":12354204,"internal_node_id":"0.0-5.0-44.0"},{"rt":3268.1249999441206,"response":{"pregunta5 likert":1},"question_order":[0],"trial_type":"survey-likert","trial_index":50,"time_elapsed":12357473,"internal_node_id":"0.0-5.0-45.0"},{"rt":56937.550000147894,"responses":"{\"pregunta7\":\"a) La imprenta y el papel han permitido el desarrollo de la civilización y la conservación de su cultura, y ambos son inventos chinos. \"}","question_order":"[0]","trial_type":"survey-multi-choice","trial_index":51,"time_elapsed":12414412,"internal_node_id":"0.0-5.0-46.0"},{"rt":3283.0350000876933,"response":{"pregunta7 likert":2},"question_order":[0],"trial_type":"survey-likert","trial_index":52,"time_elapsed":12417696,"internal_node_id":"0.0-5.0-47.0"},{"rt":48542.949999915436,"responses":"{\"pregunta28\":\"b) El derecho a informar y el derecho a la privacidad son inconciliables. \"}","question_order":"[0]","trial_type":"survey-multi-choice","trial_index":53,"time_elapsed":12466241,"internal_node_id":"0.0-5.0-48.0"},{"rt":2147.540000034496,"response":{"pregunta28 likert":2},"question_order":[0],"trial_type":"survey-likert","trial_index":54,"time_elapsed":12468389,"internal_node_id":"0.0-5.0-49.0"},{"rt":95654.09999992698,"responses":"{\"pregunta14\":\"a) la persistencia de la melancolía y la desesperanza. \"}","question_order":"[0]","trial_type":"survey-multi-choice","trial_index":55,"time_elapsed":12564045,"internal_node_id":"0.0-5.0-50.0"},{"rt":1707.0199998561293,"response":{"pregunta14 likert":2},"question_order":[0],"trial_type":"survey-likert","trial_index":56,"time_elapsed":12565753,"internal_node_id":"0.0-5.0-51.0"},{"rt":148417.10500000045,"responses":"{\"pregunta2\":\"c) A la relación entre pensamiento y estructura social. \"}","question_order":"[0]","trial_type":"survey-multi-choice","trial_index":57,"time_elapsed":12714170,"internal_node_id":"0.0-5.0-52.0"},{"rt":1984.8100000526756,"response":{"pregunta2 likert":1},"question_order":[0],"trial_type":"survey-likert","trial_index":58,"time_elapsed":12716156,"internal_node_id":"0.0-5.0-53.0"},{"rt":886245.4800000414,"responses":"{\"pregunta4\":\"a) En la literatura como en la vida, todo es metáfora. \"}","question_order":"[0]","trial_type":"survey-multi-choice","trial_index":59,"time_elapsed":13602403,"internal_node_id":"0.0-5.0-54.0"},{"rt":1762.4350001569837,"response":{"pregunta4 likert":2},"question_order":[0],"trial_type":"survey-likert","trial_index":60,"time_elapsed":13604167,"internal_node_id":"0.0-5.0-55.0"},{"rt":198435.46500010416,"responses":"{\"pregunta29\":\"b) el jardinero estará muerto al día siguiente. \"}","question_order":"[0]","trial_type":"survey-multi-choice","trial_index":61,"time_elapsed":13802603,"internal_node_id":"0.0-5.0-56.0"},{"rt":1649.625000078231,"response":{"pregunta29 likert":3},"question_order":[0],"trial_type":"survey-likert","trial_index":62,"time_elapsed":13804254,"internal_node_id":"0.0-5.0-57.0"},{"rt":110767.64500001445,"responses":"{\"pregunta30\":\"b) la muerte es distinta en las grandes ciudades. \"}","question_order":"[0]","trial_type":"survey-multi-choice","trial_index":63,"time_elapsed":13915023,"internal_node_id":"0.0-5.0-58.0"},{"rt":1794.1049998626113,"response":{"pregunta30 likert":2},"question_order":[0],"trial_type":"survey-likert","trial_index":64,"time_elapsed":13916818,"internal_node_id":"0.0-5.0-59.0"},{"rt":1205.3650000598282,"stimulus":"<p style=\"font-size: 120%\">Gracias por completar esta etapa del estudio. Ahora te invitamos a responder el cuestionario.<br><br></p>","response":0,"trial_type":"html-button-response","trial_index":65,"time_elapsed":13918027,"internal_node_id":"0.0-6.0"},{"rt":8755.670000100508,"stimulus":"<h1 style=\"margin-top: 5%\">Cuestionario para la Evaluación de Metas Académicas</h1><p style=\"font-size: 120%; margin-left: 3%; margin-top: 5%\">Este es un cuestionario que permite conocer cuáles son los principales motivos por los que los estudiantes se esfuerzan en su trabajo académico. A continuación, se te presentarán una serie de afirmaciones acerca de los motivos que puedes tener para estudiar.<br>Te pedimos que contestes a dichas afirmaciones reflexionando sobre el contenido de cada una de ellas, que, aunque te parezcan semejantes, en realidad, no lo son.<br>NO HAY RESPUESTAS CORRECTAS o INCORRECTAS, sólo queremos que respondas con la mayor precisión y sinceridad posible a las preguntas que se plantean.","response":0,"trial_type":"html-button-response","trial_index":66,"time_elapsed":13926783,"internal_node_id":"0.0-7.0"},{"rt":153674.57000003196,"response":{"Metas cuestionario pregunta1":3,"Metas cuestionario pregunta2":2,"Metas cuestionario pregunta3":3,"Metas cuestionario pregunta4":3,"Metas cuestionario pregunta5":2,"Metas cuestionario pregunta6":3,"Metas cuestionario pregunta7":3,"Metas cuestionario pregunta8":2,"Metas cuestionario pregunta9":4,"Metas cuestionario pregunta10":4,"Metas cuestionario pregunta11":3,"Metas cuestionario pregunta12":4,"Metas cuestionario pregunta13":4,"Metas cuestionario pregunta14":4,"Metas cuestionario pregunta15":4,"Metas cuestionario pregunta16":4,"Metas cuestionario pregunta17":4,"Metas cuestionario pregunta18":4,"Metas cuestionario pregunta19":4,"Metas cuestionario pregunta20":4},"question_order":[0,1,2,3,4,5,6,7,8,9,10,11,12,13,14,15,16,17,18,19],"trial_type":"survey-likert","trial_index":67,"time_elapsed":14080461,"internal_node_id":"0.0-8.0"},{"rt":3992.6399998366833,"stimulus":"<p style=\"font-size: 120%\">Gracias por responder el cuestionario. Ahora te invitamos a seguir con el juego, que es muy breve.<br><br></p>","response":0,"trial_type":"html-button-response","trial_index":68,"time_elapsed":14084456,"internal_node_id":"0.0-9.0"},{"rt":7514.7450000513345,"stimulus":"<h1>Juego</h1><p style=\"font-size: 120%;\">A continuación se te presentarán 16 pequeñas historias.<br>Por favor lee el texto presentado en cada una de ellas y luego haz click en el objeto de tu elección.<br>Si estás listo(a),<span style=\"color:red;\"> haz click en \"comenzar\"</span>.</p>","response":0,"trial_type":"html-button-response","trial_index":69,"time_elapsed":14091972,"internal_node_id":"0.0-10.0"},{"rt":15767.040000064299,"grid":[[1,1,1]],"target":[0,2],"response":[0,0],"correct":false,"juego":8,"trial_type":"serial-reaction-time-mouse","trial_index":70,"time_elapsed":14107740,"internal_node_id":"0.0-11.0-0.0"},{"rt":5830.725000007078,"grid":[[1,1,1]],"target":[0,2],"response":[0,2],"correct":true,"juego":2,"trial_type":"serial-reaction-time-mouse","trial_index":71,"time_elapsed":14113571,"internal_node_id":"0.0-11.0-1.0"},{"rt":48800.38499995135,"grid":[[1],[1],[1],[1],[1],[1]],"target":[0,0],"response":[0,0],"correct":true,"juego":5,"trial_type":"serial-reaction-time-mouse","trial_index":72,"time_elapsed":14162372,"internal_node_id":"0.0-11.0-2.0"},{"rt":17191.69000000693,"grid":[[1,1],[1,1],[1,1],[1,1],[1,1],[1,1],[1,1]],"target":[0,0],"response":[1,1],"correct":false,"juego":14,"trial_type":"serial-reaction-time-mouse","trial_index":73,"time_elapsed":14179566,"internal_node_id":"0.0-11.0-3.0"},{"rt":20166.31000000052,"grid":[[1,1,1],[1,1,1],[1,1,1]],"target":[0,0],"response":[0,0],"correct":true,"juego":10,"trial_type":"serial-reaction-time-mouse","trial_index":74,"time_elapsed":14199732,"internal_node_id":"0.0-11.0-4.0"},{"rt":60516.04999997653,"grid":[[1,1,1],[1,1,1],[1,1,1],[1,1,1],[1,1,1],[1,1,1],[1,1,1]],"target":[0,0],"response":[5,1],"correct":false,"juego":13,"trial_type":"serial-reaction-time-mouse","trial_index":75,"time_elapsed":14260249,"internal_node_id":"0.0-11.0-5.0"},{"rt":55713.485000189394,"grid":[[1,1,1],[1,1,1],[1,1,1],[1,1,1],[1,1,1],[1,1,1],[1,1,1]],"target":[0,0],"response":[1,1],"correct":false,"juego":6,"trial_type":"serial-reaction-time-mouse","trial_index":76,"time_elapsed":14315964,"internal_node_id":"0.0-11.0-6.0"},{"rt":9222.03000006266,"grid":[[1,1,1]],"target":[0,2],"response":[0,1],"correct":false,"juego":1,"trial_type":"serial-reaction-time-mouse","trial_index":77,"time_elapsed":14325186,"internal_node_id":"0.0-11.0-7.0"},{"rt":22906.26999991946,"grid":[[1,1,1]],"target":[0,2],"response":[0,2],"correct":true,"juego":7,"trial_type":"serial-reaction-time-mouse","trial_index":78,"time_elapsed":14348093,"internal_node_id":"0.0-11.0-8.0"},{"rt":11905.27500002645,"grid":[[1,1,1]],"target":[0,0],"response":[0,0],"correct":true,"juego":9,"trial_type":"serial-reaction-time-mouse","trial_index":79,"time_elapsed":14359999,"internal_node_id":"0.0-11.0-9.0"},{"rt":7266.495000105351,"grid":[[1],[1],[1]],"target":[0,2],"response":[2,0],"correct":false,"juego":4,"trial_type":"serial-reaction-time-mouse","trial_index":80,"time_elapsed":14367266,"internal_node_id":"0.0-11.0-10.0"},{"rt":47384.455000050366,"grid":[[1,1,1]],"target":[0,2],"response":[0,0],"correct":false,"juego":3,"trial_type":"serial-reaction-time-mouse","trial_index":81,"time_elapsed":14414652,"internal_node_id":"0.0-11.0-11.0"},{"rt":65671.6899999883,"grid":[[1,1],[1,1],[1,1],[1,1],[1,1],[1,1],[1,1]],"target":[0,0],"response":[5,1],"correct":false,"juego":15,"trial_type":"serial-reaction-time-mouse","trial_index":82,"time_elapsed":14480324,"internal_node_id":"0.0-11.0-12.0"},{"rt":12723.720000125468,"grid":[[1,1,1]],"target":[0,0],"response":[0,1],"correct":false,"juego":11,"trial_type":"serial-reaction-time-mouse","trial_index":83,"time_elapsed":14493049,"internal_node_id":"0.0-11.0-13.0"},{"rt":11946.234999923036,"grid":[[1,1,1]],"target":[0,0],"response":[0,0],"correct":true,"juego":12,"trial_type":"serial-reaction-time-mouse","trial_index":84,"time_elapsed":14504996,"internal_node_id":"0.0-11.0-14.0"},{"rt":14234.705000184476,"stimulus":"<h1>Último juego</h1><p style=\"font-size: 130%;\">Tienes <span style=\"color:red\">20</span> segundos para recordar los pares de palabras que aparecerán a continuación. <br></p>","response":0,"trial_type":"html-button-response","trial_index":85,"time_elapsed":14519233,"internal_node_id":"0.0-12.0"},{"animation_sequence":[{"stimulus":"imagen_juego_interferencia.jpg","time":501.3300001155585},{"stimulus":"imagen_juego_interferencia.jpg","time":1000.8799999486655},{"stimulus":"imagen_juego_interferencia.jpg","time":1501.399999950081},{"stimulus":"imagen_juego_interferencia.jpg","time":2001.2900000438094},{"stimulus":"imagen_juego_interferencia.jpg","time":2501.6650001052767},{"stimulus":"imagen_juego_interferencia.jpg","time":3001.2650000862777},{"stimulus":"imagen_juego_interferencia.jpg","time":3501.7349999397993},{"stimulus":"imagen_juego_interferencia.jpg","time":4002.325000008568},{"stimulus":"imagen_juego_interferencia.jpg","time":4501.850000116974},{"stimulus":"imagen_juego_interferencia.jpg","time":5001.625000033528},{"stimulus":"imagen_juego_interferencia.jpg","time":5501.88499991782},{"stimulus":"imagen_juego_interferencia.jpg","time":6001.864999998361},{"stimulus":"imagen_juego_interferencia.jpg","time":6500.90999994427},{"stimulus":"imagen_juego_interferencia.jpg","time":7001.665000105277},{"stimulus":"imagen_juego_interferencia.jpg","time":7500.939999939874},{"stimulus":"imagen_juego_interferencia.jpg","time":8001.485000131652},{"stimulus":"imagen_juego_interferencia.jpg","time":8501.679999986663},{"stimulus":"imagen_juego_interferencia.jpg","time":9001.010000007227},{"stimulus":"imagen_juego_interferencia.jpg","time":9500.74000004679},{"stimulus":"imagen_juego_interferencia.jpg","time":10001.364999916404},{"stimulus":"imagen_juego_interferencia.jpg","time":10501.67000014335},{"stimulus":"imagen_juego_interferencia.jpg","time":11001.364999916404},{"stimulus":"imagen_juego_interferencia.jpg","time":11501.685000024736},{"stimulus":"imagen_juego_interferencia.jpg","time":12001.135000027716},{"stimulus":"imagen_juego_interferencia.jpg","time":12501.455000136048},{"stimulus":"imagen_juego_interferencia.jpg","time":13001.570000080392},{"stimulus":"imagen_juego_interferencia.jpg","time":13501.815000083297},{"stimulus":"imagen_juego_interferencia.jpg","time":14000.870000105351},{"stimulus":"imagen_juego_interferencia.jpg","time":14501.605000114068},{"stimulus":"imagen_juego_interferencia.jpg","time":15000.735000008717},{"stimulus":"imagen_juego_interferencia.jpg","time":15501.52499997057},{"stimulus":"imagen_juego_interferencia.jpg","time":16000.669999979436},{"stimulus":"imagen_juego_interferencia.jpg","time":16501.214999938384},{"stimulus":"imagen_juego_interferencia.jpg","time":17001.1199999135},{"stimulus":"imagen_juego_interferencia.jpg","time":17501.170000061393},{"stimulus":"imagen_juego_interferencia.jpg","time":18001.22500001453},{"stimulus":"imagen_juego_interferencia.jpg","time":18501.644999952987},{"stimulus":"imagen_juego_interferencia.jpg","time":19001.464999979362},{"stimulus":"imagen_juego_interferencia.jpg","time":19501.475000055507},{"stimulus":"imagen_juego_interferencia.jpg","time":20001.295000081882}],"response":[{"key_press":"meta","rt":9606.085000094026,"stimulus":"imagen_juego_interferencia.jpg"}],"trial_type":"animation","trial_index":86,"time_elapsed":14539736,"internal_node_id":"0.0-13.0"},{"rt":4235.669999849051,"responses":"{\"pregunta interferencia1\":\"naranja\"}","question_order":"[0]","trial_type":"survey-multi-choice-cuest","trial_index":87,"time_elapsed":14543972,"internal_node_id":"0.0-14.0-0.0"},{"rt":15517.830000026152,"responses":"{\"pregunta interferencia4\":\"contador\"}","question_order":"[0]","trial_type":"survey-multi-choice-cuest","trial_index":88,"time_elapsed":14559491,"internal_node_id":"0.0-14.0-1.0"},{"rt":5655.740000074729,"responses":"{\"pregunta interferencia2\":\"cucaracha\"}","question_order":"[0]","trial_type":"survey-multi-choice-cuest","trial_index":89,"time_elapsed":14565148,"internal_node_id":"0.0-14.0-2.0"},{"rt":8787.335000000894,"responses":"{\"pregunta interferencia3\":\"aluminio\"}","question_order":"[0]","trial_type":"survey-multi-choice-cuest","trial_index":90,"time_elapsed":14573937,"internal_node_id":"0.0-14.0-3.0"},{"success":true,"trial_type":"fullscreen","trial_index":91,"time_elapsed":14574939,"internal_node_id":"0.0-15.0"},{"rt":23308.77500004135,"responses":"{\"Telefono\":\"+56 9 3419 0452\"}","trial_type":"survey-text","trial_index":92,"time_elapsed":14598254,"internal_node_id":"0.0-16.0"}]