[{"rt":208060.54000000004,"stimulus":"<h1 style=\"color:red; margin-top: 3%;\">¡Bienvenido(a)!</h1><p style=\"text-align:left; justify-content:space-between; margin-right: 5%; margin-left: 5%; margin-top: 5%\"> Antes de empezar el estudio, necesitamos que nos confirmes que estás de acuerdo con participar. Recuerda que tu participación es 100% voluntaria y que lo único que te pedimos es responder lo mejor que puedas. Recuerda también que el estudio incluye:</p><ol style=\"text-align:left; justify-content:space-between; margin-right: 5%; margin-left: 5%;\"><li> un ejercicio de resolución de preguntas de selección múltiple (30’),</li><li>un cuestionario breve (5’),</li><li>un juego muy breve (3’),</li></ol><p style=\"text-align:left; justify-content:space-between; margin-right: 5%; margin-left: 5%;\">Si quieres participar, haz clic en “Acepto” luego de leer lo siguiente:<br></p><p style=\"text-align:left; justify-content:space-between; margin-right: 5%; margin-left: 5%;\">Acepto participar en el estudio “Estrategias de lectura y resolución de preguntas de selección múltiple”, en los términos aquí señalados:<br></p><p style=\"text-align:left; justify-content:space-between; margin-right: 5%; margin-left: 5%;\"><a href=\"http://ciae.uchile.cl/download.php?file=noticias/Asentimiento.pdf\" target=\"_blank\">Link a la hoja de información del Consentimiento.</a></p><p style=\"text-align:left; justify-content:space-between; margin-right: 5%; margin-left: 5%;\">Declaro que he leído (o se me ha leído) y (he) comprendido, las condiciones de mi participación en este estudio. He tenido la oportunidad de hacer preguntas y éstas han sido respondidas. No tengo dudas al respecto.</p>","response":0,"condicion_MCQ":5,"condicion_INTER":17,"numero_participante":41,"numero_version":1,"dimx":1536,"dimy":864,"color_profundidad":24,"pixel_profundidad":24,"Browser":"Google Chrome","trial_type":"html-button-response","trial_index":0,"time_elapsed":208065,"internal_node_id":"0.0-0.0"},{"success":true,"trial_type":"fullscreen","trial_index":1,"time_elapsed":209985,"internal_node_id":"0.0-1.0"},{"rt":201279.795,"responses":"{\"Nombres\":\"Antonia Constanza \",\"Apellidos\":\"Galvez Valenzuela \",\"Edad\":\"17\",\"Sexo\":\"mujer \",\"Curso\":\"Primero de universidad \",\"Colegio\":\"Universidad Andrés Bello \",\"Contacto\":\"antonia.galvez.valenzuela2016@gmail.com\"}","trial_type":"survey-text","trial_index":2,"time_elapsed":411276,"internal_node_id":"0.0-2.0"},{"success":true,"timeout":false,"failed_images":[],"failed_audio":[],"failed_video":[],"trial_type":"preload","trial_index":3,"time_elapsed":412543,"internal_node_id":"0.0-3.0"},{"rt":3762.7799999999697,"stimulus":"<h1 style:\"margin-top: 5%;\">Ejercicios de Comprensión de Lectura de la Universidad de Chile</h1><p style=\"font-size: 120%;\">En esta actividad, debes responder 30 preguntas de selección múltiple. Cada pregunta presenta 3 respuestas alternativas, pero sólo una de ellas es correcta. Por lo tanto, debes escoger una sola alternativa para cada pregunta. Además, debes reportar qué tan seguro(a) estás de la respuesta que das, con un:</p><ol style=\"font-size: 120%;text-align:left;margin-left: 40%;\"><li>No estoy seguro(a) para nada</li><li>No estoy muy seguro(a)</li><li>Estoy bastante seguro(a)</li><li>Estoy totalmente seguro(a)</li></ol><p style=\"font-size: 120%;\">Por favor lee bien los enunciados antes de responder. ¡Éxito!</p>","response":0,"trial_type":"html-button-response","trial_index":4,"time_elapsed":416307,"internal_node_id":"0.0-4.0"},{"rt":70125.97499999992,"responses":"{\"pregunta9\":\"b) pueden rendir exámenes para optar y obtener títulos profesionales igual que los hombres. \"}","question_order":"[0]","trial_type":"survey-multi-choice","trial_index":5,"time_elapsed":486435,"internal_node_id":"0.0-5.0-0.0"},{"rt":3873.9449999998906,"response":{"pregunta9 likert":2},"question_order":[0],"trial_type":"survey-likert","trial_index":6,"time_elapsed":490312,"internal_node_id":"0.0-5.0-1.0"},{"rt":74619.59000000014,"responses":"{\"pregunta2\":\"c) A la relación entre sociedad y constitución social. \"}","question_order":"[0]","trial_type":"survey-multi-choice","trial_index":7,"time_elapsed":564933,"internal_node_id":"0.0-5.0-2.0"},{"rt":1760.5599999999395,"response":{"pregunta2 likert":2},"question_order":[0],"trial_type":"survey-likert","trial_index":8,"time_elapsed":566696,"internal_node_id":"0.0-5.0-3.0"},{"rt":80592.57999999996,"responses":"{\"pregunta24\":\"c) El receptor es habitualmente pasivo frente a la publicidad. \"}","question_order":"[0]","trial_type":"survey-multi-choice","trial_index":9,"time_elapsed":647288,"internal_node_id":"0.0-5.0-4.0"},{"rt":2162.1900000000605,"response":{"pregunta24 likert":1},"question_order":[0],"trial_type":"survey-likert","trial_index":10,"time_elapsed":649452,"internal_node_id":"0.0-5.0-5.0"},{"rt":51725.515000000014,"responses":"{\"pregunta8\":\"b) Comparar a Cervantes con Quevedo. \"}","question_order":"[0]","trial_type":"survey-multi-choice","trial_index":11,"time_elapsed":701182,"internal_node_id":"0.0-5.0-6.0"},{"rt":2440.4599999999627,"response":{"pregunta8 likert":2},"question_order":[0],"trial_type":"survey-likert","trial_index":12,"time_elapsed":703624,"internal_node_id":"0.0-5.0-7.0"},{"rt":61817.945000000065,"responses":"{\"pregunta13\":\"b) El concepto de normalidad es diferente para un psiquiatra que para nosotros. \"}","question_order":"[0]","trial_type":"survey-multi-choice","trial_index":13,"time_elapsed":765446,"internal_node_id":"0.0-5.0-8.0"},{"rt":2480.300000000163,"response":{"pregunta13 likert":2},"question_order":[0],"trial_type":"survey-likert","trial_index":14,"time_elapsed":767928,"internal_node_id":"0.0-5.0-9.0"},{"rt":48994.25,"responses":"{\"pregunta23\":\"b) A la inexistencia de un recinto adecuado para el recital. \"}","question_order":"[0]","trial_type":"survey-multi-choice","trial_index":15,"time_elapsed":816924,"internal_node_id":"0.0-5.0-10.0"},{"rt":1831.2950000001583,"response":{"pregunta23 likert":3},"question_order":[0],"trial_type":"survey-likert","trial_index":16,"time_elapsed":818757,"internal_node_id":"0.0-5.0-11.0"},{"rt":31922.900000000023,"responses":"{\"pregunta17\":\"c) Homenajear a quienes murieron. \"}","question_order":"[0]","trial_type":"survey-multi-choice","trial_index":17,"time_elapsed":850682,"internal_node_id":"0.0-5.0-12.0"},{"rt":2686.5749999999534,"response":{"pregunta17 likert":2},"question_order":[0],"trial_type":"survey-likert","trial_index":18,"time_elapsed":853370,"internal_node_id":"0.0-5.0-13.0"},{"rt":52909.625,"responses":"{\"pregunta20\":\"a) el mejor emperador es el que está muerto. \"}","question_order":"[0]","trial_type":"survey-multi-choice","trial_index":19,"time_elapsed":906281,"internal_node_id":"0.0-5.0-14.0"},{"rt":2070.5349999997998,"response":{"pregunta20 likert":1},"question_order":[0],"trial_type":"survey-likert","trial_index":20,"time_elapsed":908354,"internal_node_id":"0.0-5.0-15.0"},{"rt":86590.48499999987,"responses":"{\"pregunta29\":\"c) la Muerte vaticina el futuro mediante gestos. \"}","question_order":"[0]","trial_type":"survey-multi-choice","trial_index":21,"time_elapsed":994946,"internal_node_id":"0.0-5.0-16.0"},{"rt":1910.0200000000186,"response":{"pregunta29 likert":1},"question_order":[0],"trial_type":"survey-likert","trial_index":22,"time_elapsed":996857,"internal_node_id":"0.0-5.0-17.0"},{"rt":4789.875000000233,"responses":"{\"pregunta10\":\"b) La biónica es una disciplina que tiene su origen en la ecología. \"}","question_order":"[0]","trial_type":"survey-multi-choice","trial_index":23,"time_elapsed":1001649,"internal_node_id":"0.0-5.0-18.0"},{"rt":2115.430000000051,"response":{"pregunta10 likert":1},"question_order":[0],"trial_type":"survey-likert","trial_index":24,"time_elapsed":1003767,"internal_node_id":"0.0-5.0-19.0"},{"rt":30278.11999999988,"responses":"{\"pregunta5\":\"a) Los momentos triviales de los viajes, en la escritura se vuelven significativos. \"}","question_order":"[0]","trial_type":"survey-multi-choice","trial_index":25,"time_elapsed":1034048,"internal_node_id":"0.0-5.0-20.0"},{"rt":1468.1949999998324,"response":{"pregunta5 likert":2},"question_order":[0],"trial_type":"survey-likert","trial_index":26,"time_elapsed":1035519,"internal_node_id":"0.0-5.0-21.0"},{"rt":34402.46499999985,"responses":"{\"pregunta14\":\"c) la persistencia de la melancolía y la desesperanza. \"}","question_order":"[0]","trial_type":"survey-multi-choice","trial_index":27,"time_elapsed":1069922,"internal_node_id":"0.0-5.0-22.0"},{"rt":1930.0099999997765,"response":{"pregunta14 likert":3},"question_order":[0],"trial_type":"survey-likert","trial_index":28,"time_elapsed":1071854,"internal_node_id":"0.0-5.0-23.0"},{"rt":30782.149999999907,"responses":"{\"pregunta3\":\"c) El inicio de la civilización china. \"}","question_order":"[0]","trial_type":"survey-multi-choice","trial_index":29,"time_elapsed":1102638,"internal_node_id":"0.0-5.0-24.0"},{"rt":1729,"response":{"pregunta3 likert":3},"question_order":[0],"trial_type":"survey-likert","trial_index":30,"time_elapsed":1104369,"internal_node_id":"0.0-5.0-25.0"},{"rt":2841.8649999999907,"responses":"{\"pregunta7\":\"b) Si desaparecieran el papel y la imprenta, se produciría un gran retraso en nuestra civilización. \"}","question_order":"[0]","trial_type":"survey-multi-choice","trial_index":31,"time_elapsed":1107212,"internal_node_id":"0.0-5.0-26.0"},{"rt":1614.2450000001118,"response":{"pregunta7 likert":1},"question_order":[0],"trial_type":"survey-likert","trial_index":32,"time_elapsed":1108828,"internal_node_id":"0.0-5.0-27.0"},{"rt":84943.44500000007,"responses":"{\"pregunta25\":\"b) llevan un control grupal de su embarazo. \"}","question_order":"[0]","trial_type":"survey-multi-choice","trial_index":33,"time_elapsed":1193774,"internal_node_id":"0.0-5.0-28.0"},{"rt":2278.769999999786,"response":{"pregunta25 likert":2},"question_order":[0],"trial_type":"survey-likert","trial_index":34,"time_elapsed":1196055,"internal_node_id":"0.0-5.0-29.0"},{"rt":38343.7649999999,"responses":"{\"pregunta22\":\"c) Bomberos debería tener acceso a un seguro médico, al que pueda recurrir en caso de accidente. \"}","question_order":"[0]","trial_type":"survey-multi-choice","trial_index":35,"time_elapsed":1234401,"internal_node_id":"0.0-5.0-30.0"},{"rt":1884.6800000001676,"response":{"pregunta22 likert":3},"question_order":[0],"trial_type":"survey-likert","trial_index":36,"time_elapsed":1236287,"internal_node_id":"0.0-5.0-31.0"},{"rt":4378.145000000019,"responses":"{\"pregunta1\":\"b) Muestran las opiniones expuestas por los personajes en un relato. \"}","question_order":"[0]","trial_type":"survey-multi-choice","trial_index":37,"time_elapsed":1240667,"internal_node_id":"0.0-5.0-32.0"},{"rt":1305.8049999999348,"response":{"pregunta1 likert":1},"question_order":[0],"trial_type":"survey-likert","trial_index":38,"time_elapsed":1241975,"internal_node_id":"0.0-5.0-33.0"},{"rt":5898.310000000056,"responses":"{\"pregunta18\":\"a) Al deseo de privilegiar el ocio por sobre el trabajo. \"}","question_order":"[0]","trial_type":"survey-multi-choice","trial_index":39,"time_elapsed":1247875,"internal_node_id":"0.0-5.0-34.0"},{"rt":1660.4299999999348,"response":{"pregunta18 likert":2},"question_order":[0],"trial_type":"survey-likert","trial_index":40,"time_elapsed":1249537,"internal_node_id":"0.0-5.0-35.0"},{"rt":3956.814999999944,"responses":"{\"pregunta6\":\"a) Las voces extranjeras viven una tensión entre la aceptación y el rechazo. \"}","question_order":"[0]","trial_type":"survey-multi-choice","trial_index":41,"time_elapsed":1253494,"internal_node_id":"0.0-5.0-36.0"},{"rt":1175.380000000121,"response":{"pregunta6 likert":1},"question_order":[0],"trial_type":"survey-likert","trial_index":42,"time_elapsed":1254671,"internal_node_id":"0.0-5.0-37.0"},{"rt":47887.20999999973,"responses":"{\"pregunta19\":\"a) Las personas que leen son más flexibles en sus ideas y autónomas en su accionar. \"}","question_order":"[0]","trial_type":"survey-multi-choice","trial_index":43,"time_elapsed":1302560,"internal_node_id":"0.0-5.0-38.0"},{"rt":1792.4749999998603,"response":{"pregunta19 likert":2},"question_order":[0],"trial_type":"survey-likert","trial_index":44,"time_elapsed":1304355,"internal_node_id":"0.0-5.0-39.0"},{"rt":36859.804999999935,"responses":"{\"pregunta27\":\"a) El TLC causará una completa transformación de la economía chilena. \"}","question_order":"[0]","trial_type":"survey-multi-choice","trial_index":45,"time_elapsed":1341218,"internal_node_id":"0.0-5.0-40.0"},{"rt":2508.7000000001863,"response":{"pregunta27 likert":2},"question_order":[0],"trial_type":"survey-likert","trial_index":46,"time_elapsed":1343728,"internal_node_id":"0.0-5.0-41.0"},{"rt":24337.97499999986,"responses":"{\"pregunta12\":\"c) se da como existente, y sólo se discute su relación con el cuerpo. \"}","question_order":"[0]","trial_type":"survey-multi-choice","trial_index":47,"time_elapsed":1368068,"internal_node_id":"0.0-5.0-42.0"},{"rt":1600.1949999998324,"response":{"pregunta12 likert":2},"question_order":[0],"trial_type":"survey-likert","trial_index":48,"time_elapsed":1369670,"internal_node_id":"0.0-5.0-43.0"},{"rt":32983.69999999995,"responses":"{\"pregunta4\":\"c) En la literatura como en la vida, todo es metáfora. \"}","question_order":"[0]","trial_type":"survey-multi-choice","trial_index":49,"time_elapsed":1402657,"internal_node_id":"0.0-5.0-44.0"},{"rt":1700.7600000000093,"response":{"pregunta4 likert":2},"question_order":[0],"trial_type":"survey-likert","trial_index":50,"time_elapsed":1404359,"internal_node_id":"0.0-5.0-45.0"},{"rt":26710.07999999984,"responses":"{\"pregunta15\":\"b) ritualistas y obsesivos. \"}","question_order":"[0]","trial_type":"survey-multi-choice","trial_index":51,"time_elapsed":1431071,"internal_node_id":"0.0-5.0-46.0"},{"rt":1990.2399999999907,"response":{"pregunta15 likert":2},"question_order":[0],"trial_type":"survey-likert","trial_index":52,"time_elapsed":1433063,"internal_node_id":"0.0-5.0-47.0"},{"rt":46434.125,"responses":"{\"pregunta30\":\"c) para el mexicano, la muerte es como una mujer. \"}","question_order":"[0]","trial_type":"survey-multi-choice","trial_index":53,"time_elapsed":1479500,"internal_node_id":"0.0-5.0-48.0"},{"rt":2138.144999999786,"response":{"pregunta30 likert":2},"question_order":[0],"trial_type":"survey-likert","trial_index":54,"time_elapsed":1481640,"internal_node_id":"0.0-5.0-49.0"},{"rt":3253.8799999998882,"responses":"{\"pregunta21\":\"c) a partir de la manipulación del núcleo se han creado elementos químicos naturales. \"}","question_order":"[0]","trial_type":"survey-multi-choice","trial_index":55,"time_elapsed":1484896,"internal_node_id":"0.0-5.0-50.0"},{"rt":1322.6399999998976,"response":{"pregunta21 likert":1},"question_order":[0],"trial_type":"survey-likert","trial_index":56,"time_elapsed":1486220,"internal_node_id":"0.0-5.0-51.0"},{"rt":37117.61499999999,"responses":"{\"pregunta28\":\"c) Se necesita un marco legal para delimitar lo público y lo privado en materia informativa. \"}","question_order":"[0]","trial_type":"survey-multi-choice","trial_index":57,"time_elapsed":1523340,"internal_node_id":"0.0-5.0-52.0"},{"rt":1792.2750000001397,"response":{"pregunta28 likert":1},"question_order":[0],"trial_type":"survey-likert","trial_index":58,"time_elapsed":1525134,"internal_node_id":"0.0-5.0-53.0"},{"rt":2091.8000000000466,"responses":"{\"pregunta26\":\"a) el sujeto sufre con su modo de vida. \"}","question_order":"[0]","trial_type":"survey-multi-choice","trial_index":59,"time_elapsed":1527228,"internal_node_id":"0.0-5.0-54.0"},{"rt":1174.3200000000652,"response":{"pregunta26 likert":1},"question_order":[0],"trial_type":"survey-likert","trial_index":60,"time_elapsed":1528404,"internal_node_id":"0.0-5.0-55.0"},{"rt":9352.844999999972,"responses":"{\"pregunta11\":\"b) Promover la asistencia a un evento específico de decoración a través de una atractiva descripción. \"}","question_order":"[0]","trial_type":"survey-multi-choice","trial_index":61,"time_elapsed":1537758,"internal_node_id":"0.0-5.0-56.0"},{"rt":1729.8249999997206,"response":{"pregunta11 likert":2},"question_order":[0],"trial_type":"survey-likert","trial_index":62,"time_elapsed":1539490,"internal_node_id":"0.0-5.0-57.0"},{"rt":11016.110000000102,"responses":"{\"pregunta16\":\"b) Deleitar a sus receptores por medio de la belleza y el confort. \"}","question_order":"[0]","trial_type":"survey-multi-choice","trial_index":63,"time_elapsed":1550508,"internal_node_id":"0.0-5.0-58.0"},{"rt":1790.184999999823,"response":{"pregunta16 likert":1},"question_order":[0],"trial_type":"survey-likert","trial_index":64,"time_elapsed":1552300,"internal_node_id":"0.0-5.0-59.0"},{"rt":3428.8199999995995,"stimulus":"<p style=\"font-size: 120%\">Gracias por completar esta etapa del estudio. Ahora te invitamos a responder el cuestionario.<br><br></p>","response":0,"trial_type":"html-button-response","trial_index":65,"time_elapsed":1555734,"internal_node_id":"0.0-6.0"},{"rt":5095.969999999739,"stimulus":"<h1 style=\"margin-top: 5%\">Cuestionario para la Evaluación de Metas Académicas</h1><p style=\"font-size: 120%; margin-left: 3%; margin-top: 5%\">Este es un cuestionario que permite conocer cuáles son los principales motivos por los que los estudiantes se esfuerzan en su trabajo académico. A continuación, se te presentarán una serie de afirmaciones acerca de los motivos que puedes tener para estudiar.<br>Te pedimos que contestes a dichas afirmaciones reflexionando sobre el contenido de cada una de ellas, que, aunque te parezcan semejantes, en realidad, no lo son.<br>NO HAY RESPUESTAS CORRECTAS o INCORRECTAS, sólo queremos que respondas con la mayor precisión y sinceridad posible a las preguntas que se plantean.","response":0,"trial_type":"html-button-response","trial_index":66,"time_elapsed":1560831,"internal_node_id":"0.0-7.0"},{"rt":91971.08000000031,"response":{"Metas cuestionario pregunta1":3,"Metas cuestionario pregunta2":2,"Metas cuestionario pregunta3":4,"Metas cuestionario pregunta4":2,"Metas cuestionario pregunta5":4,"Metas cuestionario pregunta6":3,"Metas cuestionario pregunta7":4,"Metas cuestionario pregunta8":4,"Metas cuestionario pregunta9":1,"Metas cuestionario pregunta10":0,"Metas cuestionario pregunta11":0,"Metas cuestionario pregunta12":0,"Metas cuestionario pregunta13":0,"Metas cuestionario pregunta14":0,"Metas cuestionario pregunta15":4,"Metas cuestionario pregunta16":4,"Metas cuestionario pregunta17":4,"Metas cuestionario pregunta18":4,"Metas cuestionario pregunta19":4,"Metas cuestionario pregunta20":3},"question_order":[0,1,2,3,4,5,6,7,8,9,10,11,12,13,14,15,16,17,18,19],"trial_type":"survey-likert","trial_index":67,"time_elapsed":1652802,"internal_node_id":"0.0-8.0"},{"rt":2746.689999999944,"stimulus":"<p style=\"font-size: 120%\">Gracias por responder el cuestionario. Ahora te invitamos a seguir con el juego, que es muy breve.<br><br></p>","response":0,"trial_type":"html-button-response","trial_index":68,"time_elapsed":1655553,"internal_node_id":"0.0-9.0"},{"rt":11168.330000000075,"stimulus":"<h1>Juego</h1><p style=\"font-size: 120%;\">A continuación se te presentarán 16 pequeñas historias.<br>Por favor lee el texto presentado en cada una de ellas y luego haz click en el objeto de tu elección.<br>Si estás listo(a),<span style=\"color:red;\"> haz click en \"comenzar\"</span>.</p>","response":0,"trial_type":"html-button-response","trial_index":69,"time_elapsed":1666723,"internal_node_id":"0.0-10.0"},{"rt":21195.985000000335,"grid":[[1],[1],[1],[1],[1],[1]],"target":[0,0],"response":[2,0],"correct":false,"juego":5,"trial_type":"serial-reaction-time-mouse","trial_index":70,"time_elapsed":1687921,"internal_node_id":"0.0-11.0-0.0"},{"rt":12559.945000000065,"grid":[[1,1,1],[1,1,1],[1,1,1],[1,1,1],[1,1,1],[1,1,1],[1,1,1]],"target":[0,0],"response":[3,1],"correct":false,"juego":6,"trial_type":"serial-reaction-time-mouse","trial_index":71,"time_elapsed":1700488,"internal_node_id":"0.0-11.0-1.0"},{"rt":16264.284999999683,"grid":[[1,1,1]],"target":[0,2],"response":[0,2],"correct":true,"juego":8,"trial_type":"serial-reaction-time-mouse","trial_index":72,"time_elapsed":1716754,"internal_node_id":"0.0-11.0-2.0"},{"rt":10852.255000000121,"grid":[[1,1,1],[1,1,1],[1,1,1],[1,1,1],[1,1,1],[1,1,1],[1,1,1]],"target":[0,0],"response":[1,1],"correct":false,"juego":13,"trial_type":"serial-reaction-time-mouse","trial_index":73,"time_elapsed":1727608,"internal_node_id":"0.0-11.0-3.0"},{"rt":7342.714999999851,"grid":[[1,1,1]],"target":[0,2],"response":[0,2],"correct":true,"juego":2,"trial_type":"serial-reaction-time-mouse","trial_index":74,"time_elapsed":1734952,"internal_node_id":"0.0-11.0-4.0"},{"rt":18589.33499999973,"grid":[[1,1],[1,1],[1,1],[1,1],[1,1],[1,1],[1,1]],"target":[0,0],"response":[3,1],"correct":false,"juego":14,"trial_type":"serial-reaction-time-mouse","trial_index":75,"time_elapsed":1753543,"internal_node_id":"0.0-11.0-5.0"},{"rt":19988.77000000002,"grid":[[1,1,1]],"target":[0,0],"response":[0,0],"correct":true,"juego":11,"trial_type":"serial-reaction-time-mouse","trial_index":76,"time_elapsed":1773534,"internal_node_id":"0.0-11.0-6.0"},{"rt":20252.309999999823,"grid":[[1,1],[1,1],[1,1],[1,1],[1,1],[1,1],[1,1]],"target":[0,0],"response":[3,1],"correct":false,"juego":15,"trial_type":"serial-reaction-time-mouse","trial_index":77,"time_elapsed":1793788,"internal_node_id":"0.0-11.0-7.0"},{"rt":16498.96499999985,"grid":[[1,1,1],[1,1,1],[1,1,1]],"target":[0,0],"response":[0,0],"correct":true,"juego":10,"trial_type":"serial-reaction-time-mouse","trial_index":78,"time_elapsed":1810289,"internal_node_id":"0.0-11.0-8.0"},{"rt":11281.64000000013,"grid":[[1,1,1]],"target":[0,2],"response":[0,0],"correct":false,"juego":3,"trial_type":"serial-reaction-time-mouse","trial_index":79,"time_elapsed":1821572,"internal_node_id":"0.0-11.0-9.0"},{"rt":3215.5400000000373,"grid":[[1],[1],[1]],"target":[0,2],"response":[1,0],"correct":false,"juego":4,"trial_type":"serial-reaction-time-mouse","trial_index":80,"time_elapsed":1824789,"internal_node_id":"0.0-11.0-10.0"},{"rt":10320.815000000177,"grid":[[1,1,1]],"target":[0,2],"response":[0,0],"correct":false,"juego":7,"trial_type":"serial-reaction-time-mouse","trial_index":81,"time_elapsed":1835110,"internal_node_id":"0.0-11.0-11.0"},{"rt":22093.159999999916,"grid":[[1,1,1]],"target":[0,0],"response":[0,1],"correct":false,"juego":12,"trial_type":"serial-reaction-time-mouse","trial_index":82,"time_elapsed":1857205,"internal_node_id":"0.0-11.0-12.0"},{"rt":2222.505000000121,"grid":[[1,1,1]],"target":[0,2],"response":[0,1],"correct":false,"juego":1,"trial_type":"serial-reaction-time-mouse","trial_index":83,"time_elapsed":1859429,"internal_node_id":"0.0-11.0-13.0"},{"rt":704.6699999999255,"grid":[[1,1,1]],"target":[0,0],"response":[0,1],"correct":false,"juego":9,"trial_type":"serial-reaction-time-mouse","trial_index":84,"time_elapsed":1860135,"internal_node_id":"0.0-11.0-14.0"},{"rt":5878.8650000002235,"stimulus":"<h1>Último juego</h1><p style=\"font-size: 130%;\">Tienes <span style=\"color:red\">20</span> segundos para recordar los pares de palabras que aparecerán a continuación. <br></p>","response":0,"trial_type":"html-button-response","trial_index":85,"time_elapsed":1866017,"internal_node_id":"0.0-12.0"},{"animation_sequence":[{"stimulus":"imagen_juego_interferencia.jpg","time":529.7799999997951},{"stimulus":"imagen_juego_interferencia.jpg","time":1005.2600000000093},{"stimulus":"imagen_juego_interferencia.jpg","time":1501.2099999999627},{"stimulus":"imagen_juego_interferencia.jpg","time":2003.7099999999627},{"stimulus":"imagen_juego_interferencia.jpg","time":2509.975000000093},{"stimulus":"imagen_juego_interferencia.jpg","time":3017.1350000000093},{"stimulus":"imagen_juego_interferencia.jpg","time":3509.1750000002794},{"stimulus":"imagen_juego_interferencia.jpg","time":4003.035000000149},{"stimulus":"imagen_juego_interferencia.jpg","time":4502.165000000037},{"stimulus":"imagen_juego_interferencia.jpg","time":5002.875000000233},{"stimulus":"imagen_juego_interferencia.jpg","time":5511.060000000289},{"stimulus":"imagen_juego_interferencia.jpg","time":6009.080000000307},{"stimulus":"imagen_juego_interferencia.jpg","time":6516.19000000041},{"stimulus":"imagen_juego_interferencia.jpg","time":7008.455000000307},{"stimulus":"imagen_juego_interferencia.jpg","time":7506.965000000084},{"stimulus":"imagen_juego_interferencia.jpg","time":8003.459999999963},{"stimulus":"imagen_juego_interferencia.jpg","time":8506.865000000456},{"stimulus":"imagen_juego_interferencia.jpg","time":9003.230000000214},{"stimulus":"imagen_juego_interferencia.jpg","time":9514.975000000093},{"stimulus":"imagen_juego_interferencia.jpg","time":10007.840000000317},{"stimulus":"imagen_juego_interferencia.jpg","time":10505.725000000093},{"stimulus":"imagen_juego_interferencia.jpg","time":11013.774999999907},{"stimulus":"imagen_juego_interferencia.jpg","time":11516.865000000224},{"stimulus":"imagen_juego_interferencia.jpg","time":12007.36499999999},{"stimulus":"imagen_juego_interferencia.jpg","time":12503.935000000289},{"stimulus":"imagen_juego_interferencia.jpg","time":13017.01000000001},{"stimulus":"imagen_juego_interferencia.jpg","time":13514.870000000112},{"stimulus":"imagen_juego_interferencia.jpg","time":14014.090000000084},{"stimulus":"imagen_juego_interferencia.jpg","time":14508.020000000251},{"stimulus":"imagen_juego_interferencia.jpg","time":15016.14000000013},{"stimulus":"imagen_juego_interferencia.jpg","time":15503.215000000317},{"stimulus":"imagen_juego_interferencia.jpg","time":16002},{"stimulus":"imagen_juego_interferencia.jpg","time":16507.41000000015},{"stimulus":"imagen_juego_interferencia.jpg","time":17012.709999999963},{"stimulus":"imagen_juego_interferencia.jpg","time":17507.889999999898},{"stimulus":"imagen_juego_interferencia.jpg","time":18015.39500000002},{"stimulus":"imagen_juego_interferencia.jpg","time":18514.28500000015},{"stimulus":"imagen_juego_interferencia.jpg","time":19006.92500000028},{"stimulus":"imagen_juego_interferencia.jpg","time":19503.72999999998},{"stimulus":"imagen_juego_interferencia.jpg","time":20003.11499999999}],"response":[],"trial_type":"animation","trial_index":86,"time_elapsed":1886522,"internal_node_id":"0.0-13.0"},{"rt":6767.5999999996275,"responses":"{\"pregunta interferencia4\":\"contador\"}","question_order":"[0]","trial_type":"survey-multi-choice-cuest","trial_index":87,"time_elapsed":1893291,"internal_node_id":"0.0-14.0-0.0"},{"rt":5794.255000000354,"responses":"{\"pregunta interferencia3\":\"aluminio\"}","question_order":"[0]","trial_type":"survey-multi-choice-cuest","trial_index":88,"time_elapsed":1899087,"internal_node_id":"0.0-14.0-1.0"},{"rt":2823.8950000000186,"responses":"{\"pregunta interferencia1\":\"naranja\"}","question_order":"[0]","trial_type":"survey-multi-choice-cuest","trial_index":89,"time_elapsed":1901913,"internal_node_id":"0.0-14.0-2.0"},{"rt":4524.580000000307,"responses":"{\"pregunta interferencia2\":\"cucaracha\"}","question_order":"[0]","trial_type":"survey-multi-choice-cuest","trial_index":90,"time_elapsed":1906439,"internal_node_id":"0.0-14.0-3.0"},{"success":true,"trial_type":"fullscreen","trial_index":91,"time_elapsed":1907443,"internal_node_id":"0.0-15.0"}]