[{"rt":37378.41499998467,"stimulus":"<h1 style=\"color:red; margin-top: 3%;\">¡Bienvenido(a)!</h1><p style=\"text-align:left; justify-content:space-between; margin-right: 5%; margin-left: 5%; margin-top: 5%\"> Antes de empezar el estudio, necesitamos que nos confirmes que estás de acuerdo con participar. Recuerda que tu participación es 100% voluntaria y que lo único que te pedimos es responder lo mejor que puedas. Recuerda también que el estudio incluye:</p><ol style=\"text-align:left; justify-content:space-between; margin-right: 5%; margin-left: 5%;\"><li> un ejercicio de resolución de preguntas de selección múltiple (30’),</li><li>un cuestionario breve (5’),</li><li>un juego muy breve (3’),</li></ol><p style=\"text-align:left; justify-content:space-between; margin-right: 5%; margin-left: 5%;\">Si quieres participar, haz clic en “Acepto” luego de leer lo siguiente:<br></p><p style=\"text-align:left; justify-content:space-between; margin-right: 5%; margin-left: 5%;\">Acepto participar en el estudio “Estrategias de lectura y resolución de preguntas de selección múltiple”, en los términos aquí señalados:<br></p><p style=\"text-align:left; justify-content:space-between; margin-right: 5%; margin-left: 5%;\"><a href=\"http://ciae.uchile.cl/download.php?file=noticias/Asentimiento.pdf\" target=\"_blank\">Link a la hoja de información del Consentimiento.</a></p><p style=\"text-align:left; justify-content:space-between; margin-right: 5%; margin-left: 5%;\">Declaro que he leído (o se me ha leído) y (he) comprendido, las condiciones de mi participación en este estudio. He tenido la oportunidad de hacer preguntas y éstas han sido respondidas. No tengo dudas al respecto.</p>","response":0,"condicion_MCQ":1,"condicion_INTER":19,"numero_participante":43,"numero_version":1,"dimx":1920,"dimy":1080,"color_profundidad":24,"pixel_profundidad":24,"Browser":"Google Chrome","trial_type":"html-button-response","trial_index":0,"time_elapsed":37382,"internal_node_id":"0.0-0.0"},{"success":true,"trial_type":"fullscreen","trial_index":1,"time_elapsed":40952,"internal_node_id":"0.0-1.0"},{"rt":88764.39000002574,"responses":"{\"Nombres\":\"gustavo ignacio\",\"Apellidos\":\"sanchez tapia\",\"Edad\":\"19\",\"Sexo\":\"hombre\",\"Curso\":\"primer año\",\"Colegio\":\"universidad andres bello\",\"Contacto\":\"gustavo.revelier@gmail.com\"}","trial_type":"survey-text","trial_index":2,"time_elapsed":129735,"internal_node_id":"0.0-2.0"},{"success":true,"timeout":false,"failed_images":[],"failed_audio":[],"failed_video":[],"trial_type":"preload","trial_index":3,"time_elapsed":130405,"internal_node_id":"0.0-3.0"},{"rt":14527.605000010226,"stimulus":"<h1 style:\"margin-top: 5%;\">Ejercicios de Comprensión de Lectura de la Universidad de Chile</h1><p style=\"font-size: 120%;\">En esta actividad, debes responder 30 preguntas de selección múltiple. Cada pregunta presenta 3 respuestas alternativas, pero sólo una de ellas es correcta. Por lo tanto, debes escoger una sola alternativa para cada pregunta. Además, debes reportar qué tan seguro(a) estás de la respuesta que das, con un:</p><ol style=\"font-size: 120%;text-align:left;margin-left: 40%;\"><li>No estoy seguro(a) para nada</li><li>No estoy muy seguro(a)</li><li>Estoy bastante seguro(a)</li><li>Estoy totalmente seguro(a)</li></ol><p style=\"font-size: 120%;\">Por favor lee bien los enunciados antes de responder. ¡Éxito!</p>","response":0,"trial_type":"html-button-response","trial_index":4,"time_elapsed":144933,"internal_node_id":"0.0-4.0"},{"rt":49967.089999991,"responses":"{\"pregunta16\":\"a) Mostrar cuerpos que reflejan la máxima potencia. \"}","question_order":"[0]","trial_type":"survey-multi-choice","trial_index":5,"time_elapsed":194902,"internal_node_id":"0.0-5.0-0.0"},{"rt":5986.109999998007,"response":{"pregunta16 likert":2},"question_order":[0],"trial_type":"survey-likert","trial_index":6,"time_elapsed":200890,"internal_node_id":"0.0-5.0-1.0"},{"rt":35887.839999981225,"responses":"{\"pregunta18\":\"c) A la inutilidad de tanto esfuerzo si el objetivo es el reposo. \"}","question_order":"[0]","trial_type":"survey-multi-choice","trial_index":7,"time_elapsed":236780,"internal_node_id":"0.0-5.0-2.0"},{"rt":2281.0650000465102,"response":{"pregunta18 likert":3},"question_order":[0],"trial_type":"survey-likert","trial_index":8,"time_elapsed":239062,"internal_node_id":"0.0-5.0-3.0"},{"rt":89162.04999998445,"responses":"{\"pregunta3\":\"b) El inicio de la civilización china. \"}","question_order":"[0]","trial_type":"survey-multi-choice","trial_index":9,"time_elapsed":328226,"internal_node_id":"0.0-5.0-4.0"},{"rt":1946.8900000210851,"response":{"pregunta3 likert":3},"question_order":[0],"trial_type":"survey-likert","trial_index":10,"time_elapsed":330175,"internal_node_id":"0.0-5.0-5.0"},{"rt":33158.835000009276,"responses":"{\"pregunta8\":\"b) Comparar a Cervantes con Quevedo. \"}","question_order":"[0]","trial_type":"survey-multi-choice","trial_index":11,"time_elapsed":363335,"internal_node_id":"0.0-5.0-6.0"},{"rt":2794.5049999980256,"response":{"pregunta8 likert":1},"question_order":[0],"trial_type":"survey-likert","trial_index":12,"time_elapsed":366131,"internal_node_id":"0.0-5.0-7.0"},{"rt":47200.455000041984,"responses":"{\"pregunta14\":\"c) la persistencia de la melancolía y la desesperanza. \"}","question_order":"[0]","trial_type":"survey-multi-choice","trial_index":13,"time_elapsed":413333,"internal_node_id":"0.0-5.0-8.0"},{"rt":1176.8799999845214,"response":{"pregunta14 likert":2},"question_order":[0],"trial_type":"survey-likert","trial_index":14,"time_elapsed":414511,"internal_node_id":"0.0-5.0-9.0"},{"rt":68368.7149999896,"responses":"{\"pregunta9\":\"a) pueden rendir exámenes para optar y obtener títulos profesionales igual que los hombres. \"}","question_order":"[0]","trial_type":"survey-multi-choice","trial_index":15,"time_elapsed":482882,"internal_node_id":"0.0-5.0-10.0"},{"rt":2050.2749999868684,"response":{"pregunta9 likert":2},"question_order":[0],"trial_type":"survey-likert","trial_index":16,"time_elapsed":484934,"internal_node_id":"0.0-5.0-11.0"},{"rt":67294.90999999689,"responses":"{\"pregunta19\":\"c) Las personas que leen son más flexibles en sus ideas y autónomas en su accionar. \"}","question_order":"[0]","trial_type":"survey-multi-choice","trial_index":17,"time_elapsed":552230,"internal_node_id":"0.0-5.0-12.0"},{"rt":1414.6250000339933,"response":{"pregunta19 likert":1},"question_order":[0],"trial_type":"survey-likert","trial_index":18,"time_elapsed":553646,"internal_node_id":"0.0-5.0-13.0"},{"rt":38650.81999998074,"responses":"{\"pregunta23\":\"b) A la inexistencia de un recinto adecuado para el recital. \"}","question_order":"[0]","trial_type":"survey-multi-choice","trial_index":19,"time_elapsed":592298,"internal_node_id":"0.0-5.0-14.0"},{"rt":1724.5950000360608,"response":{"pregunta23 likert":3},"question_order":[0],"trial_type":"survey-likert","trial_index":20,"time_elapsed":594024,"internal_node_id":"0.0-5.0-15.0"},{"rt":123061.91000004765,"responses":"{\"pregunta12\":\"b) se da como existente, y sólo se discute su relación con el cuerpo. \"}","question_order":"[0]","trial_type":"survey-multi-choice","trial_index":21,"time_elapsed":717087,"internal_node_id":"0.0-5.0-16.0"},{"rt":1497.8750000009313,"response":{"pregunta12 likert":1},"question_order":[0],"trial_type":"survey-likert","trial_index":22,"time_elapsed":718586,"internal_node_id":"0.0-5.0-17.0"},{"rt":118257.10500002606,"responses":"{\"pregunta7\":\"b) La imprenta y el papel han permitido el desarrollo de la civilización y la conservación de su cultura, y ambos son inventos chinos. \"}","question_order":"[0]","trial_type":"survey-multi-choice","trial_index":23,"time_elapsed":836845,"internal_node_id":"0.0-5.0-18.0"},{"rt":1730.6049999897368,"response":{"pregunta7 likert":2},"question_order":[0],"trial_type":"survey-likert","trial_index":24,"time_elapsed":838577,"internal_node_id":"0.0-5.0-19.0"},{"rt":73091.09999996144,"responses":"{\"pregunta17\":\"b) Homenajear a quienes murieron. \"}","question_order":"[0]","trial_type":"survey-multi-choice","trial_index":25,"time_elapsed":911669,"internal_node_id":"0.0-5.0-20.0"},{"rt":1426.7600000021048,"response":{"pregunta17 likert":3},"question_order":[0],"trial_type":"survey-likert","trial_index":26,"time_elapsed":913098,"internal_node_id":"0.0-5.0-21.0"},{"rt":167499.62499999674,"responses":"{\"pregunta10\":\"b) La biónica puede asegurar nuestra existencia mediante la aplicación de técnicas copiadas de la naturaleza. \"}","question_order":"[0]","trial_type":"survey-multi-choice","trial_index":27,"time_elapsed":1080599,"internal_node_id":"0.0-5.0-22.0"},{"rt":3863.0100000300445,"response":{"pregunta10 likert":2},"question_order":[0],"trial_type":"survey-likert","trial_index":28,"time_elapsed":1084463,"internal_node_id":"0.0-5.0-23.0"},{"rt":78780.49500001362,"responses":"{\"pregunta21\":\"a) el uranio es el elemento natural con el mayor número de protones en el núcleo. \"}","question_order":"[0]","trial_type":"survey-multi-choice","trial_index":29,"time_elapsed":1163245,"internal_node_id":"0.0-5.0-24.0"},{"rt":1330.9799999697134,"response":{"pregunta21 likert":2},"question_order":[0],"trial_type":"survey-likert","trial_index":30,"time_elapsed":1164577,"internal_node_id":"0.0-5.0-25.0"},{"rt":44180.86999998195,"responses":"{\"pregunta24\":\"c) La publicidad ejerce una influencia positiva sobre la sociedad. \"}","question_order":"[0]","trial_type":"survey-multi-choice","trial_index":31,"time_elapsed":1208759,"internal_node_id":"0.0-5.0-26.0"},{"rt":3629.224999982398,"response":{"pregunta24 likert":1},"question_order":[0],"trial_type":"survey-likert","trial_index":32,"time_elapsed":1212390,"internal_node_id":"0.0-5.0-27.0"},{"rt":56510.980000020936,"responses":"{\"pregunta15\":\"a) ritualistas y obsesivos. \"}","question_order":"[0]","trial_type":"survey-multi-choice","trial_index":33,"time_elapsed":1268902,"internal_node_id":"0.0-5.0-28.0"},{"rt":1663.9549999963492,"response":{"pregunta15 likert":2},"question_order":[0],"trial_type":"survey-likert","trial_index":34,"time_elapsed":1270568,"internal_node_id":"0.0-5.0-29.0"},{"rt":112843.30000000773,"responses":"{\"pregunta4\":\"a) En la literatura como en la vida, todo es metáfora. \"}","question_order":"[0]","trial_type":"survey-multi-choice","trial_index":35,"time_elapsed":1383412,"internal_node_id":"0.0-5.0-30.0"},{"rt":2078.9849999709986,"response":{"pregunta4 likert":2},"question_order":[0],"trial_type":"survey-likert","trial_index":36,"time_elapsed":1385493,"internal_node_id":"0.0-5.0-31.0"},{"rt":41480.414999998175,"responses":"{\"pregunta20\":\"c) el mejor emperador es el que está muerto. \"}","question_order":"[0]","trial_type":"survey-multi-choice","trial_index":37,"time_elapsed":1426975,"internal_node_id":"0.0-5.0-32.0"},{"rt":1216.6399999987334,"response":{"pregunta20 likert":3},"question_order":[0],"trial_type":"survey-likert","trial_index":38,"time_elapsed":1428193,"internal_node_id":"0.0-5.0-33.0"},{"rt":89851.22499999125,"responses":"{\"pregunta22\":\"b) Bomberos debería tener acceso a un seguro médico, al que pueda recurrir en caso de accidente. \"}","question_order":"[0]","trial_type":"survey-multi-choice","trial_index":39,"time_elapsed":1518045,"internal_node_id":"0.0-5.0-34.0"},{"rt":1704.1449999669567,"response":{"pregunta22 likert":2},"question_order":[0],"trial_type":"survey-likert","trial_index":40,"time_elapsed":1519752,"internal_node_id":"0.0-5.0-35.0"},{"rt":37270.384999981616,"responses":"{\"pregunta29\":\"a) la Muerte vaticina el futuro mediante gestos. \"}","question_order":"[0]","trial_type":"survey-multi-choice","trial_index":41,"time_elapsed":1557023,"internal_node_id":"0.0-5.0-36.0"},{"rt":2629.060000006575,"response":{"pregunta29 likert":3},"question_order":[0],"trial_type":"survey-likert","trial_index":42,"time_elapsed":1559653,"internal_node_id":"0.0-5.0-37.0"},{"rt":124131.22999999905,"responses":"{\"pregunta25\":\"c) llevan un control grupal de su embarazo. \"}","question_order":"[0]","trial_type":"survey-multi-choice","trial_index":43,"time_elapsed":1683786,"internal_node_id":"0.0-5.0-38.0"},{"rt":1480.875000008382,"response":{"pregunta25 likert":1},"question_order":[0],"trial_type":"survey-likert","trial_index":44,"time_elapsed":1685268,"internal_node_id":"0.0-5.0-39.0"},{"rt":30218.48499996122,"responses":"{\"pregunta2\":\"a) A la relación entre pensamiento y estructura social. \"}","question_order":"[0]","trial_type":"survey-multi-choice","trial_index":45,"time_elapsed":1715488,"internal_node_id":"0.0-5.0-40.0"},{"rt":1510.695000004489,"response":{"pregunta2 likert":2},"question_order":[0],"trial_type":"survey-likert","trial_index":46,"time_elapsed":1717000,"internal_node_id":"0.0-5.0-41.0"},{"rt":132131.51999999536,"responses":"{\"pregunta11\":\"a) Promover la asistencia a un evento específico de decoración a través de una atractiva descripción. \"}","question_order":"[0]","trial_type":"survey-multi-choice","trial_index":47,"time_elapsed":1849133,"internal_node_id":"0.0-5.0-42.0"},{"rt":1749.7600000351667,"response":{"pregunta11 likert":2},"question_order":[0],"trial_type":"survey-likert","trial_index":48,"time_elapsed":1850885,"internal_node_id":"0.0-5.0-43.0"},{"rt":29546.839999966323,"responses":"{\"pregunta27\":\"a) Nuestra economía vivirá un proceso de ajuste a la nueva realidad. \"}","question_order":"[0]","trial_type":"survey-multi-choice","trial_index":49,"time_elapsed":1880433,"internal_node_id":"0.0-5.0-44.0"},{"rt":1392.554999969434,"response":{"pregunta27 likert":2},"question_order":[0],"trial_type":"survey-likert","trial_index":50,"time_elapsed":1881827,"internal_node_id":"0.0-5.0-45.0"},{"rt":416485.56500003906,"responses":"{\"pregunta1\":\"a) Entregan una característica detallada del personaje, a través de la voz narrativa. \"}","question_order":"[0]","trial_type":"survey-multi-choice","trial_index":51,"time_elapsed":2298314,"internal_node_id":"0.0-5.0-46.0"},{"rt":2151.934999972582,"response":{"pregunta1 likert":2},"question_order":[0],"trial_type":"survey-likert","trial_index":52,"time_elapsed":2300468,"internal_node_id":"0.0-5.0-47.0"},{"rt":156557.3549999972,"responses":"{\"pregunta5\":\"b) En los viajes es esencial el momento mismo de la escritura. \"}","question_order":"[0]","trial_type":"survey-multi-choice","trial_index":53,"time_elapsed":2457026,"internal_node_id":"0.0-5.0-48.0"},{"rt":1451.984999992419,"response":{"pregunta5 likert":1},"question_order":[0],"trial_type":"survey-likert","trial_index":54,"time_elapsed":2458480,"internal_node_id":"0.0-5.0-49.0"},{"rt":18701.064999972004,"responses":"{\"pregunta30\":\"a) para el mexicano, la muerte es cotidiana. \"}","question_order":"[0]","trial_type":"survey-multi-choice","trial_index":55,"time_elapsed":2477182,"internal_node_id":"0.0-5.0-50.0"},{"rt":1122.1849999856204,"response":{"pregunta30 likert":2},"question_order":[0],"trial_type":"survey-likert","trial_index":56,"time_elapsed":2478306,"internal_node_id":"0.0-5.0-51.0"},{"rt":185063.9749999973,"responses":"{\"pregunta13\":\"a) Lo que es normal en un asilo es anormal en un campo de concentración. \"}","question_order":"[0]","trial_type":"survey-multi-choice","trial_index":57,"time_elapsed":2663371,"internal_node_id":"0.0-5.0-52.0"},{"rt":1564.2450000159442,"response":{"pregunta13 likert":1},"question_order":[0],"trial_type":"survey-likert","trial_index":58,"time_elapsed":2664937,"internal_node_id":"0.0-5.0-53.0"},{"rt":46399.06500000507,"responses":"{\"pregunta26\":\"c) el hombre excesivo es inmoral. \"}","question_order":"[0]","trial_type":"survey-multi-choice","trial_index":59,"time_elapsed":2711338,"internal_node_id":"0.0-5.0-54.0"},{"rt":1019.0950000542216,"response":{"pregunta26 likert":1},"question_order":[0],"trial_type":"survey-likert","trial_index":60,"time_elapsed":2712358,"internal_node_id":"0.0-5.0-55.0"},{"rt":25256.435000046622,"responses":"{\"pregunta28\":\"a) El derecho a informar y el derecho a la privacidad son inconciliables. \"}","question_order":"[0]","trial_type":"survey-multi-choice","trial_index":61,"time_elapsed":2737615,"internal_node_id":"0.0-5.0-56.0"},{"rt":1236.8049999931827,"response":{"pregunta28 likert":2},"question_order":[0],"trial_type":"survey-likert","trial_index":62,"time_elapsed":2738853,"internal_node_id":"0.0-5.0-57.0"},{"rt":79021.40500000678,"responses":"{\"pregunta6\":\"c) Las voces extranjeras viven una tensión entre la aceptación y el rechazo. \"}","question_order":"[0]","trial_type":"survey-multi-choice","trial_index":63,"time_elapsed":2817877,"internal_node_id":"0.0-5.0-58.0"},{"rt":1497.864999982994,"response":{"pregunta6 likert":1},"question_order":[0],"trial_type":"survey-likert","trial_index":64,"time_elapsed":2819376,"internal_node_id":"0.0-5.0-59.0"},{"rt":3088.790000008885,"stimulus":"<p style=\"font-size: 120%\">Gracias por completar esta etapa del estudio. Ahora te invitamos a responder el cuestionario.<br><br></p>","response":0,"trial_type":"html-button-response","trial_index":65,"time_elapsed":2822468,"internal_node_id":"0.0-6.0"},{"rt":5295.095000008587,"stimulus":"<h1 style=\"margin-top: 5%\">Cuestionario para la Evaluación de Metas Académicas</h1><p style=\"font-size: 120%; margin-left: 3%; margin-top: 5%\">Este es un cuestionario que permite conocer cuáles son los principales motivos por los que los estudiantes se esfuerzan en su trabajo académico. A continuación, se te presentarán una serie de afirmaciones acerca de los motivos que puedes tener para estudiar.<br>Te pedimos que contestes a dichas afirmaciones reflexionando sobre el contenido de cada una de ellas, que, aunque te parezcan semejantes, en realidad, no lo son.<br>NO HAY RESPUESTAS CORRECTAS o INCORRECTAS, sólo queremos que respondas con la mayor precisión y sinceridad posible a las preguntas que se plantean.","response":0,"trial_type":"html-button-response","trial_index":66,"time_elapsed":2827764,"internal_node_id":"0.0-7.0"},{"rt":79740.0599999819,"response":{"Metas cuestionario pregunta1":2,"Metas cuestionario pregunta2":4,"Metas cuestionario pregunta3":3,"Metas cuestionario pregunta4":2,"Metas cuestionario pregunta5":4,"Metas cuestionario pregunta6":4,"Metas cuestionario pregunta7":4,"Metas cuestionario pregunta8":4,"Metas cuestionario pregunta9":4,"Metas cuestionario pregunta10":4,"Metas cuestionario pregunta11":4,"Metas cuestionario pregunta12":4,"Metas cuestionario pregunta13":4,"Metas cuestionario pregunta14":3,"Metas cuestionario pregunta15":4,"Metas cuestionario pregunta16":4,"Metas cuestionario pregunta17":4,"Metas cuestionario pregunta18":4,"Metas cuestionario pregunta19":4,"Metas cuestionario pregunta20":4},"question_order":[0,1,2,3,4,5,6,7,8,9,10,11,12,13,14,15,16,17,18,19],"trial_type":"survey-likert","trial_index":67,"time_elapsed":2907511,"internal_node_id":"0.0-8.0"},{"rt":2606.4349999651313,"stimulus":"<p style=\"font-size: 120%\">Gracias por responder el cuestionario. Ahora te invitamos a seguir con el juego, que es muy breve.<br><br></p>","response":0,"trial_type":"html-button-response","trial_index":68,"time_elapsed":2910121,"internal_node_id":"0.0-9.0"},{"rt":6792.509999999311,"stimulus":"<h1>Juego</h1><p style=\"font-size: 120%;\">A continuación se te presentarán 16 pequeñas historias.<br>Por favor lee el texto presentado en cada una de ellas y luego haz click en el objeto de tu elección.<br>Si estás listo(a),<span style=\"color:red;\"> haz click en \"comenzar\"</span>.</p>","response":0,"trial_type":"html-button-response","trial_index":69,"time_elapsed":2916915,"internal_node_id":"0.0-10.0"},{"rt":3389.9749999982305,"grid":[[1,1,1]],"target":[0,2],"response":[0,1],"correct":false,"juego":1,"trial_type":"serial-reaction-time-mouse","trial_index":70,"time_elapsed":2920306,"internal_node_id":"0.0-11.0-0.0"},{"rt":6612.330000032671,"grid":[[1,1,1]],"target":[0,2],"response":[0,2],"correct":true,"juego":3,"trial_type":"serial-reaction-time-mouse","trial_index":71,"time_elapsed":2926920,"internal_node_id":"0.0-11.0-1.0"},{"rt":7266.005000041332,"grid":[[1,1,1]],"target":[0,2],"response":[0,1],"correct":false,"juego":7,"trial_type":"serial-reaction-time-mouse","trial_index":72,"time_elapsed":2934187,"internal_node_id":"0.0-11.0-2.0"},{"rt":7405.269999988377,"grid":[[1,1,1]],"target":[0,0],"response":[0,1],"correct":false,"juego":11,"trial_type":"serial-reaction-time-mouse","trial_index":73,"time_elapsed":2941594,"internal_node_id":"0.0-11.0-3.0"},{"rt":15694.964999973308,"grid":[[1,1,1],[1,1,1],[1,1,1],[1,1,1],[1,1,1],[1,1,1],[1,1,1]],"target":[0,0],"response":[3,1],"correct":false,"juego":13,"trial_type":"serial-reaction-time-mouse","trial_index":74,"time_elapsed":2957291,"internal_node_id":"0.0-11.0-4.0"},{"rt":8634.780000022147,"grid":[[1,1,1]],"target":[0,2],"response":[0,0],"correct":false,"juego":8,"trial_type":"serial-reaction-time-mouse","trial_index":75,"time_elapsed":2965928,"internal_node_id":"0.0-11.0-5.0"},{"rt":5284.970000036992,"grid":[[1,1],[1,1],[1,1],[1,1],[1,1],[1,1],[1,1]],"target":[0,0],"response":[1,1],"correct":false,"juego":14,"trial_type":"serial-reaction-time-mouse","trial_index":76,"time_elapsed":2971214,"internal_node_id":"0.0-11.0-6.0"},{"rt":9418.569999979809,"grid":[[1,1,1],[1,1,1],[1,1,1]],"target":[0,0],"response":[0,0],"correct":true,"juego":10,"trial_type":"serial-reaction-time-mouse","trial_index":77,"time_elapsed":2980634,"internal_node_id":"0.0-11.0-7.0"},{"rt":4668.765000009444,"grid":[[1,1,1]],"target":[0,2],"response":[0,1],"correct":false,"juego":2,"trial_type":"serial-reaction-time-mouse","trial_index":78,"time_elapsed":2985304,"internal_node_id":"0.0-11.0-8.0"},{"rt":10029.435000033118,"grid":[[1,1],[1,1],[1,1],[1,1],[1,1],[1,1],[1,1]],"target":[0,0],"response":[1,1],"correct":false,"juego":15,"trial_type":"serial-reaction-time-mouse","trial_index":79,"time_elapsed":2995334,"internal_node_id":"0.0-11.0-9.0"},{"rt":6464.240000001155,"grid":[[1,1,1],[1,1,1],[1,1,1],[1,1,1],[1,1,1],[1,1,1],[1,1,1]],"target":[0,0],"response":[1,1],"correct":false,"juego":6,"trial_type":"serial-reaction-time-mouse","trial_index":80,"time_elapsed":3001800,"internal_node_id":"0.0-11.0-10.0"},{"rt":8508.834999985993,"grid":[[1],[1],[1],[1],[1],[1]],"target":[0,0],"response":[2,0],"correct":false,"juego":5,"trial_type":"serial-reaction-time-mouse","trial_index":81,"time_elapsed":3010310,"internal_node_id":"0.0-11.0-11.0"},{"rt":2084.9100000341423,"grid":[[1,1,1]],"target":[0,0],"response":[0,1],"correct":false,"juego":9,"trial_type":"serial-reaction-time-mouse","trial_index":82,"time_elapsed":3012396,"internal_node_id":"0.0-11.0-12.0"},{"rt":2524.47000000393,"grid":[[1],[1],[1]],"target":[0,2],"response":[1,0],"correct":false,"juego":4,"trial_type":"serial-reaction-time-mouse","trial_index":83,"time_elapsed":3014922,"internal_node_id":"0.0-11.0-13.0"},{"rt":4896.85499999905,"grid":[[1,1,1]],"target":[0,0],"response":[0,1],"correct":false,"juego":12,"trial_type":"serial-reaction-time-mouse","trial_index":84,"time_elapsed":3019820,"internal_node_id":"0.0-11.0-14.0"},{"rt":3868.96000005072,"stimulus":"<h1>Último juego</h1><p style=\"font-size: 130%;\">Tienes <span style=\"color:red\">20</span> segundos para recordar los pares de palabras que aparecerán a continuación. <br></p>","response":0,"trial_type":"html-button-response","trial_index":85,"time_elapsed":3023691,"internal_node_id":"0.0-12.0"},{"animation_sequence":[{"stimulus":"imagen_juego_interferencia.jpg","time":512.6699999673292},{"stimulus":"imagen_juego_interferencia.jpg","time":1002.5949999690056},{"stimulus":"imagen_juego_interferencia.jpg","time":1501.3550000148825},{"stimulus":"imagen_juego_interferencia.jpg","time":2001.319999981206},{"stimulus":"imagen_juego_interferencia.jpg","time":2501.025000005029},{"stimulus":"imagen_juego_interferencia.jpg","time":3001.879999996163},{"stimulus":"imagen_juego_interferencia.jpg","time":3501.8849999760278},{"stimulus":"imagen_juego_interferencia.jpg","time":4003.8300000014715},{"stimulus":"imagen_juego_interferencia.jpg","time":4502.5299999979325},{"stimulus":"imagen_juego_interferencia.jpg","time":5000.854999991134},{"stimulus":"imagen_juego_interferencia.jpg","time":5501.579999981914},{"stimulus":"imagen_juego_interferencia.jpg","time":6000.780000002123},{"stimulus":"imagen_juego_interferencia.jpg","time":6510.66999998875},{"stimulus":"imagen_juego_interferencia.jpg","time":7011.920000019018},{"stimulus":"imagen_juego_interferencia.jpg","time":7512.794999987818},{"stimulus":"imagen_juego_interferencia.jpg","time":8001.119999971706},{"stimulus":"imagen_juego_interferencia.jpg","time":8501.534999988507},{"stimulus":"imagen_juego_interferencia.jpg","time":9001.579999981914},{"stimulus":"imagen_juego_interferencia.jpg","time":9501.845000020694},{"stimulus":"imagen_juego_interferencia.jpg","time":10000.92500000028},{"stimulus":"imagen_juego_interferencia.jpg","time":10501.96500000311},{"stimulus":"imagen_juego_interferencia.jpg","time":11001.534999988507},{"stimulus":"imagen_juego_interferencia.jpg","time":11500.884999986738},{"stimulus":"imagen_juego_interferencia.jpg","time":12001.34000001708},{"stimulus":"imagen_juego_interferencia.jpg","time":12501.944999967236},{"stimulus":"imagen_juego_interferencia.jpg","time":13011.415000015404},{"stimulus":"imagen_juego_interferencia.jpg","time":13509.599999990314},{"stimulus":"imagen_juego_interferencia.jpg","time":14010.064999980386},{"stimulus":"imagen_juego_interferencia.jpg","time":14505.829999980051},{"stimulus":"imagen_juego_interferencia.jpg","time":15001.095000014175},{"stimulus":"imagen_juego_interferencia.jpg","time":15501.749999995809},{"stimulus":"imagen_juego_interferencia.jpg","time":16001.084999996237},{"stimulus":"imagen_juego_interferencia.jpg","time":16501.854999980424},{"stimulus":"imagen_juego_interferencia.jpg","time":17000.884999986738},{"stimulus":"imagen_juego_interferencia.jpg","time":17501.69999996433},{"stimulus":"imagen_juego_interferencia.jpg","time":18001.82499998482},{"stimulus":"imagen_juego_interferencia.jpg","time":18500.969999993686},{"stimulus":"imagen_juego_interferencia.jpg","time":19001.055000000633},{"stimulus":"imagen_juego_interferencia.jpg","time":19501.059999980498},{"stimulus":"imagen_juego_interferencia.jpg","time":20001.884999976028}],"response":[],"trial_type":"animation","trial_index":86,"time_elapsed":3044194,"internal_node_id":"0.0-13.0"},{"rt":5450.085000018589,"responses":"{\"pregunta interferencia3\":\"aluminio\"}","question_order":"[0]","trial_type":"survey-multi-choice-cuest","trial_index":87,"time_elapsed":3049646,"internal_node_id":"0.0-14.0-0.0"},{"rt":3010.9250000095926,"responses":"{\"pregunta interferencia4\":\"contador\"}","question_order":"[0]","trial_type":"survey-multi-choice-cuest","trial_index":88,"time_elapsed":3052658,"internal_node_id":"0.0-14.0-1.0"},{"rt":2088.294999965001,"responses":"{\"pregunta interferencia1\":\"naranja\"}","question_order":"[0]","trial_type":"survey-multi-choice-cuest","trial_index":89,"time_elapsed":3054748,"internal_node_id":"0.0-14.0-2.0"},{"rt":2270.6900000339374,"responses":"{\"pregunta interferencia2\":\"saltamontes\"}","question_order":"[0]","trial_type":"survey-multi-choice-cuest","trial_index":90,"time_elapsed":3057020,"internal_node_id":"0.0-14.0-3.0"},{"success":true,"trial_type":"fullscreen","trial_index":91,"time_elapsed":3058026,"internal_node_id":"0.0-15.0"},{"rt":13548.230000014883,"responses":"{\"Telefono\":\"+56976712354\"}","trial_type":"survey-text","trial_index":92,"time_elapsed":3071578,"internal_node_id":"0.0-16.0"}]