[{"rt":24978.899999976158,"stimulus":"<h1 style=\"color:red; margin-top: 3%;\">¡Bienvenido(a)!</h1><p style=\"text-align:left; justify-content:space-between; margin-right: 5%; margin-left: 5%; margin-top: 5%\"> Antes de empezar el estudio, necesitamos que nos confirmes que estás de acuerdo con participar. Recuerda que tu participación es 100% voluntaria y que lo único que te pedimos es responder lo mejor que puedas. Recuerda también que el estudio incluye:</p><ol style=\"text-align:left; justify-content:space-between; margin-right: 5%; margin-left: 5%;\"><li> un ejercicio de resolución de preguntas de selección múltiple (30’),</li><li>un cuestionario breve (5’),</li><li>un juego muy breve (3’),</li></ol><p style=\"text-align:left; justify-content:space-between; margin-right: 5%; margin-left: 5%;\">Si quieres participar, haz clic en “Acepto” luego de leer lo siguiente:<br></p><p style=\"text-align:left; justify-content:space-between; margin-right: 5%; margin-left: 5%;\">Acepto participar en el estudio “Estrategias de lectura y resolución de preguntas de selección múltiple”, en los términos aquí señalados:<br></p><p style=\"text-align:left; justify-content:space-between; margin-right: 5%; margin-left: 5%;\"><a href=\"http://ciae.uchile.cl/download.php?file=noticias/Asentimiento.pdf\" target=\"_blank\">Link a la hoja de información del Consentimiento.</a></p><p style=\"text-align:left; justify-content:space-between; margin-right: 5%; margin-left: 5%;\">Declaro que he leído (o se me ha leído) y (he) comprendido, las condiciones de mi participación en este estudio. He tenido la oportunidad de hacer preguntas y éstas han sido respondidas. No tengo dudas al respecto.</p>","response":0,"condicion_MCQ":2,"condicion_INTER":14,"numero_participante":14,"numero_version":1,"dimx":1366,"dimy":768,"color_profundidad":24,"pixel_profundidad":24,"Browser":"Google Chrome","trial_type":"html-button-response","trial_index":0,"time_elapsed":24982,"internal_node_id":"0.0-0.0"},{"success":true,"trial_type":"fullscreen","trial_index":1,"time_elapsed":30645,"internal_node_id":"0.0-1.0"},{"rt":98649.59999996424,"responses":"{\"Nombres\":\"paula catalina\",\"Apellidos\":\"reyes lopez\",\"Edad\":\"19\",\"Sexo\":\"mujer\",\"Curso\":\"primer año psicologia\",\"Colegio\":\"universidad andres bello\",\"Contacto\":\"paula.reyes.lopez06@gmail.com\"}","trial_type":"survey-text","trial_index":2,"time_elapsed":129309,"internal_node_id":"0.0-2.0"},{"success":true,"timeout":false,"failed_images":[],"failed_audio":[],"failed_video":[],"trial_type":"preload","trial_index":3,"time_elapsed":130477,"internal_node_id":"0.0-3.0"},{"rt":20325.099999964237,"stimulus":"<h1 style:\"margin-top: 5%;\">Ejercicios de Comprensión de Lectura de la Universidad de Chile</h1><p style=\"font-size: 120%;\">En esta actividad, debes responder 30 preguntas de selección múltiple. Cada pregunta presenta 3 respuestas alternativas, pero sólo una de ellas es correcta. Por lo tanto, debes escoger una sola alternativa para cada pregunta. Además, debes reportar qué tan seguro(a) estás de la respuesta que das, con un:</p><ol style=\"font-size: 120%;text-align:left;margin-left: 40%;\"><li>No estoy seguro(a) para nada</li><li>No estoy muy seguro(a)</li><li>Estoy bastante seguro(a)</li><li>Estoy totalmente seguro(a)</li></ol><p style=\"font-size: 120%;\">Por favor lee bien los enunciados antes de responder. ¡Éxito!</p>","response":0,"trial_type":"html-button-response","trial_index":4,"time_elapsed":150804,"internal_node_id":"0.0-4.0"},{"rt":87014.29999995232,"responses":"{\"pregunta24\":\"a) La publicidad ejerce una influencia positiva sobre la sociedad. \"}","question_order":"[0]","trial_type":"survey-multi-choice","trial_index":5,"time_elapsed":237821,"internal_node_id":"0.0-5.0-0.0"},{"rt":4474.699999988079,"response":{"pregunta24 likert":2},"question_order":[0],"trial_type":"survey-likert","trial_index":6,"time_elapsed":242301,"internal_node_id":"0.0-5.0-1.0"},{"rt":110428.40000003576,"responses":"{\"pregunta11\":\"a) Presentar positivamente las diversas tendencias del diseño de interiores a través de un comentario. \"}","question_order":"[0]","trial_type":"survey-multi-choice","trial_index":7,"time_elapsed":352731,"internal_node_id":"0.0-5.0-2.0"},{"rt":2403.199999988079,"response":{"pregunta11 likert":2},"question_order":[0],"trial_type":"survey-likert","trial_index":8,"time_elapsed":355139,"internal_node_id":"0.0-5.0-3.0"},{"rt":68641.60000002384,"responses":"{\"pregunta10\":\"c) La biónica puede asegurar nuestra existencia mediante la aplicación de técnicas copiadas de la naturaleza. \"}","question_order":"[0]","trial_type":"survey-multi-choice","trial_index":9,"time_elapsed":423789,"internal_node_id":"0.0-5.0-4.0"},{"rt":1865.199999988079,"response":{"pregunta10 likert":3},"question_order":[0],"trial_type":"survey-likert","trial_index":10,"time_elapsed":425661,"internal_node_id":"0.0-5.0-5.0"},{"rt":34689.09999996424,"responses":"{\"pregunta28\":\"c) Se necesita un marco legal para delimitar lo público y lo privado en materia informativa. \"}","question_order":"[0]","trial_type":"survey-multi-choice","trial_index":11,"time_elapsed":460357,"internal_node_id":"0.0-5.0-6.0"},{"rt":2027,"response":{"pregunta28 likert":3},"question_order":[0],"trial_type":"survey-likert","trial_index":12,"time_elapsed":462389,"internal_node_id":"0.0-5.0-7.0"},{"rt":84074.19999998808,"responses":"{\"pregunta12\":\"c) se da como existente, y sólo se discute su relación con el cuerpo. \"}","question_order":"[0]","trial_type":"survey-multi-choice","trial_index":13,"time_elapsed":546469,"internal_node_id":"0.0-5.0-8.0"},{"rt":1586.3999999761581,"response":{"pregunta12 likert":2},"question_order":[0],"trial_type":"survey-likert","trial_index":14,"time_elapsed":548060,"internal_node_id":"0.0-5.0-9.0"},{"rt":50589.5,"responses":"{\"pregunta17\":\"c) Homenajear a quienes murieron. \"}","question_order":"[0]","trial_type":"survey-multi-choice","trial_index":15,"time_elapsed":598652,"internal_node_id":"0.0-5.0-10.0"},{"rt":1939.0999999642372,"response":{"pregunta17 likert":3},"question_order":[0],"trial_type":"survey-likert","trial_index":16,"time_elapsed":600596,"internal_node_id":"0.0-5.0-11.0"},{"rt":61978.5,"responses":"{\"pregunta9\":\"b) pueden rendir exámenes para optar y obtener títulos profesionales igual que los hombres. \"}","question_order":"[0]","trial_type":"survey-multi-choice","trial_index":17,"time_elapsed":662581,"internal_node_id":"0.0-5.0-12.0"},{"rt":2034.9000000357628,"response":{"pregunta9 likert":3},"question_order":[0],"trial_type":"survey-likert","trial_index":18,"time_elapsed":664621,"internal_node_id":"0.0-5.0-13.0"},{"rt":92986,"responses":"{\"pregunta7\":\"a) Si desaparecieran el papel y la imprenta, se produciría un gran retraso en nuestra civilización. \"}","question_order":"[0]","trial_type":"survey-multi-choice","trial_index":19,"time_elapsed":757613,"internal_node_id":"0.0-5.0-14.0"},{"rt":3402.400000035763,"response":{"pregunta7 likert":3},"question_order":[0],"trial_type":"survey-likert","trial_index":20,"time_elapsed":761021,"internal_node_id":"0.0-5.0-15.0"},{"rt":48778.40000003576,"responses":"{\"pregunta4\":\"b) En la literatura como en la vida, todo es metáfora. \"}","question_order":"[0]","trial_type":"survey-multi-choice","trial_index":21,"time_elapsed":809805,"internal_node_id":"0.0-5.0-16.0"},{"rt":1634.199999988079,"response":{"pregunta4 likert":3},"question_order":[0],"trial_type":"survey-likert","trial_index":22,"time_elapsed":811445,"internal_node_id":"0.0-5.0-17.0"},{"rt":65386.59999996424,"responses":"{\"pregunta25\":\"a) llevan un control grupal de su embarazo. \"}","question_order":"[0]","trial_type":"survey-multi-choice","trial_index":23,"time_elapsed":876834,"internal_node_id":"0.0-5.0-18.0"},{"rt":1474.2000000476837,"response":{"pregunta25 likert":2},"question_order":[0],"trial_type":"survey-likert","trial_index":24,"time_elapsed":878314,"internal_node_id":"0.0-5.0-19.0"},{"rt":17737.80000001192,"responses":"{\"pregunta30\":\"b) para el mexicano, la muerte es cotidiana. \"}","question_order":"[0]","trial_type":"survey-multi-choice","trial_index":25,"time_elapsed":896058,"internal_node_id":"0.0-5.0-20.0"},{"rt":1778.4000000357628,"response":{"pregunta30 likert":3},"question_order":[0],"trial_type":"survey-likert","trial_index":26,"time_elapsed":897842,"internal_node_id":"0.0-5.0-21.0"},{"rt":59642.60000002384,"responses":"{\"pregunta13\":\"a) El ser humano se comporta de acuerdo con las circunstancias. \"}","question_order":"[0]","trial_type":"survey-multi-choice","trial_index":27,"time_elapsed":957493,"internal_node_id":"0.0-5.0-22.0"},{"rt":1843,"response":{"pregunta13 likert":2},"question_order":[0],"trial_type":"survey-likert","trial_index":28,"time_elapsed":959341,"internal_node_id":"0.0-5.0-23.0"},{"rt":37346.40000003576,"responses":"{\"pregunta3\":\"a) El inicio de la dinastía Chang. \"}","question_order":"[0]","trial_type":"survey-multi-choice","trial_index":29,"time_elapsed":996693,"internal_node_id":"0.0-5.0-24.0"},{"rt":3338.699999988079,"response":{"pregunta3 likert":3},"question_order":[0],"trial_type":"survey-likert","trial_index":30,"time_elapsed":1000036,"internal_node_id":"0.0-5.0-25.0"},{"rt":53176.19999998808,"responses":"{\"pregunta2\":\"a) A la relación entre sociedad y constitución social. \"}","question_order":"[0]","trial_type":"survey-multi-choice","trial_index":31,"time_elapsed":1053218,"internal_node_id":"0.0-5.0-26.0"},{"rt":1938.4000000357628,"response":{"pregunta2 likert":3},"question_order":[0],"trial_type":"survey-likert","trial_index":32,"time_elapsed":1055162,"internal_node_id":"0.0-5.0-27.0"},{"rt":75411.10000002384,"responses":"{\"pregunta18\":\"a) A la inutilidad de tanto esfuerzo si el objetivo es el reposo. \"}","question_order":"[0]","trial_type":"survey-multi-choice","trial_index":33,"time_elapsed":1130581,"internal_node_id":"0.0-5.0-28.0"},{"rt":4297.699999988079,"response":{"pregunta18 likert":2},"question_order":[0],"trial_type":"survey-likert","trial_index":34,"time_elapsed":1134885,"internal_node_id":"0.0-5.0-29.0"},{"rt":24092,"responses":"{\"pregunta22\":\"c) Bomberos debería tener acceso a un seguro médico, al que pueda recurrir en caso de accidente. \"}","question_order":"[0]","trial_type":"survey-multi-choice","trial_index":35,"time_elapsed":1158983,"internal_node_id":"0.0-5.0-30.0"},{"rt":1778.5,"response":{"pregunta22 likert":3},"question_order":[0],"trial_type":"survey-likert","trial_index":36,"time_elapsed":1160765,"internal_node_id":"0.0-5.0-31.0"},{"rt":102994.30000001192,"responses":"{\"pregunta26\":\"b) para Aristóteles la virtud estaba en el justo equilibrio. \"}","question_order":"[0]","trial_type":"survey-multi-choice","trial_index":37,"time_elapsed":1263765,"internal_node_id":"0.0-5.0-32.0"},{"rt":1500.0999999642372,"response":{"pregunta26 likert":2},"question_order":[0],"trial_type":"survey-likert","trial_index":38,"time_elapsed":1265271,"internal_node_id":"0.0-5.0-33.0"},{"rt":28385.19999998808,"responses":"{\"pregunta5\":\"c) En los viajes es esencial el momento mismo de la escritura. \"}","question_order":"[0]","trial_type":"survey-multi-choice","trial_index":39,"time_elapsed":1293661,"internal_node_id":"0.0-5.0-34.0"},{"rt":1666.300000011921,"response":{"pregunta5 likert":3},"question_order":[0],"trial_type":"survey-likert","trial_index":40,"time_elapsed":1295333,"internal_node_id":"0.0-5.0-35.0"},{"rt":54219.5,"responses":"{\"pregunta27\":\"b) Nuestra economía vivirá un proceso de ajuste a la nueva realidad. \"}","question_order":"[0]","trial_type":"survey-multi-choice","trial_index":41,"time_elapsed":1349557,"internal_node_id":"0.0-5.0-36.0"},{"rt":1748,"response":{"pregunta27 likert":2},"question_order":[0],"trial_type":"survey-likert","trial_index":42,"time_elapsed":1351309,"internal_node_id":"0.0-5.0-37.0"},{"rt":69377.19999998808,"responses":"{\"pregunta21\":\"b) el uranio es el elemento natural con el mayor número de protones en el núcleo. \"}","question_order":"[0]","trial_type":"survey-multi-choice","trial_index":43,"time_elapsed":1420693,"internal_node_id":"0.0-5.0-38.0"},{"rt":2371.5,"response":{"pregunta21 likert":2},"question_order":[0],"trial_type":"survey-likert","trial_index":44,"time_elapsed":1423069,"internal_node_id":"0.0-5.0-39.0"},{"rt":55890.5,"responses":"{\"pregunta19\":\"a) Las personas que leen son más flexibles en sus ideas y autónomas en su accionar. \"}","question_order":"[0]","trial_type":"survey-multi-choice","trial_index":45,"time_elapsed":1478965,"internal_node_id":"0.0-5.0-40.0"},{"rt":1730.300000011921,"response":{"pregunta19 likert":2},"question_order":[0],"trial_type":"survey-likert","trial_index":46,"time_elapsed":1480701,"internal_node_id":"0.0-5.0-41.0"},{"rt":42417.40000003576,"responses":"{\"pregunta14\":\"b) preparar los recuerdos del mañana. \"}","question_order":"[0]","trial_type":"survey-multi-choice","trial_index":47,"time_elapsed":1523125,"internal_node_id":"0.0-5.0-42.0"},{"rt":2089.899999976158,"response":{"pregunta14 likert":3},"question_order":[0],"trial_type":"survey-likert","trial_index":48,"time_elapsed":1525221,"internal_node_id":"0.0-5.0-43.0"},{"rt":66018.39999997616,"responses":"{\"pregunta8\":\"a) Dar a conocer al ganador del premio Cervantes. \"}","question_order":"[0]","trial_type":"survey-multi-choice","trial_index":49,"time_elapsed":1591245,"internal_node_id":"0.0-5.0-44.0"},{"rt":1883.4000000357628,"response":{"pregunta8 likert":2},"question_order":[0],"trial_type":"survey-likert","trial_index":50,"time_elapsed":1593135,"internal_node_id":"0.0-5.0-45.0"},{"rt":49218.299999952316,"responses":"{\"pregunta15\":\"b) ritualistas y obsesivos. \"}","question_order":"[0]","trial_type":"survey-multi-choice","trial_index":51,"time_elapsed":1642355,"internal_node_id":"0.0-5.0-46.0"},{"rt":1506.0999999642372,"response":{"pregunta15 likert":2},"question_order":[0],"trial_type":"survey-likert","trial_index":52,"time_elapsed":1643866,"internal_node_id":"0.0-5.0-47.0"},{"rt":63762.59999996424,"responses":"{\"pregunta20\":\"c) la muerte de Wu Ti fue una bendición. \"}","question_order":"[0]","trial_type":"survey-multi-choice","trial_index":53,"time_elapsed":1707637,"internal_node_id":"0.0-5.0-48.0"},{"rt":1354.2999999523163,"response":{"pregunta20 likert":2},"question_order":[0],"trial_type":"survey-likert","trial_index":54,"time_elapsed":1708997,"internal_node_id":"0.0-5.0-49.0"},{"rt":39602.10000002384,"responses":"{\"pregunta23\":\"c) A la inexistencia de un recinto adecuado para el recital. \"}","question_order":"[0]","trial_type":"survey-multi-choice","trial_index":55,"time_elapsed":1748605,"internal_node_id":"0.0-5.0-50.0"},{"rt":1682.3999999761581,"response":{"pregunta23 likert":3},"question_order":[0],"trial_type":"survey-likert","trial_index":56,"time_elapsed":1750293,"internal_node_id":"0.0-5.0-51.0"},{"rt":66585.59999996424,"responses":"{\"pregunta6\":\"c) Las personas escandalosas constantemente critican a la Academia. \"}","question_order":"[0]","trial_type":"survey-multi-choice","trial_index":57,"time_elapsed":1816885,"internal_node_id":"0.0-5.0-52.0"},{"rt":1657.199999988079,"response":{"pregunta6 likert":2},"question_order":[0],"trial_type":"survey-likert","trial_index":58,"time_elapsed":1818549,"internal_node_id":"0.0-5.0-53.0"},{"rt":63880.19999998808,"responses":"{\"pregunta1\":\"c) Aportan informaciones con las que se reconstruye el personaje dentro de un relato. \"}","question_order":"[0]","trial_type":"survey-multi-choice","trial_index":59,"time_elapsed":1882445,"internal_node_id":"0.0-5.0-54.0"},{"rt":1602.199999988079,"response":{"pregunta1 likert":3},"question_order":[0],"trial_type":"survey-likert","trial_index":60,"time_elapsed":1884053,"internal_node_id":"0.0-5.0-55.0"},{"rt":64290.69999998808,"responses":"{\"pregunta16\":\"a) Provocar el deseo de la adquisición vertiginosa. \"}","question_order":"[0]","trial_type":"survey-multi-choice","trial_index":61,"time_elapsed":1948348,"internal_node_id":"0.0-5.0-56.0"},{"rt":2065.7000000476837,"response":{"pregunta16 likert":2},"question_order":[0],"trial_type":"survey-likert","trial_index":62,"time_elapsed":1950419,"internal_node_id":"0.0-5.0-57.0"},{"rt":63057.5,"responses":"{\"pregunta29\":\"a) el jardinero estará muerto al día siguiente. \"}","question_order":"[0]","trial_type":"survey-multi-choice","trial_index":63,"time_elapsed":2013484,"internal_node_id":"0.0-5.0-58.0"},{"rt":2225,"response":{"pregunta29 likert":3},"question_order":[0],"trial_type":"survey-likert","trial_index":64,"time_elapsed":2015716,"internal_node_id":"0.0-5.0-59.0"}]