[{"rt":16701.79999998072,"stimulus":"<h1 style=\"color:red; margin-top: 3%;\">¡Bienvenido(a)!</h1><p style=\"text-align:left; justify-content:space-between; margin-right: 5%; margin-left: 5%; margin-top: 5%\"> Antes de empezar el estudio, necesitamos que nos confirmes que estás de acuerdo con participar. Recuerda que tu participación es 100% voluntaria y que lo único que te pedimos es responder lo mejor que puedas. Recuerda también que el estudio incluye:</p><ol style=\"text-align:left; justify-content:space-between; margin-right: 5%; margin-left: 5%;\"><li> un ejercicio de resolución de preguntas de selección múltiple (30’),</li><li>un cuestionario breve (5’),</li><li>un juego muy breve (3’),</li></ol><p style=\"text-align:left; justify-content:space-between; margin-right: 5%; margin-left: 5%;\">Si quieres participar, haz clic en “Acepto” luego de leer lo siguiente:<br></p><p style=\"text-align:left; justify-content:space-between; margin-right: 5%; margin-left: 5%;\">Acepto participar en el estudio “Estrategias de lectura y resolución de preguntas de selección múltiple”, en los términos aquí señalados:<br></p><p style=\"text-align:left; justify-content:space-between; margin-right: 5%; margin-left: 5%;\"><a href=\"http://ciae.uchile.cl/download.php?file=noticias/Asentimiento.pdf\" target=\"_blank\">Link a la hoja de información del Consentimiento.</a></p><p style=\"text-align:left; justify-content:space-between; margin-right: 5%; margin-left: 5%;\">Declaro que he leído (o se me ha leído) y (he) comprendido, las condiciones de mi participación en este estudio. He tenido la oportunidad de hacer preguntas y éstas han sido respondidas. No tengo dudas al respecto.</p>","response":0,"condicion_MCQ":3,"condicion_INTER":9,"numero_participante":57,"numero_version":1,"dimx":393,"dimy":873,"color_profundidad":24,"pixel_profundidad":24,"Browser":"Google Chrome","trial_type":"html-button-response","trial_index":0,"time_elapsed":16724,"internal_node_id":"0.0-0.0"},{"success":true,"trial_type":"fullscreen","trial_index":1,"time_elapsed":21847,"internal_node_id":"0.0-1.0"},{"rt":34564.50000000768,"responses":"{\"Nombres\":\"Renato Joaquin\",\"Apellidos\":\"Contreras Figueroa\",\"Edad\":\"19\",\"Sexo\":\"hombre\",\"Curso\":\"neurobiologia\",\"Colegio\":\"unab\",\"Contacto\":\"renato.contrerasf@gmail.com\"}","trial_type":"survey-text","trial_index":2,"time_elapsed":56467,"internal_node_id":"0.0-2.0"},{"success":true,"timeout":false,"failed_images":[],"failed_audio":[],"failed_video":[],"trial_type":"preload","trial_index":3,"time_elapsed":58531,"internal_node_id":"0.0-3.0"},{"rt":33448.99999999325,"stimulus":"<h1 style:\"margin-top: 5%;\">Ejercicios de Comprensión de Lectura de la Universidad de Chile</h1><p style=\"font-size: 120%;\">En esta actividad, debes responder 30 preguntas de selección múltiple. Cada pregunta presenta 3 respuestas alternativas, pero sólo una de ellas es correcta. Por lo tanto, debes escoger una sola alternativa para cada pregunta. Además, debes reportar qué tan seguro(a) estás de la respuesta que das, con un:</p><ol style=\"font-size: 120%;text-align:left;margin-left: 40%;\"><li>No estoy seguro(a) para nada</li><li>No estoy muy seguro(a)</li><li>Estoy bastante seguro(a)</li><li>Estoy totalmente seguro(a)</li></ol><p style=\"font-size: 120%;\">Por favor lee bien los enunciados antes de responder. ¡Éxito!</p>","response":0,"trial_type":"html-button-response","trial_index":4,"time_elapsed":91987,"internal_node_id":"0.0-4.0"},{"rt":63685.40000001667,"responses":"{\"pregunta14\":\"b) la persistencia de la melancolía y la desesperanza. \"}","question_order":"[0]","trial_type":"survey-multi-choice","trial_index":5,"time_elapsed":155683,"internal_node_id":"0.0-5.0-0.0"},{"rt":3825.8999999961816,"response":{"pregunta14 likert":2},"question_order":[0],"trial_type":"survey-likert","trial_index":6,"time_elapsed":159522,"internal_node_id":"0.0-5.0-1.0"},{"rt":41135.70000001346,"responses":"{\"pregunta1\":\"b) Muestran las opiniones expuestas por los personajes en un relato. \"}","question_order":"[0]","trial_type":"survey-multi-choice","trial_index":7,"time_elapsed":200670,"internal_node_id":"0.0-5.0-2.0"},{"rt":1177.9000000096858,"response":{"pregunta1 likert":2},"question_order":[0],"trial_type":"survey-likert","trial_index":8,"time_elapsed":201857,"internal_node_id":"0.0-5.0-3.0"},{"rt":3339.499999972759,"responses":"{\"pregunta9\":\"c) pueden rendir exámenes para optar y obtener títulos profesionales igual que los hombres. \"}","question_order":"[0]","trial_type":"survey-multi-choice","trial_index":9,"time_elapsed":205206,"internal_node_id":"0.0-5.0-4.0"},{"rt":1446.8000000051688,"response":{"pregunta9 likert":1},"question_order":[0],"trial_type":"survey-likert","trial_index":10,"time_elapsed":206663,"internal_node_id":"0.0-5.0-5.0"},{"rt":2507.6000000117347,"responses":"{\"pregunta23\":\"c) A la temática satánica de las canciones del grupo. \"}","question_order":"[0]","trial_type":"survey-multi-choice","trial_index":11,"time_elapsed":209183,"internal_node_id":"0.0-5.0-6.0"},{"rt":1087.100000004284,"response":{"pregunta23 likert":1},"question_order":[0],"trial_type":"survey-likert","trial_index":12,"time_elapsed":210278,"internal_node_id":"0.0-5.0-7.0"},{"rt":2448.400000022957,"responses":"{\"pregunta26\":\"a) el sujeto sufre con su modo de vida. \"}","question_order":"[0]","trial_type":"survey-multi-choice","trial_index":13,"time_elapsed":212736,"internal_node_id":"0.0-5.0-8.0"},{"rt":1192.6000000094064,"response":{"pregunta26 likert":2},"question_order":[0],"trial_type":"survey-likert","trial_index":14,"time_elapsed":213938,"internal_node_id":"0.0-5.0-9.0"},{"rt":1517.8000000014435,"responses":"{\"pregunta2\":\"c) A la relación entre pensamiento y estructura social. \"}","question_order":"[0]","trial_type":"survey-multi-choice","trial_index":15,"time_elapsed":215465,"internal_node_id":"0.0-5.0-10.0"},{"rt":1629.7999999951571,"response":{"pregunta2 likert":1},"question_order":[0],"trial_type":"survey-likert","trial_index":16,"time_elapsed":217103,"internal_node_id":"0.0-5.0-11.0"},{"rt":2005.700000008801,"responses":"{\"pregunta16\":\"b) Provocar el deseo de la adquisición vertiginosa. \"}","question_order":"[0]","trial_type":"survey-multi-choice","trial_index":17,"time_elapsed":219118,"internal_node_id":"0.0-5.0-12.0"},{"rt":1235.6999999901745,"response":{"pregunta16 likert":2},"question_order":[0],"trial_type":"survey-likert","trial_index":18,"time_elapsed":220363,"internal_node_id":"0.0-5.0-13.0"},{"rt":2338.499999983469,"responses":"{\"pregunta6\":\"a) Las personas escandalosas constantemente critican a la Academia. \"}","question_order":"[0]","trial_type":"survey-multi-choice","trial_index":19,"time_elapsed":222710,"internal_node_id":"0.0-5.0-14.0"},{"rt":949.6999999973923,"response":{"pregunta6 likert":2},"question_order":[0],"trial_type":"survey-likert","trial_index":20,"time_elapsed":223671,"internal_node_id":"0.0-5.0-15.0"},{"rt":2589.399999997113,"responses":"{\"pregunta7\":\"b) Si desaparecieran el papel y la imprenta, se produciría un gran retraso en nuestra civilización. \"}","question_order":"[0]","trial_type":"survey-multi-choice","trial_index":21,"time_elapsed":226271,"internal_node_id":"0.0-5.0-16.0"},{"rt":973.2000000076368,"response":{"pregunta7 likert":2},"question_order":[0],"trial_type":"survey-likert","trial_index":22,"time_elapsed":227253,"internal_node_id":"0.0-5.0-17.0"},{"rt":1633.4999999962747,"responses":"{\"pregunta29\":\"a) el jardinero era un hombre viejo. \"}","question_order":"[0]","trial_type":"survey-multi-choice","trial_index":23,"time_elapsed":228898,"internal_node_id":"0.0-5.0-18.0"},{"rt":1137.5000000116415,"response":{"pregunta29 likert":0},"question_order":[0],"trial_type":"survey-likert","trial_index":24,"time_elapsed":230044,"internal_node_id":"0.0-5.0-19.0"},{"rt":1786.4999999874271,"responses":"{\"pregunta25\":\"c) tienen dificultades durante el parto. \"}","question_order":"[0]","trial_type":"survey-multi-choice","trial_index":25,"time_elapsed":231840,"internal_node_id":"0.0-5.0-20.0"},{"rt":1307.6000000000931,"response":{"pregunta25 likert":0},"question_order":[0],"trial_type":"survey-likert","trial_index":26,"time_elapsed":233159,"internal_node_id":"0.0-5.0-21.0"},{"rt":1662.2999999963213,"responses":"{\"pregunta12\":\"b) es una noción que obedece a una visión pesimista de la vida. \"}","question_order":"[0]","trial_type":"survey-multi-choice","trial_index":27,"time_elapsed":234829,"internal_node_id":"0.0-5.0-22.0"},{"rt":1053.1000000191852,"response":{"pregunta12 likert":2},"question_order":[0],"trial_type":"survey-likert","trial_index":28,"time_elapsed":235893,"internal_node_id":"0.0-5.0-23.0"},{"rt":1646.2000000174157,"responses":"{\"pregunta20\":\"b) el mejor emperador es el que está muerto. \"}","question_order":"[0]","trial_type":"survey-multi-choice","trial_index":29,"time_elapsed":237549,"internal_node_id":"0.0-5.0-24.0"},{"rt":1069.3999999784864,"response":{"pregunta20 likert":1},"question_order":[0],"trial_type":"survey-likert","trial_index":30,"time_elapsed":238628,"internal_node_id":"0.0-5.0-25.0"},{"rt":2109.299999981886,"responses":"{\"pregunta10\":\"b) La biónica es una disciplina que tiene su origen en la ecología. \"}","question_order":"[0]","trial_type":"survey-multi-choice","trial_index":31,"time_elapsed":240746,"internal_node_id":"0.0-5.0-26.0"},{"rt":951.9000000145752,"response":{"pregunta10 likert":2},"question_order":[0],"trial_type":"survey-likert","trial_index":32,"time_elapsed":241707,"internal_node_id":"0.0-5.0-27.0"},{"rt":2002.600000007078,"responses":"{\"pregunta4\":\"a) Las personas importantes comparten el gusto por la literatura. \"}","question_order":"[0]","trial_type":"survey-multi-choice","trial_index":33,"time_elapsed":243719,"internal_node_id":"0.0-5.0-28.0"},{"rt":1134.3999999808148,"response":{"pregunta4 likert":0},"question_order":[0],"trial_type":"survey-likert","trial_index":34,"time_elapsed":244863,"internal_node_id":"0.0-5.0-29.0"},{"rt":1814.0999999886844,"responses":"{\"pregunta5\":\"c) La escritura plasma los mejores momentos de los viajes. \"}","question_order":"[0]","trial_type":"survey-multi-choice","trial_index":35,"time_elapsed":246685,"internal_node_id":"0.0-5.0-30.0"},{"rt":799.1000000038184,"response":{"pregunta5 likert":2},"question_order":[0],"trial_type":"survey-likert","trial_index":36,"time_elapsed":247494,"internal_node_id":"0.0-5.0-31.0"},{"rt":2157.8000000154134,"responses":"{\"pregunta11\":\"c) Promover la asistencia a un evento específico de decoración a través de una atractiva descripción. \"}","question_order":"[0]","trial_type":"survey-multi-choice","trial_index":37,"time_elapsed":249662,"internal_node_id":"0.0-5.0-32.0"},{"rt":1088.5000000125729,"response":{"pregunta11 likert":2},"question_order":[0],"trial_type":"survey-likert","trial_index":38,"time_elapsed":250760,"internal_node_id":"0.0-5.0-33.0"},{"rt":2823.499999998603,"responses":"{\"pregunta15\":\"a) hedonistas y soñadores. \"}","question_order":"[0]","trial_type":"survey-multi-choice","trial_index":39,"time_elapsed":253595,"internal_node_id":"0.0-5.0-34.0"},{"rt":1049.799999978859,"response":{"pregunta15 likert":2},"question_order":[0],"trial_type":"survey-likert","trial_index":40,"time_elapsed":254654,"internal_node_id":"0.0-5.0-35.0"},{"rt":1871.6000000131316,"responses":"{\"pregunta28\":\"b) La prensa tiene derecho a meter sus narices en todos lados. \"}","question_order":"[0]","trial_type":"survey-multi-choice","trial_index":41,"time_elapsed":256535,"internal_node_id":"0.0-5.0-36.0"},{"rt":910.7999999832828,"response":{"pregunta28 likert":2},"question_order":[0],"trial_type":"survey-likert","trial_index":42,"time_elapsed":257455,"internal_node_id":"0.0-5.0-37.0"},{"rt":1576.999999990221,"responses":"{\"pregunta17\":\"a) Homenajear a quienes murieron. \"}","question_order":"[0]","trial_type":"survey-multi-choice","trial_index":43,"time_elapsed":259042,"internal_node_id":"0.0-5.0-38.0"},{"rt":1012.700000021141,"response":{"pregunta17 likert":2},"question_order":[0],"trial_type":"survey-likert","trial_index":44,"time_elapsed":260063,"internal_node_id":"0.0-5.0-39.0"},{"rt":1307.9999999899883,"responses":"{\"pregunta3\":\"b) El inicio de la dinastía Chang. \"}","question_order":"[0]","trial_type":"survey-multi-choice","trial_index":45,"time_elapsed":261381,"internal_node_id":"0.0-5.0-40.0"},{"rt":833.8000000221655,"response":{"pregunta3 likert":2},"question_order":[0],"trial_type":"survey-likert","trial_index":46,"time_elapsed":262224,"internal_node_id":"0.0-5.0-41.0"},{"rt":1394.2000000097323,"responses":"{\"pregunta13\":\"c) Lo que es normal en un asilo es anormal en un campo de concentración. \"}","question_order":"[0]","trial_type":"survey-multi-choice","trial_index":47,"time_elapsed":263626,"internal_node_id":"0.0-5.0-42.0"},{"rt":809.2999999935273,"response":{"pregunta13 likert":1},"question_order":[0],"trial_type":"survey-likert","trial_index":48,"time_elapsed":264445,"internal_node_id":"0.0-5.0-43.0"},{"rt":1312.900000018999,"responses":"{\"pregunta30\":\"a) la muerte es distinta en las grandes ciudades. \"}","question_order":"[0]","trial_type":"survey-multi-choice","trial_index":49,"time_elapsed":265766,"internal_node_id":"0.0-5.0-44.0"},{"rt":1604.399999981979,"response":{"pregunta30 likert":0},"question_order":[0],"trial_type":"survey-likert","trial_index":50,"time_elapsed":267380,"internal_node_id":"0.0-5.0-45.0"},{"rt":1435.3999999875668,"responses":"{\"pregunta21\":\"c) el uranio es el elemento natural con el mayor número de protones en el núcleo. \"}","question_order":"[0]","trial_type":"survey-multi-choice","trial_index":51,"time_elapsed":268824,"internal_node_id":"0.0-5.0-46.0"},{"rt":1126.6999999934342,"response":{"pregunta21 likert":2},"question_order":[0],"trial_type":"survey-likert","trial_index":52,"time_elapsed":269960,"internal_node_id":"0.0-5.0-47.0"},{"rt":1713.3999999787193,"responses":"{\"pregunta24\":\"b) La publicidad ejerce una influencia positiva sobre la sociedad. \"}","question_order":"[0]","trial_type":"survey-multi-choice","trial_index":53,"time_elapsed":271682,"internal_node_id":"0.0-5.0-48.0"},{"rt":841.4000000047963,"response":{"pregunta24 likert":1},"question_order":[0],"trial_type":"survey-likert","trial_index":54,"time_elapsed":272533,"internal_node_id":"0.0-5.0-49.0"},{"rt":1468.0999999982305,"responses":"{\"pregunta18\":\"b) A la inutilidad de tanto esfuerzo si el objetivo es el reposo. \"}","question_order":"[0]","trial_type":"survey-multi-choice","trial_index":55,"time_elapsed":274012,"internal_node_id":"0.0-5.0-50.0"},{"rt":790.1999999885447,"response":{"pregunta18 likert":1},"question_order":[0],"trial_type":"survey-likert","trial_index":56,"time_elapsed":274815,"internal_node_id":"0.0-5.0-51.0"},{"rt":1475.800000014715,"responses":"{\"pregunta27\":\"c) Nuestra economía vivirá un proceso de ajuste a la nueva realidad. \"}","question_order":"[0]","trial_type":"survey-multi-choice","trial_index":57,"time_elapsed":276301,"internal_node_id":"0.0-5.0-52.0"},{"rt":769.5999999996275,"response":{"pregunta27 likert":1},"question_order":[0],"trial_type":"survey-likert","trial_index":58,"time_elapsed":277081,"internal_node_id":"0.0-5.0-53.0"},{"rt":1892.6999999966938,"responses":"{\"pregunta8\":\"a) Comparar a Cervantes con Quevedo. \"}","question_order":"[0]","trial_type":"survey-multi-choice","trial_index":59,"time_elapsed":278983,"internal_node_id":"0.0-5.0-54.0"},{"rt":765.7999999937601,"response":{"pregunta8 likert":1},"question_order":[0],"trial_type":"survey-likert","trial_index":60,"time_elapsed":279760,"internal_node_id":"0.0-5.0-55.0"},{"rt":1510.3999999992084,"responses":"{\"pregunta19\":\"c) El hábito de la lectura y el progreso mantienen una relación inversamente proporcional. \"}","question_order":"[0]","trial_type":"survey-multi-choice","trial_index":61,"time_elapsed":281281,"internal_node_id":"0.0-5.0-56.0"},{"rt":841.6999999899417,"response":{"pregunta19 likert":2},"question_order":[0],"trial_type":"survey-likert","trial_index":62,"time_elapsed":282132,"internal_node_id":"0.0-5.0-57.0"},{"rt":1365.6999999948312,"responses":"{\"pregunta22\":\"c) Se debe crear un seguro médico especial para esta institución, pues es de alto riesgo. \"}","question_order":"[0]","trial_type":"survey-multi-choice","trial_index":63,"time_elapsed":283509,"internal_node_id":"0.0-5.0-58.0"},{"rt":710.9999999811407,"response":{"pregunta22 likert":2},"question_order":[0],"trial_type":"survey-likert","trial_index":64,"time_elapsed":284231,"internal_node_id":"0.0-5.0-59.0"}]