[{"rt":13998,"stimulus":"<h1 style=\"color:red; margin-top: 3%;\">¡Bienvenido(a)!</h1><p style=\"text-align:left; justify-content:space-between; margin-right: 5%; margin-left: 5%; margin-top: 5%\"> Antes de empezar el estudio, necesitamos que nos confirmes que estás de acuerdo con participar. Recuerda que tu participación es 100% voluntaria y que lo único que te pedimos es responder lo mejor que puedas. Recuerda también que el estudio incluye:</p><ol style=\"text-align:left; justify-content:space-between; margin-right: 5%; margin-left: 5%;\"><li> un ejercicio de resolución de preguntas de selección múltiple (30’),</li><li>un cuestionario breve (5’),</li><li>un juego muy breve (3’),</li></ol><p style=\"text-align:left; justify-content:space-between; margin-right: 5%; margin-left: 5%;\">Si quieres participar, haz clic en “Acepto” luego de leer lo siguiente:<br></p><p style=\"text-align:left; justify-content:space-between; margin-right: 5%; margin-left: 5%;\">Acepto participar en el estudio “Estrategias de lectura y resolución de preguntas de selección múltiple”, en los términos aquí señalados:<br></p><p style=\"text-align:left; justify-content:space-between; margin-right: 5%; margin-left: 5%;\"><a href=\"http://ciae.uchile.cl/download.php?file=noticias/Asentimiento.pdf\" target=\"_blank\">Link a la hoja de información del Consentimiento.</a></p><p style=\"text-align:left; justify-content:space-between; margin-right: 5%; margin-left: 5%;\">Declaro que he leído (o se me ha leído) y (he) comprendido, las condiciones de mi participación en este estudio. He tenido la oportunidad de hacer preguntas y éstas han sido respondidas. No tengo dudas al respecto.</p>","response":0,"condicion_MCQ":4,"condicion_INTER":4,"numero_participante":28,"numero_version":2,"dimx":1366,"dimy":768,"color_profundidad":24,"pixel_profundidad":24,"Browser":"Mozilla Firefox","trial_type":"html-button-response","trial_index":0,"time_elapsed":14003,"internal_node_id":"0.0-0.0"},{"success":true,"trial_type":"fullscreen","trial_index":1,"time_elapsed":16190,"internal_node_id":"0.0-1.0"},{"rt":108779,"responses":"{\"Nombres\":\"erika genesis belen\",\"Apellidos\":\"navarrete henriquez \",\"Edad\":\"19\",\"Sexo\":\"mujer\",\"Curso\":\"psicologia\",\"Colegio\":\"universidad andres bello \",\"Contacto\":\"erika.gbelen@gmail.com\"}","trial_type":"survey-text","trial_index":2,"time_elapsed":124977,"internal_node_id":"0.0-2.0"},{"success":true,"timeout":false,"failed_images":[],"failed_audio":[],"failed_video":[],"trial_type":"preload","trial_index":3,"time_elapsed":125482,"internal_node_id":"0.0-3.0"},{"rt":8881,"stimulus":"<h1 style:\"margin-top: 5%;\">Ejercicios de Comprensión de Lectura de la Universidad de Chile</h1><p style=\"font-size: 120%;\">En esta actividad, debes responder 30 preguntas de selección múltiple. Cada pregunta presenta 3 respuestas alternativas, pero sólo una de ellas es correcta. Por lo tanto, debes escoger una sola alternativa para cada pregunta. Además, debes reportar qué tan seguro(a) estás de la respuesta que das, con un:</p><ol style=\"font-size: 120%;text-align:left;margin-left: 40%;\"><li>No estoy seguro(a) para nada</li><li>No estoy muy seguro(a)</li><li>Estoy bastante seguro(a)</li><li>Estoy totalmente seguro(a)</li></ol><p style=\"font-size: 120%;\">Por favor lee bien los enunciados antes de responder. ¡Éxito!</p>","response":0,"trial_type":"html-button-response","trial_index":4,"time_elapsed":134364,"internal_node_id":"0.0-4.0"},{"rt":39779,"responses":"{\"pregunta15\":\"a) ritualistas y obsesivos. \"}","question_order":"[0]","trial_type":"survey-multi-choice","trial_index":5,"time_elapsed":174148,"internal_node_id":"0.0-5.0-0.0"},{"rt":5926,"response":{"pregunta15 likert":2},"question_order":[0],"trial_type":"survey-likert","trial_index":6,"time_elapsed":180077,"internal_node_id":"0.0-5.0-1.0"},{"rt":28321,"responses":"{\"pregunta27\":\"a) Nuestra economía vivirá un proceso de ajuste a la nueva realidad. \"}","question_order":"[0]","trial_type":"survey-multi-choice","trial_index":7,"time_elapsed":208402,"internal_node_id":"0.0-5.0-2.0"},{"rt":5542,"response":{"pregunta27 likert":2},"question_order":[0],"trial_type":"survey-likert","trial_index":8,"time_elapsed":213947,"internal_node_id":"0.0-5.0-3.0"},{"rt":42933,"responses":"{\"pregunta8\":\"c) Dar a conocer al ganador del premio Cervantes. \"}","question_order":"[0]","trial_type":"survey-multi-choice","trial_index":9,"time_elapsed":256881,"internal_node_id":"0.0-5.0-4.0"},{"rt":2910,"response":{"pregunta8 likert":1},"question_order":[0],"trial_type":"survey-likert","trial_index":10,"time_elapsed":259791,"internal_node_id":"0.0-5.0-5.0"},{"rt":31911,"responses":"{\"pregunta10\":\"c) La biónica es una disciplina que aprovecha las condiciones del entorno. \"}","question_order":"[0]","trial_type":"survey-multi-choice","trial_index":11,"time_elapsed":291705,"internal_node_id":"0.0-5.0-6.0"},{"rt":3278,"response":{"pregunta10 likert":3},"question_order":[0],"trial_type":"survey-likert","trial_index":12,"time_elapsed":294985,"internal_node_id":"0.0-5.0-7.0"},{"rt":41841,"responses":"{\"pregunta5\":\"b) La escritura plasma los mejores momentos de los viajes. \"}","question_order":"[0]","trial_type":"survey-multi-choice","trial_index":13,"time_elapsed":336828,"internal_node_id":"0.0-5.0-8.0"},{"rt":2799,"response":{"pregunta5 likert":2},"question_order":[0],"trial_type":"survey-likert","trial_index":14,"time_elapsed":339628,"internal_node_id":"0.0-5.0-9.0"},{"rt":42562,"responses":"{\"pregunta29\":\"b) la Muerte vaticina el futuro mediante gestos. \"}","question_order":"[0]","trial_type":"survey-multi-choice","trial_index":15,"time_elapsed":382193,"internal_node_id":"0.0-5.0-10.0"},{"rt":4649,"response":{"pregunta29 likert":2},"question_order":[0],"trial_type":"survey-likert","trial_index":16,"time_elapsed":386844,"internal_node_id":"0.0-5.0-11.0"},{"rt":23168,"responses":"{\"pregunta16\":\"a) Deleitar a sus receptores por medio de la belleza y el confort. \"}","question_order":"[0]","trial_type":"survey-multi-choice","trial_index":17,"time_elapsed":410015,"internal_node_id":"0.0-5.0-12.0"},{"rt":2591,"response":{"pregunta16 likert":2},"question_order":[0],"trial_type":"survey-likert","trial_index":18,"time_elapsed":412608,"internal_node_id":"0.0-5.0-13.0"},{"rt":38198,"responses":"{\"pregunta18\":\"a) Al premio merecido después de tantos esfuerzos. \"}","question_order":"[0]","trial_type":"survey-multi-choice","trial_index":19,"time_elapsed":450808,"internal_node_id":"0.0-5.0-14.0"},{"rt":3636,"response":{"pregunta18 likert":2},"question_order":[0],"trial_type":"survey-likert","trial_index":20,"time_elapsed":454446,"internal_node_id":"0.0-5.0-15.0"},{"rt":70670,"responses":"{\"pregunta26\":\"b) el hombre excesivo es inmoral. \"}","question_order":"[0]","trial_type":"survey-multi-choice","trial_index":21,"time_elapsed":525118,"internal_node_id":"0.0-5.0-16.0"},{"rt":3051,"response":{"pregunta26 likert":1},"question_order":[0],"trial_type":"survey-likert","trial_index":22,"time_elapsed":528171,"internal_node_id":"0.0-5.0-17.0"},{"rt":31735,"responses":"{\"pregunta21\":\"b) a partir de la manipulación del núcleo se han creado elementos químicos naturales. \"}","question_order":"[0]","trial_type":"survey-multi-choice","trial_index":23,"time_elapsed":559908,"internal_node_id":"0.0-5.0-18.0"},{"rt":2393,"response":{"pregunta21 likert":2},"question_order":[0],"trial_type":"survey-likert","trial_index":24,"time_elapsed":562303,"internal_node_id":"0.0-5.0-19.0"},{"rt":35994,"responses":"{\"pregunta24\":\"b) El receptor es habitualmente pasivo frente a la publicidad. \"}","question_order":"[0]","trial_type":"survey-multi-choice","trial_index":25,"time_elapsed":598300,"internal_node_id":"0.0-5.0-20.0"},{"rt":4376,"response":{"pregunta24 likert":3},"question_order":[0],"trial_type":"survey-likert","trial_index":26,"time_elapsed":602679,"internal_node_id":"0.0-5.0-21.0"},{"rt":24410,"responses":"{\"pregunta23\":\"c) A la influencia de grupos que rechazaban su música. \"}","question_order":"[0]","trial_type":"survey-multi-choice","trial_index":27,"time_elapsed":627090,"internal_node_id":"0.0-5.0-22.0"},{"rt":3402,"response":{"pregunta23 likert":2},"question_order":[0],"trial_type":"survey-likert","trial_index":28,"time_elapsed":630494,"internal_node_id":"0.0-5.0-23.0"},{"rt":15390,"responses":"{\"pregunta2\":\"a) A la relación entre pensamiento y estructura social. \"}","question_order":"[0]","trial_type":"survey-multi-choice","trial_index":29,"time_elapsed":645886,"internal_node_id":"0.0-5.0-24.0"},{"rt":2733,"response":{"pregunta2 likert":2},"question_order":[0],"trial_type":"survey-likert","trial_index":30,"time_elapsed":648623,"internal_node_id":"0.0-5.0-25.0"},{"rt":39641,"responses":"{\"pregunta4\":\"b) En la literatura como en la vida, todo es metáfora. \"}","question_order":"[0]","trial_type":"survey-multi-choice","trial_index":31,"time_elapsed":688265,"internal_node_id":"0.0-5.0-26.0"},{"rt":3774,"response":{"pregunta4 likert":1},"question_order":[0],"trial_type":"survey-likert","trial_index":32,"time_elapsed":692041,"internal_node_id":"0.0-5.0-27.0"},{"rt":23520,"responses":"{\"pregunta30\":\"c) la muerte es distinta en las grandes ciudades. \"}","question_order":"[0]","trial_type":"survey-multi-choice","trial_index":33,"time_elapsed":715564,"internal_node_id":"0.0-5.0-28.0"},{"rt":3004,"response":{"pregunta30 likert":2},"question_order":[0],"trial_type":"survey-likert","trial_index":34,"time_elapsed":718569,"internal_node_id":"0.0-5.0-29.0"},{"rt":25757,"responses":"{\"pregunta3\":\"c) El origen de las grandes civilizaciones. \"}","question_order":"[0]","trial_type":"survey-multi-choice","trial_index":35,"time_elapsed":744328,"internal_node_id":"0.0-5.0-30.0"},{"rt":2402,"response":{"pregunta3 likert":2},"question_order":[0],"trial_type":"survey-likert","trial_index":36,"time_elapsed":746731,"internal_node_id":"0.0-5.0-31.0"},{"rt":44163,"responses":"{\"pregunta25\":\"b) sufren dolores de espalda. \"}","question_order":"[0]","trial_type":"survey-multi-choice","trial_index":37,"time_elapsed":790897,"internal_node_id":"0.0-5.0-32.0"},{"rt":2482,"response":{"pregunta25 likert":2},"question_order":[0],"trial_type":"survey-likert","trial_index":38,"time_elapsed":793382,"internal_node_id":"0.0-5.0-33.0"},{"rt":30038,"responses":"{\"pregunta17\":\"c) Atraer a los turistas. \"}","question_order":"[0]","trial_type":"survey-multi-choice","trial_index":39,"time_elapsed":823422,"internal_node_id":"0.0-5.0-34.0"},{"rt":2957,"response":{"pregunta17 likert":1},"question_order":[0],"trial_type":"survey-likert","trial_index":40,"time_elapsed":826383,"internal_node_id":"0.0-5.0-35.0"},{"rt":21849,"responses":"{\"pregunta9\":\"a) pueden rendir exámenes para optar y obtener títulos profesionales igual que los hombres. \"}","question_order":"[0]","trial_type":"survey-multi-choice","trial_index":41,"time_elapsed":848232,"internal_node_id":"0.0-5.0-36.0"},{"rt":2806,"response":{"pregunta9 likert":2},"question_order":[0],"trial_type":"survey-likert","trial_index":42,"time_elapsed":851041,"internal_node_id":"0.0-5.0-37.0"},{"rt":46770,"responses":"{\"pregunta7\":\"a) Si desaparecieran el papel y la imprenta, se produciría un gran retraso en nuestra civilización. \"}","question_order":"[0]","trial_type":"survey-multi-choice","trial_index":43,"time_elapsed":897813,"internal_node_id":"0.0-5.0-38.0"},{"rt":2675,"response":{"pregunta7 likert":1},"question_order":[0],"trial_type":"survey-likert","trial_index":44,"time_elapsed":900490,"internal_node_id":"0.0-5.0-39.0"},{"rt":35380,"responses":"{\"pregunta28\":\"b) Se necesita un marco legal para delimitar lo público y lo privado en materia informativa. \"}","question_order":"[0]","trial_type":"survey-multi-choice","trial_index":45,"time_elapsed":935872,"internal_node_id":"0.0-5.0-40.0"},{"rt":3274,"response":{"pregunta28 likert":2},"question_order":[0],"trial_type":"survey-likert","trial_index":46,"time_elapsed":939148,"internal_node_id":"0.0-5.0-41.0"},{"rt":29303,"responses":"{\"pregunta14\":\"c) un recuerdo nostálgico. \"}","question_order":"[0]","trial_type":"survey-multi-choice","trial_index":47,"time_elapsed":968454,"internal_node_id":"0.0-5.0-42.0"},{"rt":2552,"response":{"pregunta14 likert":1},"question_order":[0],"trial_type":"survey-likert","trial_index":48,"time_elapsed":971008,"internal_node_id":"0.0-5.0-43.0"},{"rt":23694,"responses":"{\"pregunta22\":\"a) Por el riesgo que corren diariamente, los bomberos deberían tener mejores condiciones de seguridad. \"}","question_order":"[0]","trial_type":"survey-multi-choice","trial_index":49,"time_elapsed":994705,"internal_node_id":"0.0-5.0-44.0"},{"rt":2875,"response":{"pregunta22 likert":2},"question_order":[0],"trial_type":"survey-likert","trial_index":50,"time_elapsed":997583,"internal_node_id":"0.0-5.0-45.0"},{"rt":23941,"responses":"{\"pregunta13\":\"a) El concepto de normalidad es diferente para un psiquiatra que para nosotros. \"}","question_order":"[0]","trial_type":"survey-multi-choice","trial_index":51,"time_elapsed":1021525,"internal_node_id":"0.0-5.0-46.0"},{"rt":2868,"response":{"pregunta13 likert":2},"question_order":[0],"trial_type":"survey-likert","trial_index":52,"time_elapsed":1024395,"internal_node_id":"0.0-5.0-47.0"},{"rt":25331,"responses":"{\"pregunta1\":\"c) Entregan una característica detallada del personaje, a través de la voz narrativa. \"}","question_order":"[0]","trial_type":"survey-multi-choice","trial_index":53,"time_elapsed":1049728,"internal_node_id":"0.0-5.0-48.0"},{"rt":3946,"response":{"pregunta1 likert":1},"question_order":[0],"trial_type":"survey-likert","trial_index":54,"time_elapsed":1053676,"internal_node_id":"0.0-5.0-49.0"},{"rt":25589,"responses":"{\"pregunta12\":\"b) se da como existente, y sólo se discute su relación con el cuerpo. \"}","question_order":"[0]","trial_type":"survey-multi-choice","trial_index":55,"time_elapsed":1079268,"internal_node_id":"0.0-5.0-50.0"},{"rt":2725,"response":{"pregunta12 likert":1},"question_order":[0],"trial_type":"survey-likert","trial_index":56,"time_elapsed":1081995,"internal_node_id":"0.0-5.0-51.0"},{"rt":41064,"responses":"{\"pregunta20\":\"b) sólo las leyes bastan para gobernarse. \"}","question_order":"[0]","trial_type":"survey-multi-choice","trial_index":57,"time_elapsed":1123062,"internal_node_id":"0.0-5.0-52.0"},{"rt":2415,"response":{"pregunta20 likert":1},"question_order":[0],"trial_type":"survey-likert","trial_index":58,"time_elapsed":1125480,"internal_node_id":"0.0-5.0-53.0"},{"rt":22969,"responses":"{\"pregunta11\":\"b) Presentar positivamente las diversas tendencias del diseño de interiores a través de un comentario. \"}","question_order":"[0]","trial_type":"survey-multi-choice","trial_index":59,"time_elapsed":1148449,"internal_node_id":"0.0-5.0-54.0"},{"rt":2636,"response":{"pregunta11 likert":2},"question_order":[0],"trial_type":"survey-likert","trial_index":60,"time_elapsed":1151087,"internal_node_id":"0.0-5.0-55.0"},{"rt":24209,"responses":"{\"pregunta19\":\"c) Las personas que leen son más flexibles en sus ideas y autónomas en su accionar. \"}","question_order":"[0]","trial_type":"survey-multi-choice","trial_index":61,"time_elapsed":1175299,"internal_node_id":"0.0-5.0-56.0"},{"rt":3831,"response":{"pregunta19 likert":2},"question_order":[0],"trial_type":"survey-likert","trial_index":62,"time_elapsed":1179132,"internal_node_id":"0.0-5.0-57.0"},{"rt":23503,"responses":"{\"pregunta6\":\"b) La aparición del Diccionario Académico ha sido polémica. \"}","question_order":"[0]","trial_type":"survey-multi-choice","trial_index":63,"time_elapsed":1202637,"internal_node_id":"0.0-5.0-58.0"},{"rt":2772,"response":{"pregunta6 likert":2},"question_order":[0],"trial_type":"survey-likert","trial_index":64,"time_elapsed":1205411,"internal_node_id":"0.0-5.0-59.0"},{"rt":3036,"stimulus":"<p style=\"font-size: 120%\">Gracias por completar esta etapa del estudio. Ahora te invitamos a responder el cuestionario.<br><br></p>","response":0,"trial_type":"html-button-response","trial_index":65,"time_elapsed":1208472,"internal_node_id":"0.0-6.0"},{"rt":3390,"stimulus":"<h1 style=\"margin-top: 5%\">Cuestionario para la Evaluación de Metas Académicas</h1><p style=\"font-size: 120%; margin-left: 3%; margin-top: 5%\">Este es un cuestionario que permite conocer cuáles son los principales motivos por los que los estudiantes se esfuerzan en su trabajo académico. A continuación, se te presentarán una serie de afirmaciones acerca de los motivos que puedes tener para estudiar.<br>Te pedimos que contestes a dichas afirmaciones reflexionando sobre el contenido de cada una de ellas, que, aunque te parezcan semejantes, en realidad, no lo son.<br>NO HAY RESPUESTAS CORRECTAS o INCORRECTAS, sólo queremos que respondas con la mayor precisión y sinceridad posible a las preguntas que se plantean.","response":0,"trial_type":"html-button-response","trial_index":66,"time_elapsed":1211862,"internal_node_id":"0.0-7.0"},{"rt":117700,"response":{"Metas cuestionario pregunta1":4,"Metas cuestionario pregunta2":4,"Metas cuestionario pregunta3":4,"Metas cuestionario pregunta4":4,"Metas cuestionario pregunta5":4,"Metas cuestionario pregunta6":2,"Metas cuestionario pregunta7":2,"Metas cuestionario pregunta8":3,"Metas cuestionario pregunta9":0,"Metas cuestionario pregunta10":0,"Metas cuestionario pregunta11":0,"Metas cuestionario pregunta12":0,"Metas cuestionario pregunta13":0,"Metas cuestionario pregunta14":0,"Metas cuestionario pregunta15":4,"Metas cuestionario pregunta16":4,"Metas cuestionario pregunta17":3,"Metas cuestionario pregunta18":4,"Metas cuestionario pregunta19":4,"Metas cuestionario pregunta20":2},"question_order":[0,1,2,3,4,5,6,7,8,9,10,11,12,13,14,15,16,17,18,19],"trial_type":"survey-likert","trial_index":67,"time_elapsed":1329568,"internal_node_id":"0.0-8.0"}]