[{"rt":25762.000000104308,"stimulus":"<h1 style=\"color:red; margin-top: 3%;\">¡Bienvenido(a)!</h1><p style=\"text-align:left; justify-content:space-between; margin-right: 5%; margin-left: 5%; margin-top: 5%\"> Antes de empezar el estudio, necesitamos que nos confirmes que estás de acuerdo con participar. Recuerda que tu participación es 100% voluntaria y que lo único que te pedimos es responder lo mejor que puedas. Recuerda también que el estudio incluye:</p><ol style=\"text-align:left; justify-content:space-between; margin-right: 5%; margin-left: 5%;\"><li> un ejercicio de resolución de preguntas de selección múltiple (30’),</li><li>un cuestionario breve (5’),</li><li>un juego muy breve (3’),</li></ol><p style=\"text-align:left; justify-content:space-between; margin-right: 5%; margin-left: 5%;\">Si quieres participar, haz clic en “Acepto” luego de leer lo siguiente:<br></p><p style=\"text-align:left; justify-content:space-between; margin-right: 5%; margin-left: 5%;\">Acepto participar en el estudio “Estrategias de lectura y resolución de preguntas de selección múltiple”, en los términos aquí señalados:<br></p><p style=\"text-align:left; justify-content:space-between; margin-right: 5%; margin-left: 5%;\"><a href=\"http://ciae.uchile.cl/download.php?file=noticias/Asentimiento.pdf\" target=\"_blank\">Link a la hoja de información del Consentimiento.</a></p><p style=\"text-align:left; justify-content:space-between; margin-right: 5%; margin-left: 5%;\">Declaro que he leído (o se me ha leído) y (he) comprendido, las condiciones de mi participación en este estudio. He tenido la oportunidad de hacer preguntas y éstas han sido respondidas. No tengo dudas al respecto.</p>","response":0,"condicion_MCQ":4,"condicion_INTER":16,"numero_participante":16,"numero_version":1,"dimx":1600,"dimy":900,"color_profundidad":24,"pixel_profundidad":24,"Browser":"Google Chrome","trial_type":"html-button-response","trial_index":0,"time_elapsed":25789,"internal_node_id":"0.0-0.0"},{"success":true,"trial_type":"fullscreen","trial_index":1,"time_elapsed":32347,"internal_node_id":"0.0-1.0"},{"rt":82358.00000000745,"responses":"{\"Nombres\":\"Paulina Andrea\",\"Apellidos\":\"García Roa\",\"Edad\":\"19\",\"Sexo\":\"mujer\",\"Curso\":\"primer año\",\"Colegio\":\"universidad andres bello\",\"Contacto\":\"paulinagarciaroa333@gmail.com\"}","trial_type":"survey-text","trial_index":2,"time_elapsed":114744,"internal_node_id":"0.0-2.0"},{"success":true,"timeout":false,"failed_images":[],"failed_audio":[],"failed_video":[],"trial_type":"preload","trial_index":3,"time_elapsed":117653,"internal_node_id":"0.0-3.0"},{"rt":24171.99999978766,"stimulus":"<h1 style:\"margin-top: 5%;\">Ejercicios de Comprensión de Lectura de la Universidad de Chile</h1><p style=\"font-size: 120%;\">En esta actividad, debes responder 30 preguntas de selección múltiple. Cada pregunta presenta 3 respuestas alternativas, pero sólo una de ellas es correcta. Por lo tanto, debes escoger una sola alternativa para cada pregunta. Además, debes reportar qué tan seguro(a) estás de la respuesta que das, con un:</p><ol style=\"font-size: 120%;text-align:left;margin-left: 40%;\"><li>No estoy seguro(a) para nada</li><li>No estoy muy seguro(a)</li><li>Estoy bastante seguro(a)</li><li>Estoy totalmente seguro(a)</li></ol><p style=\"font-size: 120%;\">Por favor lee bien los enunciados antes de responder. ¡Éxito!</p>","response":0,"trial_type":"html-button-response","trial_index":4,"time_elapsed":141842,"internal_node_id":"0.0-4.0"},{"rt":74879.00000018999,"responses":"{\"pregunta8\":\"a) Comparar a Cervantes con Quevedo. \"}","question_order":"[0]","trial_type":"survey-multi-choice","trial_index":5,"time_elapsed":216722,"internal_node_id":"0.0-5.0-0.0"},{"rt":3783.0000002868474,"response":{"pregunta8 likert":2},"question_order":[0],"trial_type":"survey-likert","trial_index":6,"time_elapsed":220508,"internal_node_id":"0.0-5.0-1.0"},{"rt":137240.99999992177,"responses":"{\"pregunta25\":\"a) llevan un control grupal de su embarazo. \"}","question_order":"[0]","trial_type":"survey-multi-choice","trial_index":7,"time_elapsed":357751,"internal_node_id":"0.0-5.0-2.0"},{"rt":4232.000000309199,"response":{"pregunta25 likert":1},"question_order":[0],"trial_type":"survey-likert","trial_index":8,"time_elapsed":361988,"internal_node_id":"0.0-5.0-3.0"},{"rt":58307.999999728054,"responses":"{\"pregunta4\":\"c) En la literatura como en la vida, lo importante son las preguntas. \"}","question_order":"[0]","trial_type":"survey-multi-choice","trial_index":9,"time_elapsed":420317,"internal_node_id":"0.0-5.0-4.0"},{"rt":3742.0000000856817,"response":{"pregunta4 likert":1},"question_order":[0],"trial_type":"survey-likert","trial_index":10,"time_elapsed":424064,"internal_node_id":"0.0-5.0-5.0"},{"rt":235608.00000000745,"responses":"{\"pregunta6\":\"c) Las voces extranjeras viven una tensión entre la aceptación y el rechazo. \"}","question_order":"[0]","trial_type":"survey-multi-choice","trial_index":11,"time_elapsed":659671,"internal_node_id":"0.0-5.0-6.0"},{"rt":1936.0000002197921,"response":{"pregunta6 likert":2},"question_order":[0],"trial_type":"survey-likert","trial_index":12,"time_elapsed":661607,"internal_node_id":"0.0-5.0-7.0"},{"rt":135373.9999998361,"responses":"{\"pregunta21\":\"c) la creación de elementos químicos artificiales ha resultado de la manipulación del uranio. \"}","question_order":"[0]","trial_type":"survey-multi-choice","trial_index":13,"time_elapsed":796983,"internal_node_id":"0.0-5.0-8.0"},{"rt":1552.9999998398125,"response":{"pregunta21 likert":1},"question_order":[0],"trial_type":"survey-likert","trial_index":14,"time_elapsed":798543,"internal_node_id":"0.0-5.0-9.0"},{"rt":86335.999999661,"responses":"{\"pregunta2\":\"c) A la relación entre civilización y sociedad. \"}","question_order":"[0]","trial_type":"survey-multi-choice","trial_index":15,"time_elapsed":884884,"internal_node_id":"0.0-5.0-10.0"},{"rt":3220.000000204891,"response":{"pregunta2 likert":1},"question_order":[0],"trial_type":"survey-likert","trial_index":16,"time_elapsed":888111,"internal_node_id":"0.0-5.0-11.0"},{"rt":49560.99999975413,"responses":"{\"pregunta30\":\"a) para el mexicano, la muerte es cotidiana. \"}","question_order":"[0]","trial_type":"survey-multi-choice","trial_index":17,"time_elapsed":937676,"internal_node_id":"0.0-5.0-12.0"},{"rt":4131.000000052154,"response":{"pregunta30 likert":1},"question_order":[0],"trial_type":"survey-likert","trial_index":18,"time_elapsed":941827,"internal_node_id":"0.0-5.0-13.0"},{"rt":65368.999999947846,"responses":"{\"pregunta10\":\"b) La biónica puede asegurar nuestra existencia mediante la aplicación de técnicas copiadas de la naturaleza. \"}","question_order":"[0]","trial_type":"survey-multi-choice","trial_index":19,"time_elapsed":1007197,"internal_node_id":"0.0-5.0-14.0"},{"rt":2555.9999998658895,"response":{"pregunta10 likert":1},"question_order":[0],"trial_type":"survey-likert","trial_index":20,"time_elapsed":1009757,"internal_node_id":"0.0-5.0-15.0"},{"rt":106026.99999976903,"responses":"{\"pregunta26\":\"b) el hombre excesivo es inmoral. \"}","question_order":"[0]","trial_type":"survey-multi-choice","trial_index":21,"time_elapsed":1115789,"internal_node_id":"0.0-5.0-16.0"},{"rt":2344.000000040978,"response":{"pregunta26 likert":1},"question_order":[0],"trial_type":"survey-likert","trial_index":22,"time_elapsed":1118140,"internal_node_id":"0.0-5.0-17.0"},{"rt":123520.00000001863,"responses":"{\"pregunta17\":\"b) Homenajear a quienes murieron. \"}","question_order":"[0]","trial_type":"survey-multi-choice","trial_index":23,"time_elapsed":1241666,"internal_node_id":"0.0-5.0-18.0"},{"rt":5488.000000361353,"response":{"pregunta17 likert":1},"question_order":[0],"trial_type":"survey-likert","trial_index":24,"time_elapsed":1247159,"internal_node_id":"0.0-5.0-19.0"},{"rt":64799.000000115484,"responses":"{\"pregunta15\":\"a) ritualistas y obsesivos. \"}","question_order":"[0]","trial_type":"survey-multi-choice","trial_index":25,"time_elapsed":1311965,"internal_node_id":"0.0-5.0-20.0"},{"rt":2296.000000089407,"response":{"pregunta15 likert":2},"question_order":[0],"trial_type":"survey-likert","trial_index":26,"time_elapsed":1314267,"internal_node_id":"0.0-5.0-21.0"},{"rt":58141.99999999255,"responses":"{\"pregunta9\":\"c) deben ser capaces de mantenerse económicamente de la misma forma que los hombres. \"}","question_order":"[0]","trial_type":"survey-multi-choice","trial_index":27,"time_elapsed":1372412,"internal_node_id":"0.0-5.0-22.0"},{"rt":2283.999999985099,"response":{"pregunta9 likert":2},"question_order":[0],"trial_type":"survey-likert","trial_index":28,"time_elapsed":1374699,"internal_node_id":"0.0-5.0-23.0"},{"rt":51912.000000011176,"responses":"{\"pregunta27\":\"a) Nuestra economía vivirá un proceso de ajuste a la nueva realidad. \"}","question_order":"[0]","trial_type":"survey-multi-choice","trial_index":29,"time_elapsed":1426617,"internal_node_id":"0.0-5.0-24.0"},{"rt":1871.999999973923,"response":{"pregunta27 likert":2},"question_order":[0],"trial_type":"survey-likert","trial_index":30,"time_elapsed":1428497,"internal_node_id":"0.0-5.0-25.0"},{"rt":79223.99999992922,"responses":"{\"pregunta23\":\"a) A la inexistencia de un recinto adecuado para el recital. \"}","question_order":"[0]","trial_type":"survey-multi-choice","trial_index":31,"time_elapsed":1507723,"internal_node_id":"0.0-5.0-26.0"},{"rt":2266.9999999925494,"response":{"pregunta23 likert":2},"question_order":[0],"trial_type":"survey-likert","trial_index":32,"time_elapsed":1509990,"internal_node_id":"0.0-5.0-27.0"},{"rt":41646.99999988079,"responses":"{\"pregunta28\":\"b) Se necesita un marco legal para delimitar lo público y lo privado en materia informativa. \"}","question_order":"[0]","trial_type":"survey-multi-choice","trial_index":33,"time_elapsed":1551637,"internal_node_id":"0.0-5.0-28.0"},{"rt":2080.9999997727573,"response":{"pregunta28 likert":2},"question_order":[0],"trial_type":"survey-likert","trial_index":34,"time_elapsed":1553718,"internal_node_id":"0.0-5.0-29.0"},{"rt":49479.99999998137,"responses":"{\"pregunta16\":\"c) Provocar el deseo de la adquisición vertiginosa. \"}","question_order":"[0]","trial_type":"survey-multi-choice","trial_index":35,"time_elapsed":1603218,"internal_node_id":"0.0-5.0-30.0"},{"rt":2646.000000182539,"response":{"pregunta16 likert":2},"question_order":[0],"trial_type":"survey-likert","trial_index":36,"time_elapsed":1605864,"internal_node_id":"0.0-5.0-31.0"},{"rt":65740.00000022352,"responses":"{\"pregunta29\":\"c) el jardinero estará muerto al día siguiente. \"}","question_order":"[0]","trial_type":"survey-multi-choice","trial_index":37,"time_elapsed":1671605,"internal_node_id":"0.0-5.0-32.0"},{"rt":2086.00000012666,"response":{"pregunta29 likert":1},"question_order":[0],"trial_type":"survey-likert","trial_index":38,"time_elapsed":1673699,"internal_node_id":"0.0-5.0-33.0"},{"rt":71182.0000000298,"responses":"{\"pregunta11\":\"c) Orientar la opción estética de un grupo de personas en lo que se refiere a la decoración de interiores. \"}","question_order":"[0]","trial_type":"survey-multi-choice","trial_index":39,"time_elapsed":1744885,"internal_node_id":"0.0-5.0-34.0"},{"rt":2315.999999642372,"response":{"pregunta11 likert":1},"question_order":[0],"trial_type":"survey-likert","trial_index":40,"time_elapsed":1747206,"internal_node_id":"0.0-5.0-35.0"},{"rt":42452.00000004843,"responses":"{\"pregunta22\":\"a) Por el riesgo que corren diariamente, los bomberos deberían tener mejores condiciones de seguridad. \"}","question_order":"[0]","trial_type":"survey-multi-choice","trial_index":41,"time_elapsed":1789664,"internal_node_id":"0.0-5.0-36.0"},{"rt":2424.000000115484,"response":{"pregunta22 likert":3},"question_order":[0],"trial_type":"survey-likert","trial_index":42,"time_elapsed":1792104,"internal_node_id":"0.0-5.0-37.0"},{"rt":88098.99999992922,"responses":"{\"pregunta5\":\"c) Los momentos triviales de los viajes, en la escritura se vuelven significativos. \"}","question_order":"[0]","trial_type":"survey-multi-choice","trial_index":43,"time_elapsed":1880207,"internal_node_id":"0.0-5.0-38.0"},{"rt":2606.0000001452863,"response":{"pregunta5 likert":1},"question_order":[0],"trial_type":"survey-likert","trial_index":44,"time_elapsed":1882818,"internal_node_id":"0.0-5.0-39.0"},{"rt":214404.9999997951,"responses":"{\"pregunta7\":\"b) La imprenta y el papel han permitido el desarrollo de la civilización y la conservación de su cultura, y ambos son inventos chinos. \"}","question_order":"[0]","trial_type":"survey-multi-choice","trial_index":45,"time_elapsed":2097228,"internal_node_id":"0.0-5.0-40.0"},{"rt":1933.9999998919666,"response":{"pregunta7 likert":1},"question_order":[0],"trial_type":"survey-likert","trial_index":46,"time_elapsed":2099182,"internal_node_id":"0.0-5.0-41.0"},{"rt":78837.99999998882,"responses":"{\"pregunta12\":\"b) se da como existente, y sólo se discute su relación con el cuerpo. \"}","question_order":"[0]","trial_type":"survey-multi-choice","trial_index":47,"time_elapsed":2178025,"internal_node_id":"0.0-5.0-42.0"},{"rt":2871.999999973923,"response":{"pregunta12 likert":0},"question_order":[0],"trial_type":"survey-likert","trial_index":48,"time_elapsed":2180897,"internal_node_id":"0.0-5.0-43.0"},{"rt":136007.00000021607,"responses":"{\"pregunta1\":\"c) Entregan una característica detallada del personaje, a través de la voz narrativa. \"}","question_order":"[0]","trial_type":"survey-multi-choice","trial_index":49,"time_elapsed":2316904,"internal_node_id":"0.0-5.0-44.0"},{"rt":1941.999999806285,"response":{"pregunta1 likert":1},"question_order":[0],"trial_type":"survey-likert","trial_index":50,"time_elapsed":2318852,"internal_node_id":"0.0-5.0-45.0"},{"rt":43419.999999925494,"responses":"{\"pregunta14\":\"c) un recuerdo nostálgico. \"}","question_order":"[0]","trial_type":"survey-multi-choice","trial_index":51,"time_elapsed":2362277,"internal_node_id":"0.0-5.0-46.0"},{"rt":2365.999999921769,"response":{"pregunta14 likert":0},"question_order":[0],"trial_type":"survey-likert","trial_index":52,"time_elapsed":2364647,"internal_node_id":"0.0-5.0-47.0"},{"rt":85074.00000002235,"responses":"{\"pregunta3\":\"c) El origen de las grandes civilizaciones. \"}","question_order":"[0]","trial_type":"survey-multi-choice","trial_index":53,"time_elapsed":2449728,"internal_node_id":"0.0-5.0-48.0"},{"rt":1190.9999996423721,"response":{"pregunta3 likert":2},"question_order":[0],"trial_type":"survey-likert","trial_index":54,"time_elapsed":2450925,"internal_node_id":"0.0-5.0-49.0"},{"rt":65921.0000000894,"responses":"{\"pregunta13\":\"c) El ser humano se comporta de acuerdo con las circunstancias. \"}","question_order":"[0]","trial_type":"survey-multi-choice","trial_index":55,"time_elapsed":2516862,"internal_node_id":"0.0-5.0-50.0"},{"rt":1733.0000000074506,"response":{"pregunta13 likert":2},"question_order":[0],"trial_type":"survey-likert","trial_index":56,"time_elapsed":2518599,"internal_node_id":"0.0-5.0-51.0"},{"rt":48806.00000033155,"responses":"{\"pregunta18\":\"b) A la inutilidad de tanto esfuerzo si el objetivo es el reposo. \"}","question_order":"[0]","trial_type":"survey-multi-choice","trial_index":57,"time_elapsed":2567409,"internal_node_id":"0.0-5.0-52.0"},{"rt":1629.9999998882413,"response":{"pregunta18 likert":2},"question_order":[0],"trial_type":"survey-likert","trial_index":58,"time_elapsed":2569044,"internal_node_id":"0.0-5.0-53.0"},{"rt":374976.00000025705,"responses":"{\"pregunta19\":\"b) El hábito de la lectura y el progreso mantienen una relación inversamente proporcional. \"}","question_order":"[0]","trial_type":"survey-multi-choice","trial_index":59,"time_elapsed":2944028,"internal_node_id":"0.0-5.0-54.0"},{"rt":3069.999999832362,"response":{"pregunta19 likert":0},"question_order":[0],"trial_type":"survey-likert","trial_index":60,"time_elapsed":2947101,"internal_node_id":"0.0-5.0-55.0"},{"rt":62682.999999728054,"responses":"{\"pregunta20\":\"c) el mejor emperador es el que está muerto. \"}","question_order":"[0]","trial_type":"survey-multi-choice","trial_index":61,"time_elapsed":3009791,"internal_node_id":"0.0-5.0-56.0"},{"rt":2913.0000001750886,"response":{"pregunta20 likert":2},"question_order":[0],"trial_type":"survey-likert","trial_index":62,"time_elapsed":3012711,"internal_node_id":"0.0-5.0-57.0"},{"rt":72591.99999971315,"responses":"{\"pregunta24\":\"a) La publicidad ejerce una influencia positiva sobre la sociedad. \"}","question_order":"[0]","trial_type":"survey-multi-choice","trial_index":63,"time_elapsed":3085311,"internal_node_id":"0.0-5.0-58.0"},{"rt":2878.000000026077,"response":{"pregunta24 likert":0},"question_order":[0],"trial_type":"survey-likert","trial_index":64,"time_elapsed":3088193,"internal_node_id":"0.0-5.0-59.0"},{"rt":1007.9999999143183,"stimulus":"<p style=\"font-size: 120%\">Gracias por completar esta etapa del estudio. Ahora te invitamos a responder el cuestionario.<br><br></p>","response":0,"trial_type":"html-button-response","trial_index":65,"time_elapsed":3089225,"internal_node_id":"0.0-6.0"},{"rt":27669.999999925494,"stimulus":"<h1 style=\"margin-top: 5%\">Cuestionario para la Evaluación de Metas Académicas</h1><p style=\"font-size: 120%; margin-left: 3%; margin-top: 5%\">Este es un cuestionario que permite conocer cuáles son los principales motivos por los que los estudiantes se esfuerzan en su trabajo académico. A continuación, se te presentarán una serie de afirmaciones acerca de los motivos que puedes tener para estudiar.<br>Te pedimos que contestes a dichas afirmaciones reflexionando sobre el contenido de cada una de ellas, que, aunque te parezcan semejantes, en realidad, no lo son.<br>NO HAY RESPUESTAS CORRECTAS o INCORRECTAS, sólo queremos que respondas con la mayor precisión y sinceridad posible a las preguntas que se plantean.","response":0,"trial_type":"html-button-response","trial_index":66,"time_elapsed":3116900,"internal_node_id":"0.0-7.0"},{"rt":98902.0000002347,"response":{"Metas cuestionario pregunta1":2,"Metas cuestionario pregunta2":3,"Metas cuestionario pregunta3":3,"Metas cuestionario pregunta4":2,"Metas cuestionario pregunta5":3,"Metas cuestionario pregunta6":2,"Metas cuestionario pregunta7":3,"Metas cuestionario pregunta8":3,"Metas cuestionario pregunta9":3,"Metas cuestionario pregunta10":2,"Metas cuestionario pregunta11":0,"Metas cuestionario pregunta12":0,"Metas cuestionario pregunta13":2,"Metas cuestionario pregunta14":3,"Metas cuestionario pregunta15":4,"Metas cuestionario pregunta16":4,"Metas cuestionario pregunta17":4,"Metas cuestionario pregunta18":4,"Metas cuestionario pregunta19":4,"Metas cuestionario pregunta20":4},"question_order":[0,1,2,3,4,5,6,7,8,9,10,11,12,13,14,15,16,17,18,19],"trial_type":"survey-likert","trial_index":67,"time_elapsed":3215816,"internal_node_id":"0.0-8.0"},{"rt":1293.00000006333,"stimulus":"<p style=\"font-size: 120%\">Gracias por responder el cuestionario. Ahora te invitamos a seguir con el juego, que es muy breve.<br><br></p>","response":0,"trial_type":"html-button-response","trial_index":68,"time_elapsed":3217121,"internal_node_id":"0.0-9.0"},{"rt":8205.000000074506,"stimulus":"<h1>Juego</h1><p style=\"font-size: 120%;\">A continuación se te presentarán 16 pequeñas historias.<br>Por favor lee el texto presentado en cada una de ellas y luego haz click en el objeto de tu elección.<br>Si estás listo(a),<span style=\"color:red;\"> haz click en \"comenzar\"</span>.</p>","response":0,"trial_type":"html-button-response","trial_index":69,"time_elapsed":3225329,"internal_node_id":"0.0-10.0"},{"rt":9814.99999994412,"grid":[[1,1],[1,1],[1,1],[1,1],[1,1],[1,1],[1,1]],"target":[0,0],"response":[5,1],"correct":false,"juego":14,"trial_type":"serial-reaction-time-mouse","trial_index":70,"time_elapsed":3235154,"internal_node_id":"0.0-11.0-0.0"},{"rt":14765.000000130385,"grid":[[1,1,1],[1,1,1],[1,1,1]],"target":[0,0],"response":[0,0],"correct":true,"juego":10,"trial_type":"serial-reaction-time-mouse","trial_index":71,"time_elapsed":3249921,"internal_node_id":"0.0-11.0-1.0"},{"rt":3280.999999959022,"grid":[[1],[1],[1]],"target":[0,2],"response":[0,0],"correct":false,"juego":4,"trial_type":"serial-reaction-time-mouse","trial_index":72,"time_elapsed":3253202,"internal_node_id":"0.0-11.0-2.0"},{"rt":6604.999999981374,"grid":[[1,1,1]],"target":[0,2],"response":[0,1],"correct":false,"juego":8,"trial_type":"serial-reaction-time-mouse","trial_index":73,"time_elapsed":3259807,"internal_node_id":"0.0-11.0-3.0"},{"rt":12635.000000242144,"grid":[[1],[1],[1],[1],[1],[1]],"target":[0,0],"response":[0,0],"correct":true,"juego":5,"trial_type":"serial-reaction-time-mouse","trial_index":74,"time_elapsed":3272448,"internal_node_id":"0.0-11.0-4.0"},{"rt":8044.000000227243,"grid":[[1,1,1]],"target":[0,2],"response":[0,1],"correct":false,"juego":7,"trial_type":"serial-reaction-time-mouse","trial_index":75,"time_elapsed":3280496,"internal_node_id":"0.0-11.0-5.0"},{"rt":10536.000000312924,"grid":[[1,1,1]],"target":[0,0],"response":[0,1],"correct":false,"juego":11,"trial_type":"serial-reaction-time-mouse","trial_index":76,"time_elapsed":3291036,"internal_node_id":"0.0-11.0-6.0"},{"rt":4169.999999925494,"grid":[[1,1,1]],"target":[0,2],"response":[0,1],"correct":false,"juego":1,"trial_type":"serial-reaction-time-mouse","trial_index":77,"time_elapsed":3295206,"internal_node_id":"0.0-11.0-7.0"},{"rt":6652.000000234693,"grid":[[1,1,1]],"target":[0,0],"response":[0,1],"correct":false,"juego":12,"trial_type":"serial-reaction-time-mouse","trial_index":78,"time_elapsed":3301862,"internal_node_id":"0.0-11.0-8.0"},{"rt":9077.000000048429,"grid":[[1,1,1]],"target":[0,2],"response":[0,2],"correct":true,"juego":2,"trial_type":"serial-reaction-time-mouse","trial_index":79,"time_elapsed":3310943,"internal_node_id":"0.0-11.0-9.0"},{"rt":9006.000000052154,"grid":[[1,1,1]],"target":[0,0],"response":[0,0],"correct":true,"juego":9,"trial_type":"serial-reaction-time-mouse","trial_index":80,"time_elapsed":3319965,"internal_node_id":"0.0-11.0-10.0"},{"rt":8384.999999776483,"grid":[[1,1],[1,1],[1,1],[1,1],[1,1],[1,1],[1,1]],"target":[0,0],"response":[3,1],"correct":false,"juego":15,"trial_type":"serial-reaction-time-mouse","trial_index":81,"time_elapsed":3328379,"internal_node_id":"0.0-11.0-11.0"},{"rt":4601.9999999552965,"grid":[[1,1,1],[1,1,1],[1,1,1],[1,1,1],[1,1,1],[1,1,1],[1,1,1]],"target":[0,0],"response":[1,1],"correct":false,"juego":6,"trial_type":"serial-reaction-time-mouse","trial_index":82,"time_elapsed":3333002,"internal_node_id":"0.0-11.0-12.0"},{"rt":8086.999999824911,"grid":[[1,1,1]],"target":[0,2],"response":[0,0],"correct":false,"juego":3,"trial_type":"serial-reaction-time-mouse","trial_index":83,"time_elapsed":3341106,"internal_node_id":"0.0-11.0-13.0"},{"rt":8319.999999832362,"grid":[[1,1,1],[1,1,1],[1,1,1],[1,1,1],[1,1,1],[1,1,1],[1,1,1]],"target":[0,0],"response":[5,1],"correct":false,"juego":13,"trial_type":"serial-reaction-time-mouse","trial_index":84,"time_elapsed":3349433,"internal_node_id":"0.0-11.0-14.0"}]