[{"rt":38684.5500000054,"stimulus":"<h1 style=\"color:red; margin-top: 3%;\">¡Bienvenido(a)!</h1><p style=\"text-align:left; justify-content:space-between; margin-right: 5%; margin-left: 5%; margin-top: 5%\"> Antes de empezar el estudio, necesitamos que nos confirmes que estás de acuerdo con participar. Recuerda que tu participación es 100% voluntaria y que lo único que te pedimos es responder lo mejor que puedas. Recuerda también que el estudio incluye:</p><ol style=\"text-align:left; justify-content:space-between; margin-right: 5%; margin-left: 5%;\"><li> un ejercicio de resolución de preguntas de selección múltiple (30’),</li><li>un cuestionario breve (5’),</li><li>un juego muy breve (3’),</li></ol><p style=\"text-align:left; justify-content:space-between; margin-right: 5%; margin-left: 5%;\">Si quieres participar, haz clic en “Acepto” luego de leer lo siguiente:<br></p><p style=\"text-align:left; justify-content:space-between; margin-right: 5%; margin-left: 5%;\">Acepto participar en el estudio “Estrategias de lectura y resolución de preguntas de selección múltiple”, en los términos aquí señalados:<br></p><p style=\"text-align:left; justify-content:space-between; margin-right: 5%; margin-left: 5%;\"><a href=\"http://ciae.uchile.cl/download.php?file=noticias/Asentimiento.pdf\" target=\"_blank\">Link a la hoja de información del Consentimiento.</a></p><p style=\"text-align:left; justify-content:space-between; margin-right: 5%; margin-left: 5%;\">Declaro que he leído (o se me ha leído) y (he) comprendido, las condiciones de mi participación en este estudio. He tenido la oportunidad de hacer preguntas y éstas han sido respondidas. No tengo dudas al respecto.</p>","response":0,"condicion_MCQ":4,"condicion_INTER":4,"numero_participante":4,"numero_version":1,"dimx":1366,"dimy":768,"color_profundidad":24,"pixel_profundidad":24,"Browser":"Google Chrome","trial_type":"html-button-response","trial_index":0,"time_elapsed":38693,"internal_node_id":"0.0-0.0"},{"success":true,"trial_type":"fullscreen","trial_index":1,"time_elapsed":48652,"internal_node_id":"0.0-1.0"},{"rt":142571.00499999797,"responses":"{\"Nombres\":\"Benjamin Ariel\",\"Apellidos\":\"Riveros Torres\",\"Edad\":\"18\",\"Sexo\":\"Hombre\",\"Curso\":\"1er año\",\"Colegio\":\"Unab\",\"Contacto\":\"benjaminart10@gmail.com\"}","trial_type":"survey-text","trial_index":2,"time_elapsed":191246,"internal_node_id":"0.0-2.0"},{"success":true,"timeout":false,"failed_images":[],"failed_audio":[],"failed_video":[],"trial_type":"preload","trial_index":3,"time_elapsed":195508,"internal_node_id":"0.0-3.0"},{"rt":12798.030000005383,"stimulus":"<h1 style:\"margin-top: 5%;\">Ejercicios de Comprensión de Lectura de la Universidad de Chile</h1><p style=\"font-size: 120%;\">En esta actividad, debes responder 30 preguntas de selección múltiple. Cada pregunta presenta 3 respuestas alternativas, pero sólo una de ellas es correcta. Por lo tanto, debes escoger una sola alternativa para cada pregunta. Además, debes reportar qué tan seguro(a) estás de la respuesta que das, con un:</p><ol style=\"font-size: 120%;text-align:left;margin-left: 40%;\"><li>No estoy seguro(a) para nada</li><li>No estoy muy seguro(a)</li><li>Estoy bastante seguro(a)</li><li>Estoy totalmente seguro(a)</li></ol><p style=\"font-size: 120%;\">Por favor lee bien los enunciados antes de responder. ¡Éxito!</p>","response":0,"trial_type":"html-button-response","trial_index":4,"time_elapsed":208309,"internal_node_id":"0.0-4.0"},{"rt":175316.14500000433,"responses":"{\"pregunta26\":\"b) el hombre excesivo es inmoral. \"}","question_order":"[0]","trial_type":"survey-multi-choice","trial_index":5,"time_elapsed":383642,"internal_node_id":"0.0-5.0-0.0"},{"rt":8564.539999999397,"response":{"pregunta26 likert":2},"question_order":[0],"trial_type":"survey-likert","trial_index":6,"time_elapsed":392210,"internal_node_id":"0.0-5.0-1.0"},{"rt":63284.19500000018,"responses":"{\"pregunta1\":\"c) Entregan una característica detallada del personaje, a través de la voz narrativa. \"}","question_order":"[0]","trial_type":"survey-multi-choice","trial_index":7,"time_elapsed":455497,"internal_node_id":"0.0-5.0-2.0"},{"rt":2081.209999996645,"response":{"pregunta1 likert":2},"question_order":[0],"trial_type":"survey-likert","trial_index":8,"time_elapsed":457581,"internal_node_id":"0.0-5.0-3.0"},{"rt":180360.90500000137,"responses":"{\"pregunta19\":\"c) Las personas que leen son más flexibles en sus ideas y autónomas en su accionar. \"}","question_order":"[0]","trial_type":"survey-multi-choice","trial_index":9,"time_elapsed":637946,"internal_node_id":"0.0-5.0-4.0"},{"rt":4485.520000001881,"response":{"pregunta19 likert":1},"question_order":[0],"trial_type":"survey-likert","trial_index":10,"time_elapsed":642435,"internal_node_id":"0.0-5.0-5.0"},{"rt":53691.51499999873,"responses":"{\"pregunta22\":\"b) Bomberos debería tener acceso a un seguro médico, al que pueda recurrir en caso de accidente. \"}","question_order":"[0]","trial_type":"survey-multi-choice","trial_index":11,"time_elapsed":696130,"internal_node_id":"0.0-5.0-6.0"},{"rt":1637.4999999970896,"response":{"pregunta22 likert":2},"question_order":[0],"trial_type":"survey-likert","trial_index":12,"time_elapsed":697770,"internal_node_id":"0.0-5.0-7.0"},{"rt":57821.15999999957,"responses":"{\"pregunta27\":\"a) Nuestra economía vivirá un proceso de ajuste a la nueva realidad. \"}","question_order":"[0]","trial_type":"survey-multi-choice","trial_index":13,"time_elapsed":755594,"internal_node_id":"0.0-5.0-8.0"},{"rt":17484.375,"response":{"pregunta27 likert":2},"question_order":[0],"trial_type":"survey-likert","trial_index":14,"time_elapsed":773082,"internal_node_id":"0.0-5.0-9.0"},{"rt":270797.35500000254,"responses":"{\"pregunta7\":\"b) La imprenta y el papel han permitido el desarrollo de la civilización y la conservación de su cultura, y ambos son inventos chinos. \"}","question_order":"[0]","trial_type":"survey-multi-choice","trial_index":15,"time_elapsed":1043882,"internal_node_id":"0.0-5.0-10.0"},{"rt":2836.7050000014715,"response":{"pregunta7 likert":2},"question_order":[0],"trial_type":"survey-likert","trial_index":16,"time_elapsed":1046722,"internal_node_id":"0.0-5.0-11.0"},{"rt":252385.47000000114,"responses":"{\"pregunta10\":\"b) La biónica puede asegurar nuestra existencia mediante la aplicación de técnicas copiadas de la naturaleza. \"}","question_order":"[0]","trial_type":"survey-multi-choice","trial_index":17,"time_elapsed":1299111,"internal_node_id":"0.0-5.0-12.0"},{"rt":2341.53000000515,"response":{"pregunta10 likert":1},"question_order":[0],"trial_type":"survey-likert","trial_index":18,"time_elapsed":1301455,"internal_node_id":"0.0-5.0-13.0"},{"rt":95476.96500000148,"responses":"{\"pregunta5\":\"c) Los momentos triviales de los viajes, en la escritura se vuelven significativos. \"}","question_order":"[0]","trial_type":"survey-multi-choice","trial_index":19,"time_elapsed":1396935,"internal_node_id":"0.0-5.0-14.0"},{"rt":2376.2999999963213,"response":{"pregunta5 likert":2},"question_order":[0],"trial_type":"survey-likert","trial_index":20,"time_elapsed":1399314,"internal_node_id":"0.0-5.0-15.0"},{"rt":387622.4149999982,"responses":"{\"pregunta25\":\"a) llevan un control grupal de su embarazo. \"}","question_order":"[0]","trial_type":"survey-multi-choice","trial_index":21,"time_elapsed":1786940,"internal_node_id":"0.0-5.0-16.0"},{"rt":1636.4049999974668,"response":{"pregunta25 likert":2},"question_order":[0],"trial_type":"survey-likert","trial_index":22,"time_elapsed":1788580,"internal_node_id":"0.0-5.0-17.0"},{"rt":137419.75499999523,"responses":"{\"pregunta17\":\"b) Homenajear a quienes murieron. \"}","question_order":"[0]","trial_type":"survey-multi-choice","trial_index":23,"time_elapsed":1926004,"internal_node_id":"0.0-5.0-18.0"},{"rt":2201.195000001462,"response":{"pregunta17 likert":2},"question_order":[0],"trial_type":"survey-likert","trial_index":24,"time_elapsed":1928208,"internal_node_id":"0.0-5.0-19.0"},{"rt":70821.38999999734,"responses":"{\"pregunta15\":\"a) ritualistas y obsesivos. \"}","question_order":"[0]","trial_type":"survey-multi-choice","trial_index":25,"time_elapsed":1999032,"internal_node_id":"0.0-5.0-20.0"},{"rt":3081.024999999441,"response":{"pregunta15 likert":2},"question_order":[0],"trial_type":"survey-likert","trial_index":26,"time_elapsed":2002117,"internal_node_id":"0.0-5.0-21.0"},{"rt":64736.085000004154,"responses":"{\"pregunta13\":\"c) El ser humano se comporta de acuerdo con las circunstancias. \"}","question_order":"[0]","trial_type":"survey-multi-choice","trial_index":27,"time_elapsed":2066856,"internal_node_id":"0.0-5.0-22.0"},{"rt":4333.659999996657,"response":{"pregunta13 likert":2},"question_order":[0],"trial_type":"survey-likert","trial_index":28,"time_elapsed":2071192,"internal_node_id":"0.0-5.0-23.0"},{"rt":71993.21500000241,"responses":"{\"pregunta20\":\"b) sólo las leyes bastan para gobernarse. \"}","question_order":"[0]","trial_type":"survey-multi-choice","trial_index":29,"time_elapsed":2143188,"internal_node_id":"0.0-5.0-24.0"},{"rt":2684.6399999996647,"response":{"pregunta20 likert":2},"question_order":[0],"trial_type":"survey-likert","trial_index":30,"time_elapsed":2145878,"internal_node_id":"0.0-5.0-25.0"},{"rt":67587.85999999987,"responses":"{\"pregunta30\":\"b) para el mexicano, la muerte es como una mujer. \"}","question_order":"[0]","trial_type":"survey-multi-choice","trial_index":31,"time_elapsed":2213468,"internal_node_id":"0.0-5.0-26.0"},{"rt":4557.359999998938,"response":{"pregunta30 likert":2},"question_order":[0],"trial_type":"survey-likert","trial_index":32,"time_elapsed":2218028,"internal_node_id":"0.0-5.0-27.0"},{"rt":111413.16000000387,"responses":"{\"pregunta29\":\"c) el jardinero estará muerto al día siguiente. \"}","question_order":"[0]","trial_type":"survey-multi-choice","trial_index":33,"time_elapsed":2329444,"internal_node_id":"0.0-5.0-28.0"},{"rt":2913.1800000029616,"response":{"pregunta29 likert":2},"question_order":[0],"trial_type":"survey-likert","trial_index":34,"time_elapsed":2332361,"internal_node_id":"0.0-5.0-29.0"},{"rt":80605.24499999871,"responses":"{\"pregunta2\":\"b) A la relación entre sociedad y constitución social. \"}","question_order":"[0]","trial_type":"survey-multi-choice","trial_index":35,"time_elapsed":2412968,"internal_node_id":"0.0-5.0-30.0"},{"rt":1629.460000003688,"response":{"pregunta2 likert":2},"question_order":[0],"trial_type":"survey-likert","trial_index":36,"time_elapsed":2414601,"internal_node_id":"0.0-5.0-31.0"},{"rt":75188.96500000125,"responses":"{\"pregunta16\":\"c) Provocar el deseo de la adquisición vertiginosa. \"}","question_order":"[0]","trial_type":"survey-multi-choice","trial_index":37,"time_elapsed":2489793,"internal_node_id":"0.0-5.0-32.0"},{"rt":3284.404999998398,"response":{"pregunta16 likert":2},"question_order":[0],"trial_type":"survey-likert","trial_index":38,"time_elapsed":2493081,"internal_node_id":"0.0-5.0-33.0"},{"rt":67673.56000000285,"responses":"{\"pregunta24\":\"b) El receptor es habitualmente pasivo frente a la publicidad. \"}","question_order":"[0]","trial_type":"survey-multi-choice","trial_index":39,"time_elapsed":2560757,"internal_node_id":"0.0-5.0-34.0"},{"rt":2597.214999994263,"response":{"pregunta24 likert":2},"question_order":[0],"trial_type":"survey-likert","trial_index":40,"time_elapsed":2563357,"internal_node_id":"0.0-5.0-35.0"},{"rt":94988.9750000001,"responses":"{\"pregunta11\":\"a) Promover la asistencia a un evento específico de decoración a través de una atractiva descripción. \"}","question_order":"[0]","trial_type":"survey-multi-choice","trial_index":41,"time_elapsed":2658342,"internal_node_id":"0.0-5.0-36.0"},{"rt":2444.8249999983236,"response":{"pregunta11 likert":2},"question_order":[0],"trial_type":"survey-likert","trial_index":42,"time_elapsed":2660790,"internal_node_id":"0.0-5.0-37.0"},{"rt":97369.46000000136,"responses":"{\"pregunta14\":\"a) preparar los recuerdos del mañana. \"}","question_order":"[0]","trial_type":"survey-multi-choice","trial_index":43,"time_elapsed":2758169,"internal_node_id":"0.0-5.0-38.0"},{"rt":3893.445000001695,"response":{"pregunta14 likert":2},"question_order":[0],"trial_type":"survey-likert","trial_index":44,"time_elapsed":2762065,"internal_node_id":"0.0-5.0-39.0"},{"rt":75681.1799999997,"responses":"{\"pregunta6\":\"a) Las personas escandalosas constantemente critican a la Academia. \"}","question_order":"[0]","trial_type":"survey-multi-choice","trial_index":45,"time_elapsed":2837749,"internal_node_id":"0.0-5.0-40.0"},{"rt":3193.2349999984726,"response":{"pregunta6 likert":1},"question_order":[0],"trial_type":"survey-likert","trial_index":46,"time_elapsed":2840945,"internal_node_id":"0.0-5.0-41.0"},{"rt":68237.11500000348,"responses":"{\"pregunta8\":\"c) Dar a conocer al ganador del premio Cervantes. \"}","question_order":"[0]","trial_type":"survey-multi-choice","trial_index":47,"time_elapsed":2909185,"internal_node_id":"0.0-5.0-42.0"},{"rt":2257.3199999970384,"response":{"pregunta8 likert":2},"question_order":[0],"trial_type":"survey-likert","trial_index":48,"time_elapsed":2911445,"internal_node_id":"0.0-5.0-43.0"},{"rt":105125.37999999756,"responses":"{\"pregunta12\":\"b) se da como existente, y sólo se discute su relación con el cuerpo. \"}","question_order":"[0]","trial_type":"survey-multi-choice","trial_index":49,"time_elapsed":3016573,"internal_node_id":"0.0-5.0-44.0"},{"rt":2525.339999999851,"response":{"pregunta12 likert":2},"question_order":[0],"trial_type":"survey-likert","trial_index":50,"time_elapsed":3019102,"internal_node_id":"0.0-5.0-45.0"},{"rt":73532.53499999829,"responses":"{\"pregunta9\":\"a) pueden rendir exámenes para optar y obtener títulos profesionales igual que los hombres. \"}","question_order":"[0]","trial_type":"survey-multi-choice","trial_index":51,"time_elapsed":3092638,"internal_node_id":"0.0-5.0-46.0"},{"rt":3749.649999998044,"response":{"pregunta9 likert":2},"question_order":[0],"trial_type":"survey-likert","trial_index":52,"time_elapsed":3096390,"internal_node_id":"0.0-5.0-47.0"},{"rt":85401.78000000026,"responses":"{\"pregunta4\":\"c) En la literatura como en la vida, lo importante son las preguntas. \"}","question_order":"[0]","trial_type":"survey-multi-choice","trial_index":53,"time_elapsed":3181794,"internal_node_id":"0.0-5.0-48.0"},{"rt":2677.224999999162,"response":{"pregunta4 likert":2},"question_order":[0],"trial_type":"survey-likert","trial_index":54,"time_elapsed":3184474,"internal_node_id":"0.0-5.0-49.0"},{"rt":41652.8850000035,"responses":"{\"pregunta21\":\"a) el uranio es el elemento natural con el mayor número de protones en el núcleo. \"}","question_order":"[0]","trial_type":"survey-multi-choice","trial_index":55,"time_elapsed":3226130,"internal_node_id":"0.0-5.0-50.0"},{"rt":2121.2449999949895,"response":{"pregunta21 likert":2},"question_order":[0],"trial_type":"survey-likert","trial_index":56,"time_elapsed":3228254,"internal_node_id":"0.0-5.0-51.0"},{"rt":34741.394999997225,"responses":"{\"pregunta28\":\"b) Se necesita un marco legal para delimitar lo público y lo privado en materia informativa. \"}","question_order":"[0]","trial_type":"survey-multi-choice","trial_index":57,"time_elapsed":3262998,"internal_node_id":"0.0-5.0-52.0"},{"rt":3765.2849999940954,"response":{"pregunta28 likert":2},"question_order":[0],"trial_type":"survey-likert","trial_index":58,"time_elapsed":3266766,"internal_node_id":"0.0-5.0-53.0"},{"rt":52637.09999999963,"responses":"{\"pregunta18\":\"b) A la inutilidad de tanto esfuerzo si el objetivo es el reposo. \"}","question_order":"[0]","trial_type":"survey-multi-choice","trial_index":59,"time_elapsed":3319406,"internal_node_id":"0.0-5.0-54.0"},{"rt":2100.6350000025705,"response":{"pregunta18 likert":2},"question_order":[0],"trial_type":"survey-likert","trial_index":60,"time_elapsed":3321510,"internal_node_id":"0.0-5.0-55.0"},{"rt":72129.7750000013,"responses":"{\"pregunta3\":\"b) El inicio de la civilización china. \"}","question_order":"[0]","trial_type":"survey-multi-choice","trial_index":61,"time_elapsed":3393643,"internal_node_id":"0.0-5.0-56.0"},{"rt":1519.7249999986961,"response":{"pregunta3 likert":2},"question_order":[0],"trial_type":"survey-likert","trial_index":62,"time_elapsed":3395166,"internal_node_id":"0.0-5.0-57.0"},{"rt":46449.46499999752,"responses":"{\"pregunta23\":\"c) A la influencia de grupos que rechazaban su música. \"}","question_order":"[0]","trial_type":"survey-multi-choice","trial_index":63,"time_elapsed":3441617,"internal_node_id":"0.0-5.0-58.0"},{"rt":3172.25499999756,"response":{"pregunta23 likert":2},"question_order":[0],"trial_type":"survey-likert","trial_index":64,"time_elapsed":3444792,"internal_node_id":"0.0-5.0-59.0"}]