[{"rt":1540497.7599999984,"stimulus":"<h1 style=\"color:red; margin-top: 3%;\">¡Bienvenido(a)!</h1><p style=\"text-align:left; justify-content:space-between; margin-right: 5%; margin-left: 5%; margin-top: 5%\"> Antes de empezar el estudio, necesitamos que nos confirmes que estás de acuerdo con participar. Recuerda que tu participación es 100% voluntaria y que lo único que te pedimos es responder lo mejor que puedas. Recuerda también que el estudio incluye:</p><ol style=\"text-align:left; justify-content:space-between; margin-right: 5%; margin-left: 5%;\"><li> un ejercicio de resolución de preguntas de selección múltiple (30’),</li><li>un cuestionario breve (5’),</li><li>un juego muy breve (3’),</li></ol><p style=\"text-align:left; justify-content:space-between; margin-right: 5%; margin-left: 5%;\">Si quieres participar, haz clic en “Acepto” luego de leer lo siguiente:<br></p><p style=\"text-align:left; justify-content:space-between; margin-right: 5%; margin-left: 5%;\">Acepto participar en el estudio “Estrategias de lectura y resolución de preguntas de selección múltiple”, en los términos aquí señalados:<br></p><p style=\"text-align:left; justify-content:space-between; margin-right: 5%; margin-left: 5%;\"><a href=\"http://ciae.uchile.cl/download.php?file=noticias/Asentimiento.pdf\" target=\"_blank\">Link a la hoja de información del Consentimiento.</a></p><p style=\"text-align:left; justify-content:space-between; margin-right: 5%; margin-left: 5%;\">Declaro que he leído (o se me ha leído) y (he) comprendido, las condiciones de mi participación en este estudio. He tenido la oportunidad de hacer preguntas y éstas han sido respondidas. No tengo dudas al respecto.</p>","response":0,"condicion_MCQ":4,"condicion_INTER":10,"numero_participante":10,"numero_version":1,"dimx":1366,"dimy":768,"color_profundidad":24,"pixel_profundidad":24,"Browser":"Google Chrome","trial_type":"html-button-response","trial_index":0,"time_elapsed":1540523,"internal_node_id":"0.0-0.0"},{"success":true,"trial_type":"fullscreen","trial_index":1,"time_elapsed":1550802,"internal_node_id":"0.0-1.0"},{"rt":512090.26999998605,"responses":"{\"Nombres\":\"Constanza Lissette\",\"Apellidos\":\"Reyes Campos\",\"Edad\":\"18\",\"Sexo\":\"mujer\",\"Curso\":\"BIOLO80\",\"Colegio\":\"universidad Andrés Bello\",\"Contacto\":\"c.reyescampos1@uandresbello.edu\"}","trial_type":"survey-text","trial_index":2,"time_elapsed":2062920,"internal_node_id":"0.0-2.0"},{"success":true,"timeout":false,"failed_images":[],"failed_audio":[],"failed_video":[],"trial_type":"preload","trial_index":3,"time_elapsed":2063607,"internal_node_id":"0.0-3.0"},{"rt":23884.075000009034,"stimulus":"<h1 style:\"margin-top: 5%;\">Ejercicios de Comprensión de Lectura de la Universidad de Chile</h1><p style=\"font-size: 120%;\">En esta actividad, debes responder 30 preguntas de selección múltiple. Cada pregunta presenta 3 respuestas alternativas, pero sólo una de ellas es correcta. Por lo tanto, debes escoger una sola alternativa para cada pregunta. Además, debes reportar qué tan seguro(a) estás de la respuesta que das, con un:</p><ol style=\"font-size: 120%;text-align:left;margin-left: 40%;\"><li>No estoy seguro(a) para nada</li><li>No estoy muy seguro(a)</li><li>Estoy bastante seguro(a)</li><li>Estoy totalmente seguro(a)</li></ol><p style=\"font-size: 120%;\">Por favor lee bien los enunciados antes de responder. ¡Éxito!</p>","response":0,"trial_type":"html-button-response","trial_index":4,"time_elapsed":2087494,"internal_node_id":"0.0-4.0"},{"rt":75963.35500001442,"responses":"{\"pregunta10\":\"b) La biónica puede asegurar nuestra existencia mediante la aplicación de técnicas copiadas de la naturaleza. \"}","question_order":"[0]","trial_type":"survey-multi-choice","trial_index":5,"time_elapsed":2163463,"internal_node_id":"0.0-5.0-0.0"},{"rt":5278.504999994766,"response":{"pregunta10 likert":3},"question_order":[0],"trial_type":"survey-likert","trial_index":6,"time_elapsed":2168754,"internal_node_id":"0.0-5.0-1.0"},{"rt":203272.3700000206,"responses":"{\"pregunta12\":\"b) se da como existente, y sólo se discute su relación con el cuerpo. \"}","question_order":"[0]","trial_type":"survey-multi-choice","trial_index":7,"time_elapsed":2372033,"internal_node_id":"0.0-5.0-2.0"},{"rt":7666.099999973085,"response":{"pregunta12 likert":1},"question_order":[0],"trial_type":"survey-likert","trial_index":8,"time_elapsed":2379710,"internal_node_id":"0.0-5.0-3.0"},{"rt":140835.58000001358,"responses":"{\"pregunta23\":\"a) A la inexistencia de un recinto adecuado para el recital. \"}","question_order":"[0]","trial_type":"survey-multi-choice","trial_index":9,"time_elapsed":2520553,"internal_node_id":"0.0-5.0-4.0"},{"rt":10176.260000036564,"response":{"pregunta23 likert":2},"question_order":[0],"trial_type":"survey-likert","trial_index":10,"time_elapsed":2530738,"internal_node_id":"0.0-5.0-5.0"},{"rt":142175.30500004068,"responses":"{\"pregunta2\":\"a) A la relación entre pensamiento y estructura social. \"}","question_order":"[0]","trial_type":"survey-multi-choice","trial_index":11,"time_elapsed":2672921,"internal_node_id":"0.0-5.0-6.0"},{"rt":4662.505000014789,"response":{"pregunta2 likert":1},"question_order":[0],"trial_type":"survey-likert","trial_index":12,"time_elapsed":2677592,"internal_node_id":"0.0-5.0-7.0"},{"rt":107024.32500000577,"responses":"{\"pregunta3\":\"b) El inicio de la civilización china. \"}","question_order":"[0]","trial_type":"survey-multi-choice","trial_index":13,"time_elapsed":2784626,"internal_node_id":"0.0-5.0-8.0"},{"rt":6711.595000000671,"response":{"pregunta3 likert":1},"question_order":[0],"trial_type":"survey-likert","trial_index":14,"time_elapsed":2791345,"internal_node_id":"0.0-5.0-9.0"},{"rt":206420.6600000034,"responses":"{\"pregunta21\":\"a) el uranio es el elemento natural con el mayor número de protones en el núcleo. \"}","question_order":"[0]","trial_type":"survey-multi-choice","trial_index":15,"time_elapsed":2997775,"internal_node_id":"0.0-5.0-10.0"},{"rt":4600.210000004154,"response":{"pregunta21 likert":2},"question_order":[0],"trial_type":"survey-likert","trial_index":16,"time_elapsed":3002383,"internal_node_id":"0.0-5.0-11.0"},{"rt":178073.07499996386,"responses":"{\"pregunta30\":\"b) para el mexicano, la muerte es como una mujer. \"}","question_order":"[0]","trial_type":"survey-multi-choice","trial_index":17,"time_elapsed":3180465,"internal_node_id":"0.0-5.0-12.0"},{"rt":2963.0550000001676,"response":{"pregunta30 likert":1},"question_order":[0],"trial_type":"survey-likert","trial_index":18,"time_elapsed":3183438,"internal_node_id":"0.0-5.0-13.0"},{"rt":85349.6349999914,"responses":"{\"pregunta9\":\"a) pueden rendir exámenes para optar y obtener títulos profesionales igual que los hombres. \"}","question_order":"[0]","trial_type":"survey-multi-choice","trial_index":19,"time_elapsed":3268797,"internal_node_id":"0.0-5.0-14.0"},{"rt":5055.625000037253,"response":{"pregunta9 likert":2},"question_order":[0],"trial_type":"survey-likert","trial_index":20,"time_elapsed":3273862,"internal_node_id":"0.0-5.0-15.0"},{"rt":157977.1850000252,"responses":"{\"pregunta22\":\"c) Se debe crear un seguro médico especial para esta institución, pues es de alto riesgo. \"}","question_order":"[0]","trial_type":"survey-multi-choice","trial_index":21,"time_elapsed":3431846,"internal_node_id":"0.0-5.0-16.0"},{"rt":3911.370000045281,"response":{"pregunta22 likert":2},"question_order":[0],"trial_type":"survey-likert","trial_index":22,"time_elapsed":3435765,"internal_node_id":"0.0-5.0-17.0"},{"rt":143151.35499997996,"responses":"{\"pregunta5\":\"c) Los momentos triviales de los viajes, en la escritura se vuelven significativos. \"}","question_order":"[0]","trial_type":"survey-multi-choice","trial_index":23,"time_elapsed":3578925,"internal_node_id":"0.0-5.0-18.0"},{"rt":9064.539999992121,"response":{"pregunta5 likert":3},"question_order":[0],"trial_type":"survey-likert","trial_index":24,"time_elapsed":3587998,"internal_node_id":"0.0-5.0-19.0"},{"rt":82839.91499996046,"responses":"{\"pregunta18\":\"a) Al premio merecido después de tantos esfuerzos. \"}","question_order":"[0]","trial_type":"survey-multi-choice","trial_index":25,"time_elapsed":3670845,"internal_node_id":"0.0-5.0-20.0"},{"rt":2516.0399999585934,"response":{"pregunta18 likert":2},"question_order":[0],"trial_type":"survey-likert","trial_index":26,"time_elapsed":3673369,"internal_node_id":"0.0-5.0-21.0"},{"rt":194643.61000002827,"responses":"{\"pregunta29\":\"b) la Muerte vaticina el futuro mediante gestos. \"}","question_order":"[0]","trial_type":"survey-multi-choice","trial_index":27,"time_elapsed":3868021,"internal_node_id":"0.0-5.0-22.0"},{"rt":3845.880000037141,"response":{"pregunta29 likert":1},"question_order":[0],"trial_type":"survey-likert","trial_index":28,"time_elapsed":3871873,"internal_node_id":"0.0-5.0-23.0"},{"rt":131512.24000001093,"responses":"{\"pregunta15\":\"a) ritualistas y obsesivos. \"}","question_order":"[0]","trial_type":"survey-multi-choice","trial_index":29,"time_elapsed":4003391,"internal_node_id":"0.0-5.0-24.0"},{"rt":2103.86999999173,"response":{"pregunta15 likert":2},"question_order":[0],"trial_type":"survey-likert","trial_index":30,"time_elapsed":4005503,"internal_node_id":"0.0-5.0-25.0"},{"rt":72204.20000003651,"responses":"{\"pregunta27\":\"a) Nuestra economía vivirá un proceso de ajuste a la nueva realidad. \"}","question_order":"[0]","trial_type":"survey-multi-choice","trial_index":31,"time_elapsed":4077717,"internal_node_id":"0.0-5.0-26.0"},{"rt":3888.7899999972433,"response":{"pregunta27 likert":3},"question_order":[0],"trial_type":"survey-likert","trial_index":32,"time_elapsed":4081613,"internal_node_id":"0.0-5.0-27.0"},{"rt":206053.10499999905,"responses":"{\"pregunta17\":\"b) Homenajear a quienes murieron. \"}","question_order":"[0]","trial_type":"survey-multi-choice","trial_index":33,"time_elapsed":4287673,"internal_node_id":"0.0-5.0-28.0"},{"rt":3947.265000023879,"response":{"pregunta17 likert":2},"question_order":[0],"trial_type":"survey-likert","trial_index":34,"time_elapsed":4291629,"internal_node_id":"0.0-5.0-29.0"},{"rt":412784.4299999997,"responses":"{\"pregunta24\":\"c) La publicidad es dañina para sus receptores. \"}","question_order":"[0]","trial_type":"survey-multi-choice","trial_index":35,"time_elapsed":4704421,"internal_node_id":"0.0-5.0-30.0"},{"rt":5221.774999983609,"response":{"pregunta24 likert":0},"question_order":[0],"trial_type":"survey-likert","trial_index":36,"time_elapsed":4709652,"internal_node_id":"0.0-5.0-31.0"},{"rt":127763.52999999654,"responses":"{\"pregunta19\":\"c) Las personas que leen son más flexibles en sus ideas y autónomas en su accionar. \"}","question_order":"[0]","trial_type":"survey-multi-choice","trial_index":37,"time_elapsed":4837422,"internal_node_id":"0.0-5.0-32.0"},{"rt":3463.440000020899,"response":{"pregunta19 likert":1},"question_order":[0],"trial_type":"survey-likert","trial_index":38,"time_elapsed":4840893,"internal_node_id":"0.0-5.0-33.0"},{"rt":1365538.3249999722,"responses":"{\"pregunta6\":\"c) Las voces extranjeras viven una tensión entre la aceptación y el rechazo. \"}","question_order":"[0]","trial_type":"survey-multi-choice","trial_index":39,"time_elapsed":6206440,"internal_node_id":"0.0-5.0-34.0"},{"rt":4176.504999981262,"response":{"pregunta6 likert":2},"question_order":[0],"trial_type":"survey-likert","trial_index":40,"time_elapsed":6210628,"internal_node_id":"0.0-5.0-35.0"},{"rt":167398.6299999524,"responses":"{\"pregunta20\":\"a) la muerte de Wu Ti fue una bendición. \"}","question_order":"[0]","trial_type":"survey-multi-choice","trial_index":41,"time_elapsed":6378031,"internal_node_id":"0.0-5.0-36.0"},{"rt":2042.7250000061467,"response":{"pregunta20 likert":2},"question_order":[0],"trial_type":"survey-likert","trial_index":42,"time_elapsed":6380081,"internal_node_id":"0.0-5.0-37.0"},{"rt":562594.9649999961,"responses":"{\"pregunta4\":\"c) En la literatura como en la vida, lo importante son las preguntas. \"}","question_order":"[0]","trial_type":"survey-multi-choice","trial_index":43,"time_elapsed":6942684,"internal_node_id":"0.0-5.0-38.0"},{"rt":3312.015000032261,"response":{"pregunta4 likert":1},"question_order":[0],"trial_type":"survey-likert","trial_index":44,"time_elapsed":6946000,"internal_node_id":"0.0-5.0-39.0"},{"rt":200038.26999996137,"responses":"{\"pregunta1\":\"b) Aportan informaciones con las que se reconstruye el personaje dentro de un relato. \"}","question_order":"[0]","trial_type":"survey-multi-choice","trial_index":45,"time_elapsed":7146044,"internal_node_id":"0.0-5.0-40.0"},{"rt":5075.610000000335,"response":{"pregunta1 likert":2},"question_order":[0],"trial_type":"survey-likert","trial_index":46,"time_elapsed":7151124,"internal_node_id":"0.0-5.0-41.0"},{"rt":261564.27500001155,"responses":"{\"pregunta11\":\"b) Presentar positivamente las diversas tendencias del diseño de interiores a través de un comentario. \"}","question_order":"[0]","trial_type":"survey-multi-choice","trial_index":47,"time_elapsed":7412695,"internal_node_id":"0.0-5.0-42.0"},{"rt":1884.094999987632,"response":{"pregunta11 likert":2},"question_order":[0],"trial_type":"survey-likert","trial_index":48,"time_elapsed":7414584,"internal_node_id":"0.0-5.0-43.0"},{"rt":229191.74999999814,"responses":"{\"pregunta7\":\"a) Si desaparecieran el papel y la imprenta, se produciría un gran retraso en nuestra civilización. \"}","question_order":"[0]","trial_type":"survey-multi-choice","trial_index":49,"time_elapsed":7643783,"internal_node_id":"0.0-5.0-44.0"},{"rt":2112.1599999610335,"response":{"pregunta7 likert":1},"question_order":[0],"trial_type":"survey-likert","trial_index":50,"time_elapsed":7645899,"internal_node_id":"0.0-5.0-45.0"},{"rt":195122.64999997523,"responses":"{\"pregunta14\":\"a) preparar los recuerdos del mañana. \"}","question_order":"[0]","trial_type":"survey-multi-choice","trial_index":51,"time_elapsed":7841030,"internal_node_id":"0.0-5.0-46.0"},{"rt":2273.159999983385,"response":{"pregunta14 likert":2},"question_order":[0],"trial_type":"survey-likert","trial_index":52,"time_elapsed":7843307,"internal_node_id":"0.0-5.0-47.0"},{"rt":138952.91999995243,"responses":"{\"pregunta25\":\"a) llevan un control grupal de su embarazo. \"}","question_order":"[0]","trial_type":"survey-multi-choice","trial_index":53,"time_elapsed":7982268,"internal_node_id":"0.0-5.0-48.0"},{"rt":2075.0499999849126,"response":{"pregunta25 likert":1},"question_order":[0],"trial_type":"survey-likert","trial_index":54,"time_elapsed":7984347,"internal_node_id":"0.0-5.0-49.0"},{"rt":151298.97499998286,"responses":"{\"pregunta26\":\"a) para Aristóteles la virtud estaba en el justo equilibrio. \"}","question_order":"[0]","trial_type":"survey-multi-choice","trial_index":55,"time_elapsed":8135650,"internal_node_id":"0.0-5.0-50.0"},{"rt":2960.5950000118464,"response":{"pregunta26 likert":1},"question_order":[0],"trial_type":"survey-likert","trial_index":56,"time_elapsed":8138615,"internal_node_id":"0.0-5.0-51.0"},{"rt":216316.5300000105,"responses":"{\"pregunta13\":\"c) El ser humano se comporta de acuerdo con las circunstancias. \"}","question_order":"[0]","trial_type":"survey-multi-choice","trial_index":57,"time_elapsed":8354935,"internal_node_id":"0.0-5.0-52.0"},{"rt":4589.645000000484,"response":{"pregunta13 likert":1},"question_order":[0],"trial_type":"survey-likert","trial_index":58,"time_elapsed":8359530,"internal_node_id":"0.0-5.0-53.0"},{"rt":138491.22999998555,"responses":"{\"pregunta28\":\"b) Se necesita un marco legal para delimitar lo público y lo privado en materia informativa. \"}","question_order":"[0]","trial_type":"survey-multi-choice","trial_index":59,"time_elapsed":8498026,"internal_node_id":"0.0-5.0-54.0"},{"rt":1984.1250000167638,"response":{"pregunta28 likert":2},"question_order":[0],"trial_type":"survey-likert","trial_index":60,"time_elapsed":8500015,"internal_node_id":"0.0-5.0-55.0"},{"rt":165672.2849999778,"responses":"{\"pregunta8\":\"c) Dar a conocer al ganador del premio Cervantes. \"}","question_order":"[0]","trial_type":"survey-multi-choice","trial_index":61,"time_elapsed":8665695,"internal_node_id":"0.0-5.0-56.0"},{"rt":3175.695000041276,"response":{"pregunta8 likert":1},"question_order":[0],"trial_type":"survey-likert","trial_index":62,"time_elapsed":8668875,"internal_node_id":"0.0-5.0-57.0"},{"rt":57420.48500001058,"responses":"{\"pregunta16\":\"a) Deleitar a sus receptores por medio de la belleza y el confort. \"}","question_order":"[0]","trial_type":"survey-multi-choice","trial_index":63,"time_elapsed":8726306,"internal_node_id":"0.0-5.0-58.0"},{"rt":2975.374999979511,"response":{"pregunta16 likert":2},"question_order":[0],"trial_type":"survey-likert","trial_index":64,"time_elapsed":8729286,"internal_node_id":"0.0-5.0-59.0"},{"rt":13169.995000004768,"stimulus":"<p style=\"font-size: 120%\">Gracias por completar esta etapa del estudio. Ahora te invitamos a responder el cuestionario.<br><br></p>","response":0,"trial_type":"html-button-response","trial_index":65,"time_elapsed":8742477,"internal_node_id":"0.0-6.0"},{"rt":21539.13500002958,"stimulus":"<h1 style=\"margin-top: 5%\">Cuestionario para la Evaluación de Metas Académicas</h1><p style=\"font-size: 120%; margin-left: 3%; margin-top: 5%\">Este es un cuestionario que permite conocer cuáles son los principales motivos por los que los estudiantes se esfuerzan en su trabajo académico. A continuación, se te presentarán una serie de afirmaciones acerca de los motivos que puedes tener para estudiar.<br>Te pedimos que contestes a dichas afirmaciones reflexionando sobre el contenido de cada una de ellas, que, aunque te parezcan semejantes, en realidad, no lo son.<br>NO HAY RESPUESTAS CORRECTAS o INCORRECTAS, sólo queremos que respondas con la mayor precisión y sinceridad posible a las preguntas que se plantean.","response":0,"trial_type":"html-button-response","trial_index":66,"time_elapsed":8764017,"internal_node_id":"0.0-7.0"},{"rt":254716.36499999836,"response":{"Metas cuestionario pregunta1":2,"Metas cuestionario pregunta2":4,"Metas cuestionario pregunta3":4,"Metas cuestionario pregunta4":2,"Metas cuestionario pregunta5":4,"Metas cuestionario pregunta6":2,"Metas cuestionario pregunta7":3,"Metas cuestionario pregunta8":4,"Metas cuestionario pregunta9":1,"Metas cuestionario pregunta10":0,"Metas cuestionario pregunta11":0,"Metas cuestionario pregunta12":1,"Metas cuestionario pregunta13":1,"Metas cuestionario pregunta14":0,"Metas cuestionario pregunta15":3,"Metas cuestionario pregunta16":4,"Metas cuestionario pregunta17":3,"Metas cuestionario pregunta18":4,"Metas cuestionario pregunta19":4,"Metas cuestionario pregunta20":1},"question_order":[0,1,2,3,4,5,6,7,8,9,10,11,12,13,14,15,16,17,18,19],"trial_type":"survey-likert","trial_index":67,"time_elapsed":9018753,"internal_node_id":"0.0-8.0"},{"rt":5998.594999954104,"stimulus":"<p style=\"font-size: 120%\">Gracias por responder el cuestionario. Ahora te invitamos a seguir con el juego, que es muy breve.<br><br></p>","response":0,"trial_type":"html-button-response","trial_index":68,"time_elapsed":9024758,"internal_node_id":"0.0-9.0"},{"rt":9555.594999983907,"stimulus":"<h1>Juego</h1><p style=\"font-size: 120%;\">A continuación se te presentarán 16 pequeñas historias.<br>Por favor lee el texto presentado en cada una de ellas y luego haz click en el objeto de tu elección.<br>Si estás listo(a),<span style=\"color:red;\"> haz click en \"comenzar\"</span>.</p>","response":0,"trial_type":"html-button-response","trial_index":69,"time_elapsed":9034315,"internal_node_id":"0.0-10.0"},{"rt":28088.755000034347,"grid":[[1,1,1]],"target":[0,2],"response":[0,1],"correct":false,"juego":7,"trial_type":"serial-reaction-time-mouse","trial_index":70,"time_elapsed":9062410,"internal_node_id":"0.0-11.0-0.0"},{"rt":14353.715000033379,"grid":[[1,1,1],[1,1,1],[1,1,1],[1,1,1],[1,1,1],[1,1,1],[1,1,1]],"target":[0,0],"response":[1,1],"correct":false,"juego":13,"trial_type":"serial-reaction-time-mouse","trial_index":71,"time_elapsed":9076767,"internal_node_id":"0.0-11.0-1.0"},{"rt":13859.349999984726,"grid":[[1,1,1]],"target":[0,2],"response":[0,2],"correct":true,"juego":1,"trial_type":"serial-reaction-time-mouse","trial_index":72,"time_elapsed":9090627,"internal_node_id":"0.0-11.0-2.0"},{"rt":9304.284999961033,"grid":[[1,1,1]],"target":[0,2],"response":[0,0],"correct":false,"juego":2,"trial_type":"serial-reaction-time-mouse","trial_index":73,"time_elapsed":9099932,"internal_node_id":"0.0-11.0-3.0"},{"rt":32069.955000013113,"grid":[[1,1,1],[1,1,1],[1,1,1]],"target":[0,0],"response":[0,2],"correct":false,"juego":10,"trial_type":"serial-reaction-time-mouse","trial_index":74,"time_elapsed":9132003,"internal_node_id":"0.0-11.0-4.0"},{"rt":45965.9899999965,"grid":[[1,1],[1,1],[1,1],[1,1],[1,1],[1,1],[1,1]],"target":[0,0],"response":[1,1],"correct":false,"juego":15,"trial_type":"serial-reaction-time-mouse","trial_index":75,"time_elapsed":9177978,"internal_node_id":"0.0-11.0-5.0"},{"rt":48961.53500000946,"grid":[[1,1],[1,1],[1,1],[1,1],[1,1],[1,1],[1,1]],"target":[0,0],"response":[3,1],"correct":false,"juego":14,"trial_type":"serial-reaction-time-mouse","trial_index":76,"time_elapsed":9226941,"internal_node_id":"0.0-11.0-6.0"},{"rt":9930.455000022426,"grid":[[1,1,1]],"target":[0,2],"response":[0,1],"correct":false,"juego":8,"trial_type":"serial-reaction-time-mouse","trial_index":77,"time_elapsed":9236872,"internal_node_id":"0.0-11.0-7.0"},{"rt":4170.990000013262,"grid":[[1],[1],[1]],"target":[0,2],"response":[0,0],"correct":false,"juego":4,"trial_type":"serial-reaction-time-mouse","trial_index":78,"time_elapsed":9241044,"internal_node_id":"0.0-11.0-8.0"},{"rt":24567.04499997385,"grid":[[1,1,1]],"target":[0,0],"response":[0,1],"correct":false,"juego":11,"trial_type":"serial-reaction-time-mouse","trial_index":79,"time_elapsed":9265612,"internal_node_id":"0.0-11.0-9.0"},{"rt":12656.194999989122,"grid":[[1,1,1]],"target":[0,0],"response":[0,2],"correct":false,"juego":9,"trial_type":"serial-reaction-time-mouse","trial_index":80,"time_elapsed":9278268,"internal_node_id":"0.0-11.0-10.0"},{"rt":39849.24499998987,"grid":[[1,1,1]],"target":[0,2],"response":[0,0],"correct":false,"juego":3,"trial_type":"serial-reaction-time-mouse","trial_index":81,"time_elapsed":9318118,"internal_node_id":"0.0-11.0-11.0"},{"rt":7817.134999962524,"grid":[[1,1,1],[1,1,1],[1,1,1],[1,1,1],[1,1,1],[1,1,1],[1,1,1]],"target":[0,0],"response":[1,1],"correct":false,"juego":6,"trial_type":"serial-reaction-time-mouse","trial_index":82,"time_elapsed":9325936,"internal_node_id":"0.0-11.0-12.0"},{"rt":26711.085000017658,"grid":[[1,1,1]],"target":[0,0],"response":[0,0],"correct":true,"juego":12,"trial_type":"serial-reaction-time-mouse","trial_index":83,"time_elapsed":9352648,"internal_node_id":"0.0-11.0-13.0"},{"rt":16603.57500001602,"grid":[[1],[1],[1],[1],[1],[1]],"target":[0,0],"response":[2,0],"correct":false,"juego":5,"trial_type":"serial-reaction-time-mouse","trial_index":84,"time_elapsed":9369252,"internal_node_id":"0.0-11.0-14.0"},{"rt":29027.699999976903,"stimulus":"<h1>Último juego</h1><p style=\"font-size: 130%;\">Tienes <span style=\"color:red\">20</span> segundos para recordar los pares de palabras que aparecerán a continuación. <br></p>","response":0,"trial_type":"html-button-response","trial_index":85,"time_elapsed":9398282,"internal_node_id":"0.0-12.0"},{"animation_sequence":[{"stimulus":"imagen_juego_interferencia.jpg","time":530.9750000014901},{"stimulus":"imagen_juego_interferencia.jpg","time":1015.0949999801815},{"stimulus":"imagen_juego_interferencia.jpg","time":1514.8649999741465},{"stimulus":"imagen_juego_interferencia.jpg","time":2014.5800000168383},{"stimulus":"imagen_juego_interferencia.jpg","time":2514.9450000021607},{"stimulus":"imagen_juego_interferencia.jpg","time":3014.9150000065565},{"stimulus":"imagen_juego_interferencia.jpg","time":3514.774999987334},{"stimulus":"imagen_juego_interferencia.jpg","time":4014.550000021234},{"stimulus":"imagen_juego_interferencia.jpg","time":4514.825000019744},{"stimulus":"imagen_juego_interferencia.jpg","time":5014.535000022501},{"stimulus":"imagen_juego_interferencia.jpg","time":5514.985000014305},{"stimulus":"imagen_juego_interferencia.jpg","time":6014.090000011027},{"stimulus":"imagen_juego_interferencia.jpg","time":6514.974999997765},{"stimulus":"imagen_juego_interferencia.jpg","time":7008.655000012368},{"stimulus":"imagen_juego_interferencia.jpg","time":7514.959999999031},{"stimulus":"imagen_juego_interferencia.jpg","time":8025.955000018701},{"stimulus":"imagen_juego_interferencia.jpg","time":8525.245000025257},{"stimulus":"imagen_juego_interferencia.jpg","time":9025.7400000114},{"stimulus":"imagen_juego_interferencia.jpg","time":9508.67499998957},{"stimulus":"imagen_juego_interferencia.jpg","time":10024.71999998577},{"stimulus":"imagen_juego_interferencia.jpg","time":10525.005000002682},{"stimulus":"imagen_juego_interferencia.jpg","time":11024.890000000596},{"stimulus":"imagen_juego_interferencia.jpg","time":11525.07500001043},{"stimulus":"imagen_juego_interferencia.jpg","time":12014.229999970645},{"stimulus":"imagen_juego_interferencia.jpg","time":12515.089999999851},{"stimulus":"imagen_juego_interferencia.jpg","time":13008.510000012815},{"stimulus":"imagen_juego_interferencia.jpg","time":13514.994999974966},{"stimulus":"imagen_juego_interferencia.jpg","time":14014.910000026226},{"stimulus":"imagen_juego_interferencia.jpg","time":14522.304999990389},{"stimulus":"imagen_juego_interferencia.jpg","time":15015.205000001937},{"stimulus":"imagen_juego_interferencia.jpg","time":15508.290000025183},{"stimulus":"imagen_juego_interferencia.jpg","time":16008.730000000447},{"stimulus":"imagen_juego_interferencia.jpg","time":16508.710000023246},{"stimulus":"imagen_juego_interferencia.jpg","time":17008.664999971166},{"stimulus":"imagen_juego_interferencia.jpg","time":17508.2050000187},{"stimulus":"imagen_juego_interferencia.jpg","time":18008.160000026226},{"stimulus":"imagen_juego_interferencia.jpg","time":18524.229999979958},{"stimulus":"imagen_juego_interferencia.jpg","time":19014.919999986887},{"stimulus":"imagen_juego_interferencia.jpg","time":19514.840000016615},{"stimulus":"imagen_juego_interferencia.jpg","time":20015.055000023916}],"response":[],"trial_type":"animation","trial_index":86,"time_elapsed":9418798,"internal_node_id":"0.0-13.0"},{"rt":17019.94999998808,"responses":"{\"pregunta interferencia1\":\"naranja\"}","question_order":"[0]","trial_type":"survey-multi-choice-cuest","trial_index":87,"time_elapsed":9435823,"internal_node_id":"0.0-14.0-0.0"},{"rt":28714.60999996774,"responses":"{\"pregunta interferencia4\":\"contador\"}","question_order":"[0]","trial_type":"survey-multi-choice-cuest","trial_index":88,"time_elapsed":9464541,"internal_node_id":"0.0-14.0-1.0"},{"rt":24081.43500000052,"responses":"{\"pregunta interferencia2\":\"saltamontes\"}","question_order":"[0]","trial_type":"survey-multi-choice-cuest","trial_index":89,"time_elapsed":9488627,"internal_node_id":"0.0-14.0-2.0"},{"rt":15683.06500004977,"responses":"{\"pregunta interferencia3\":\"aluminio\"}","question_order":"[0]","trial_type":"survey-multi-choice-cuest","trial_index":90,"time_elapsed":9504314,"internal_node_id":"0.0-14.0-3.0"},{"success":true,"trial_type":"fullscreen","trial_index":91,"time_elapsed":9505326,"internal_node_id":"0.0-15.0"}]