[{"rt":367306.2149999896,"stimulus":"<h1 style=\"color:red; margin-top: 3%;\">¡Bienvenido(a)!</h1><p style=\"text-align:left; justify-content:space-between; margin-right: 5%; margin-left: 5%; margin-top: 5%\"> Antes de empezar el estudio, necesitamos que nos confirmes que estás de acuerdo con participar. Recuerda que tu participación es 100% voluntaria y que lo único que te pedimos es responder lo mejor que puedas. Recuerda también que el estudio incluye:</p><ol style=\"text-align:left; justify-content:space-between; margin-right: 5%; margin-left: 5%;\"><li> un ejercicio de resolución de preguntas de selección múltiple (30’),</li><li>un cuestionario breve (5’),</li><li>un juego muy breve (3’),</li></ol><p style=\"text-align:left; justify-content:space-between; margin-right: 5%; margin-left: 5%;\">Si quieres participar, haz clic en “Acepto” luego de leer lo siguiente:<br></p><p style=\"text-align:left; justify-content:space-between; margin-right: 5%; margin-left: 5%;\">Acepto participar en el estudio “Estrategias de lectura y resolución de preguntas de selección múltiple”, en los términos aquí señalados:<br></p><p style=\"text-align:left; justify-content:space-between; margin-right: 5%; margin-left: 5%;\"><a href=\"http://ciae.uchile.cl/download.php?file=noticias/Asentimiento.pdf\" target=\"_blank\">Link a la hoja de información del Consentimiento.</a></p><p style=\"text-align:left; justify-content:space-between; margin-right: 5%; margin-left: 5%;\">Declaro que he leído (o se me ha leído) y (he) comprendido, las condiciones de mi participación en este estudio. He tenido la oportunidad de hacer preguntas y éstas han sido respondidas. No tengo dudas al respecto.</p>","response":0,"condicion_MCQ":2,"condicion_INTER":20,"numero_participante":20,"numero_version":2,"dimx":1366,"dimy":768,"color_profundidad":24,"pixel_profundidad":24,"Browser":"Google Chrome","trial_type":"html-button-response","trial_index":0,"time_elapsed":367325,"internal_node_id":"0.0-0.0"},{"success":true,"trial_type":"fullscreen","trial_index":1,"time_elapsed":378314,"internal_node_id":"0.0-1.0"},{"rt":195083.6249999702,"responses":"{\"Nombres\":\"Daniela Loreto \",\"Apellidos\":\"Givovich Rubilar \",\"Edad\":\"18\",\"Sexo\":\"mujer\",\"Curso\":\"1er semestre\",\"Colegio\":\"UNAB\",\"Contacto\":\"danielagivovich@gmail.com\"}","trial_type":"survey-text","trial_index":2,"time_elapsed":573596,"internal_node_id":"0.0-2.0"},{"success":true,"timeout":false,"failed_images":[],"failed_audio":[],"failed_video":[],"trial_type":"preload","trial_index":3,"time_elapsed":576723,"internal_node_id":"0.0-3.0"},{"rt":51516.050000092946,"stimulus":"<h1 style:\"margin-top: 5%;\">Ejercicios de Comprensión de Lectura de la Universidad de Chile</h1><p style=\"font-size: 120%;\">En esta actividad, debes responder 30 preguntas de selección múltiple. Cada pregunta presenta 3 respuestas alternativas, pero sólo una de ellas es correcta. Por lo tanto, debes escoger una sola alternativa para cada pregunta. Además, debes reportar qué tan seguro(a) estás de la respuesta que das, con un:</p><ol style=\"font-size: 120%;text-align:left;margin-left: 40%;\"><li>No estoy seguro(a) para nada</li><li>No estoy muy seguro(a)</li><li>Estoy bastante seguro(a)</li><li>Estoy totalmente seguro(a)</li></ol><p style=\"font-size: 120%;\">Por favor lee bien los enunciados antes de responder. ¡Éxito!</p>","response":0,"trial_type":"html-button-response","trial_index":4,"time_elapsed":628245,"internal_node_id":"0.0-4.0"},{"rt":64580.95999993384,"responses":"{\"pregunta27\":\"b) Nuestra economía vivirá un proceso de ajuste a la nueva realidad. \"}","question_order":"[0]","trial_type":"survey-multi-choice","trial_index":5,"time_elapsed":692831,"internal_node_id":"0.0-5.0-0.0"},{"rt":7617.459999979474,"response":{"pregunta27 likert":2},"question_order":[0],"trial_type":"survey-likert","trial_index":6,"time_elapsed":700453,"internal_node_id":"0.0-5.0-1.0"},{"rt":86610.77000002842,"responses":"{\"pregunta28\":\"c) Se necesita un marco legal para delimitar lo público y lo privado en materia informativa. \"}","question_order":"[0]","trial_type":"survey-multi-choice","trial_index":7,"time_elapsed":787070,"internal_node_id":"0.0-5.0-2.0"},{"rt":3298.509999993257,"response":{"pregunta28 likert":2},"question_order":[0],"trial_type":"survey-likert","trial_index":8,"time_elapsed":790372,"internal_node_id":"0.0-5.0-3.0"},{"rt":84201.5399999218,"responses":"{\"pregunta30\":\"a) para el mexicano, la muerte es como una mujer. \"}","question_order":"[0]","trial_type":"survey-multi-choice","trial_index":9,"time_elapsed":874572,"internal_node_id":"0.0-5.0-4.0"},{"rt":6387.73499999661,"response":{"pregunta30 likert":1},"question_order":[0],"trial_type":"survey-likert","trial_index":10,"time_elapsed":880964,"internal_node_id":"0.0-5.0-5.0"},{"rt":143855.24999990594,"responses":"{\"pregunta19\":\"c) Si no se lee, es imposible valorar la planificación y aceptar principios científicos. \"}","question_order":"[0]","trial_type":"survey-multi-choice","trial_index":11,"time_elapsed":1024824,"internal_node_id":"0.0-5.0-6.0"},{"rt":3094.64999998454,"response":{"pregunta19 likert":1},"question_order":[0],"trial_type":"survey-likert","trial_index":12,"time_elapsed":1027922,"internal_node_id":"0.0-5.0-7.0"},{"rt":249111.74999992363,"responses":"{\"pregunta15\":\"a) religiosos y precavidos. \"}","question_order":"[0]","trial_type":"survey-multi-choice","trial_index":13,"time_elapsed":1277042,"internal_node_id":"0.0-5.0-8.0"},{"rt":7238.979999907315,"response":{"pregunta15 likert":1},"question_order":[0],"trial_type":"survey-likert","trial_index":14,"time_elapsed":1284286,"internal_node_id":"0.0-5.0-9.0"},{"rt":86899.05500004534,"responses":"{\"pregunta3\":\"c) El inicio de la civilización china. \"}","question_order":"[0]","trial_type":"survey-multi-choice","trial_index":15,"time_elapsed":1371183,"internal_node_id":"0.0-5.0-10.0"},{"rt":4001.219999976456,"response":{"pregunta3 likert":1},"question_order":[0],"trial_type":"survey-likert","trial_index":16,"time_elapsed":1375188,"internal_node_id":"0.0-5.0-11.0"},{"rt":56379.044999950565,"responses":"{\"pregunta8\":\"a) Dar a conocer al ganador del premio Cervantes. \"}","question_order":"[0]","trial_type":"survey-multi-choice","trial_index":17,"time_elapsed":1431576,"internal_node_id":"0.0-5.0-12.0"},{"rt":4313.1000000284985,"response":{"pregunta8 likert":1},"question_order":[0],"trial_type":"survey-likert","trial_index":18,"time_elapsed":1435893,"internal_node_id":"0.0-5.0-13.0"},{"rt":87315.98499999382,"responses":"{\"pregunta4\":\"a) En la literatura como en la vida, lo importante son las preguntas. \"}","question_order":"[0]","trial_type":"survey-multi-choice","trial_index":19,"time_elapsed":1523212,"internal_node_id":"0.0-5.0-14.0"},{"rt":5442.960000014864,"response":{"pregunta4 likert":2},"question_order":[0],"trial_type":"survey-likert","trial_index":20,"time_elapsed":1528659,"internal_node_id":"0.0-5.0-15.0"},{"rt":99729.39999995288,"responses":"{\"pregunta10\":\"c) La biónica puede asegurar nuestra existencia mediante la aplicación de técnicas copiadas de la naturaleza. \"}","question_order":"[0]","trial_type":"survey-multi-choice","trial_index":21,"time_elapsed":1628390,"internal_node_id":"0.0-5.0-16.0"},{"rt":3362.4800000106916,"response":{"pregunta10 likert":1},"question_order":[0],"trial_type":"survey-likert","trial_index":22,"time_elapsed":1631759,"internal_node_id":"0.0-5.0-17.0"},{"rt":76244.46000007447,"responses":"{\"pregunta5\":\"a) Los momentos triviales de los viajes, en la escritura se vuelven significativos. \"}","question_order":"[0]","trial_type":"survey-multi-choice","trial_index":23,"time_elapsed":1708010,"internal_node_id":"0.0-5.0-18.0"},{"rt":3673.9899999229237,"response":{"pregunta5 likert":1},"question_order":[0],"trial_type":"survey-likert","trial_index":24,"time_elapsed":1711687,"internal_node_id":"0.0-5.0-19.0"},{"rt":185289.23499991652,"responses":"{\"pregunta24\":\"c) El receptor es habitualmente pasivo frente a la publicidad. \"}","question_order":"[0]","trial_type":"survey-multi-choice","trial_index":25,"time_elapsed":1896974,"internal_node_id":"0.0-5.0-20.0"},{"rt":2267.4150000093505,"response":{"pregunta24 likert":1},"question_order":[0],"trial_type":"survey-likert","trial_index":26,"time_elapsed":1899248,"internal_node_id":"0.0-5.0-21.0"},{"rt":89756.3450000016,"responses":"{\"pregunta6\":\"a) Las voces extranjeras viven una tensión entre la aceptación y el rechazo. \"}","question_order":"[0]","trial_type":"survey-multi-choice","trial_index":27,"time_elapsed":1989016,"internal_node_id":"0.0-5.0-22.0"},{"rt":3204.8049999866635,"response":{"pregunta6 likert":1},"question_order":[0],"trial_type":"survey-likert","trial_index":28,"time_elapsed":1992225,"internal_node_id":"0.0-5.0-23.0"},{"rt":53355.61999992933,"responses":"{\"pregunta2\":\"b) A la relación entre pensamiento y estructura social. \"}","question_order":"[0]","trial_type":"survey-multi-choice","trial_index":29,"time_elapsed":2045581,"internal_node_id":"0.0-5.0-24.0"},{"rt":3029.5949999708682,"response":{"pregunta2 likert":2},"question_order":[0],"trial_type":"survey-likert","trial_index":30,"time_elapsed":2048613,"internal_node_id":"0.0-5.0-25.0"},{"rt":60641.760000027716,"responses":"{\"pregunta16\":\"a) Provocar el deseo de la adquisición vertiginosa. \"}","question_order":"[0]","trial_type":"survey-multi-choice","trial_index":31,"time_elapsed":2109258,"internal_node_id":"0.0-5.0-26.0"},{"rt":6446.300000068732,"response":{"pregunta16 likert":2},"question_order":[0],"trial_type":"survey-likert","trial_index":32,"time_elapsed":2115708,"internal_node_id":"0.0-5.0-27.0"},{"rt":86730.60499993153,"responses":"{\"pregunta25\":\"a) llevan un control grupal de su embarazo. \"}","question_order":"[0]","trial_type":"survey-multi-choice","trial_index":33,"time_elapsed":2202444,"internal_node_id":"0.0-5.0-28.0"},{"rt":5539.144999929704,"response":{"pregunta25 likert":1},"question_order":[0],"trial_type":"survey-likert","trial_index":34,"time_elapsed":2207987,"internal_node_id":"0.0-5.0-29.0"},{"rt":85468.27999991365,"responses":"{\"pregunta13\":\"a) El ser humano se comporta de acuerdo con las circunstancias. \"}","question_order":"[0]","trial_type":"survey-multi-choice","trial_index":35,"time_elapsed":2293459,"internal_node_id":"0.0-5.0-30.0"},{"rt":6472.085000015795,"response":{"pregunta13 likert":1},"question_order":[0],"trial_type":"survey-likert","trial_index":36,"time_elapsed":2299935,"internal_node_id":"0.0-5.0-31.0"},{"rt":90237.16000001878,"responses":"{\"pregunta17\":\"c) Homenajear a quienes murieron. \"}","question_order":"[0]","trial_type":"survey-multi-choice","trial_index":37,"time_elapsed":2390169,"internal_node_id":"0.0-5.0-32.0"},{"rt":6592.029999941587,"response":{"pregunta17 likert":2},"question_order":[0],"trial_type":"survey-likert","trial_index":38,"time_elapsed":2396765,"internal_node_id":"0.0-5.0-33.0"},{"rt":139768.88000010513,"responses":"{\"pregunta1\":\"c) Aportan informaciones con las que se reconstruye el personaje dentro de un relato. \"}","question_order":"[0]","trial_type":"survey-multi-choice","trial_index":39,"time_elapsed":2536544,"internal_node_id":"0.0-5.0-34.0"},{"rt":4459.275000030175,"response":{"pregunta1 likert":1},"question_order":[0],"trial_type":"survey-likert","trial_index":40,"time_elapsed":2541007,"internal_node_id":"0.0-5.0-35.0"},{"rt":59232.72500000894,"responses":"{\"pregunta9\":\"b) pueden rendir exámenes para optar y obtener títulos profesionales igual que los hombres. \"}","question_order":"[0]","trial_type":"survey-multi-choice","trial_index":41,"time_elapsed":2600240,"internal_node_id":"0.0-5.0-36.0"},{"rt":3706.99999993667,"response":{"pregunta9 likert":1},"question_order":[0],"trial_type":"survey-likert","trial_index":42,"time_elapsed":2603951,"internal_node_id":"0.0-5.0-37.0"},{"rt":78364.62999996729,"responses":"{\"pregunta18\":\"b) Al premio merecido después de tantos esfuerzos. \"}","question_order":"[0]","trial_type":"survey-multi-choice","trial_index":43,"time_elapsed":2682324,"internal_node_id":"0.0-5.0-38.0"},{"rt":2621.6300000669435,"response":{"pregunta18 likert":1},"question_order":[0],"trial_type":"survey-likert","trial_index":44,"time_elapsed":2684949,"internal_node_id":"0.0-5.0-39.0"},{"rt":162136.14999991842,"responses":"{\"pregunta14\":\"c) un recuerdo nostálgico. \"}","question_order":"[0]","trial_type":"survey-multi-choice","trial_index":45,"time_elapsed":2847086,"internal_node_id":"0.0-5.0-40.0"},{"rt":3035.0750000216067,"response":{"pregunta14 likert":1},"question_order":[0],"trial_type":"survey-likert","trial_index":46,"time_elapsed":2850125,"internal_node_id":"0.0-5.0-41.0"},{"rt":118001.56000000425,"responses":"{\"pregunta23\":\"a) A la influencia de grupos que rechazaban su música. \"}","question_order":"[0]","trial_type":"survey-multi-choice","trial_index":47,"time_elapsed":2968134,"internal_node_id":"0.0-5.0-42.0"},{"rt":2870.0800000224262,"response":{"pregunta23 likert":1},"question_order":[0],"trial_type":"survey-likert","trial_index":48,"time_elapsed":2971008,"internal_node_id":"0.0-5.0-43.0"},{"rt":88026.28500002902,"responses":"{\"pregunta11\":\"b) Promover la asistencia a un evento específico de decoración a través de una atractiva descripción. \"}","question_order":"[0]","trial_type":"survey-multi-choice","trial_index":49,"time_elapsed":3059038,"internal_node_id":"0.0-5.0-44.0"},{"rt":4194.7800000198185,"response":{"pregunta11 likert":1},"question_order":[0],"trial_type":"survey-likert","trial_index":50,"time_elapsed":3063237,"internal_node_id":"0.0-5.0-45.0"},{"rt":155880.26500004344,"responses":"{\"pregunta7\":\"c) La imprenta y el papel han permitido el desarrollo de la civilización y la conservación de su cultura, y ambos son inventos chinos. \"}","question_order":"[0]","trial_type":"survey-multi-choice","trial_index":51,"time_elapsed":3219121,"internal_node_id":"0.0-5.0-46.0"},{"rt":3431.154999998398,"response":{"pregunta7 likert":1},"question_order":[0],"trial_type":"survey-likert","trial_index":52,"time_elapsed":3222556,"internal_node_id":"0.0-5.0-47.0"},{"rt":148353.1700000167,"responses":"{\"pregunta26\":\"a) el hombre excesivo es inmoral. \"}","question_order":"[0]","trial_type":"survey-multi-choice","trial_index":53,"time_elapsed":3370908,"internal_node_id":"0.0-5.0-48.0"},{"rt":2748.0049999430776,"response":{"pregunta26 likert":1},"question_order":[0],"trial_type":"survey-likert","trial_index":54,"time_elapsed":3373660,"internal_node_id":"0.0-5.0-49.0"},{"rt":109617.33499995898,"responses":"{\"pregunta20\":\"a) el mejor emperador es el que está muerto. \"}","question_order":"[0]","trial_type":"survey-multi-choice","trial_index":55,"time_elapsed":3483284,"internal_node_id":"0.0-5.0-50.0"},{"rt":5159.280000021681,"response":{"pregunta20 likert":1},"question_order":[0],"trial_type":"survey-likert","trial_index":56,"time_elapsed":3488448,"internal_node_id":"0.0-5.0-51.0"},{"rt":84615.20000000019,"responses":"{\"pregunta12\":\"a) es una noción que obedece a una visión pesimista de la vida. \"}","question_order":"[0]","trial_type":"survey-multi-choice","trial_index":57,"time_elapsed":3573071,"internal_node_id":"0.0-5.0-52.0"},{"rt":2967.0599999371916,"response":{"pregunta12 likert":1},"question_order":[0],"trial_type":"survey-likert","trial_index":58,"time_elapsed":3576042,"internal_node_id":"0.0-5.0-53.0"},{"rt":52553.35499998182,"responses":"{\"pregunta22\":\"c) Bomberos debería tener acceso a un seguro médico, al que pueda recurrir en caso de accidente. \"}","question_order":"[0]","trial_type":"survey-multi-choice","trial_index":59,"time_elapsed":3628600,"internal_node_id":"0.0-5.0-54.0"},{"rt":7606.48499999661,"response":{"pregunta22 likert":1},"question_order":[0],"trial_type":"survey-likert","trial_index":60,"time_elapsed":3636212,"internal_node_id":"0.0-5.0-55.0"},{"rt":72006.315000006,"responses":"{\"pregunta21\":\"c) la creación de elementos químicos artificiales ha resultado de la manipulación del uranio. \"}","question_order":"[0]","trial_type":"survey-multi-choice","trial_index":61,"time_elapsed":3708218,"internal_node_id":"0.0-5.0-56.0"},{"rt":3746.40000006184,"response":{"pregunta21 likert":1},"question_order":[0],"trial_type":"survey-likert","trial_index":62,"time_elapsed":3711968,"internal_node_id":"0.0-5.0-57.0"},{"rt":79573.33500008099,"responses":"{\"pregunta29\":\"b) la Muerte vaticina el futuro mediante gestos. \"}","question_order":"[0]","trial_type":"survey-multi-choice","trial_index":63,"time_elapsed":3791552,"internal_node_id":"0.0-5.0-58.0"},{"rt":3435.439999913797,"response":{"pregunta29 likert":0},"question_order":[0],"trial_type":"survey-likert","trial_index":64,"time_elapsed":3794991,"internal_node_id":"0.0-5.0-59.0"},{"rt":4133.199999923818,"stimulus":"<p style=\"font-size: 120%\">Gracias por completar esta etapa del estudio. Ahora te invitamos a responder el cuestionario.<br><br></p>","response":0,"trial_type":"html-button-response","trial_index":65,"time_elapsed":3799136,"internal_node_id":"0.0-6.0"},{"rt":24447.83999992069,"stimulus":"<h1 style=\"margin-top: 5%\">Cuestionario para la Evaluación de Metas Académicas</h1><p style=\"font-size: 120%; margin-left: 3%; margin-top: 5%\">Este es un cuestionario que permite conocer cuáles son los principales motivos por los que los estudiantes se esfuerzan en su trabajo académico. A continuación, se te presentarán una serie de afirmaciones acerca de los motivos que puedes tener para estudiar.<br>Te pedimos que contestes a dichas afirmaciones reflexionando sobre el contenido de cada una de ellas, que, aunque te parezcan semejantes, en realidad, no lo son.<br>NO HAY RESPUESTAS CORRECTAS o INCORRECTAS, sólo queremos que respondas con la mayor precisión y sinceridad posible a las preguntas que se plantean.","response":0,"trial_type":"html-button-response","trial_index":66,"time_elapsed":3823587,"internal_node_id":"0.0-7.0"},{"rt":197003.6100000143,"response":{"Metas cuestionario pregunta1":3,"Metas cuestionario pregunta2":4,"Metas cuestionario pregunta3":4,"Metas cuestionario pregunta4":2,"Metas cuestionario pregunta5":3,"Metas cuestionario pregunta6":4,"Metas cuestionario pregunta7":4,"Metas cuestionario pregunta8":4,"Metas cuestionario pregunta9":3,"Metas cuestionario pregunta10":2,"Metas cuestionario pregunta11":3,"Metas cuestionario pregunta12":3,"Metas cuestionario pregunta13":4,"Metas cuestionario pregunta14":3,"Metas cuestionario pregunta15":4,"Metas cuestionario pregunta16":4,"Metas cuestionario pregunta17":4,"Metas cuestionario pregunta18":4,"Metas cuestionario pregunta19":4,"Metas cuestionario pregunta20":4},"question_order":[0,1,2,3,4,5,6,7,8,9,10,11,12,13,14,15,16,17,18,19],"trial_type":"survey-likert","trial_index":67,"time_elapsed":4020608,"internal_node_id":"0.0-8.0"},{"rt":3569.499999983236,"stimulus":"<p style=\"font-size: 120%\">Gracias por responder el cuestionario. Ahora te invitamos a seguir con el juego, que es muy breve.<br><br></p>","response":0,"trial_type":"html-button-response","trial_index":68,"time_elapsed":4024188,"internal_node_id":"0.0-9.0"},{"rt":9952.820000005886,"stimulus":"<h1>Juego</h1><p style=\"font-size: 120%;\">A continuación se te presentarán 16 pequeñas historias.<br>Por favor lee el texto presentado en cada una de ellas y luego haz click en el objeto de tu elección.<br>Si estás listo(a),<span style=\"color:red;\"> haz click en \"comenzar\"</span>.</p>","response":0,"trial_type":"html-button-response","trial_index":69,"time_elapsed":4034141,"internal_node_id":"0.0-10.0"},{"rt":31470.825000084005,"grid":[[1,1],[1,1],[1,1],[1,1],[1,1],[1,1],[1,1]],"target":[0,0],"response":[5,1],"correct":false,"juego":15,"trial_type":"serial-reaction-time-mouse","trial_index":70,"time_elapsed":4065619,"internal_node_id":"0.0-11.0-0.0"},{"rt":46445.60500001535,"grid":[[1,1,1]],"target":[0,0],"response":[0,1],"correct":false,"juego":12,"trial_type":"serial-reaction-time-mouse","trial_index":71,"time_elapsed":4112072,"internal_node_id":"0.0-11.0-1.0"},{"rt":54640.170000027865,"grid":[[1,1,1]],"target":[0,0],"response":[0,0],"correct":true,"juego":9,"trial_type":"serial-reaction-time-mouse","trial_index":72,"time_elapsed":4166715,"internal_node_id":"0.0-11.0-2.0"},{"rt":15690.159999998286,"grid":[[1,1,1]],"target":[0,2],"response":[0,2],"correct":true,"juego":7,"trial_type":"serial-reaction-time-mouse","trial_index":73,"time_elapsed":4182408,"internal_node_id":"0.0-11.0-3.0"},{"rt":50375.960000092164,"grid":[[1,1,1]],"target":[0,2],"response":[0,2],"correct":true,"juego":3,"trial_type":"serial-reaction-time-mouse","trial_index":74,"time_elapsed":4232780,"internal_node_id":"0.0-11.0-4.0"},{"rt":38799.26500003785,"grid":[[1,1,1]],"target":[0,0],"response":[0,1],"correct":false,"juego":11,"trial_type":"serial-reaction-time-mouse","trial_index":75,"time_elapsed":4271584,"internal_node_id":"0.0-11.0-5.0"},{"rt":26962.91999996174,"grid":[[1,1,1],[1,1,1],[1,1,1]],"target":[0,0],"response":[0,2],"correct":false,"juego":10,"trial_type":"serial-reaction-time-mouse","trial_index":76,"time_elapsed":4298557,"internal_node_id":"0.0-11.0-6.0"},{"rt":21957.88999996148,"grid":[[1,1],[1,1],[1,1],[1,1],[1,1],[1,1],[1,1]],"target":[0,0],"response":[5,1],"correct":false,"juego":14,"trial_type":"serial-reaction-time-mouse","trial_index":77,"time_elapsed":4320520,"internal_node_id":"0.0-11.0-7.0"},{"rt":10071.269999956712,"grid":[[1,1,1],[1,1,1],[1,1,1],[1,1,1],[1,1,1],[1,1,1],[1,1,1]],"target":[0,0],"response":[5,1],"correct":false,"juego":6,"trial_type":"serial-reaction-time-mouse","trial_index":78,"time_elapsed":4330598,"internal_node_id":"0.0-11.0-8.0"},{"rt":42162.28999989107,"grid":[[1,1,1]],"target":[0,2],"response":[0,2],"correct":true,"juego":8,"trial_type":"serial-reaction-time-mouse","trial_index":79,"time_elapsed":4372764,"internal_node_id":"0.0-11.0-9.0"},{"rt":16985.220000031404,"grid":[[1,1,1],[1,1,1],[1,1,1],[1,1,1],[1,1,1],[1,1,1],[1,1,1]],"target":[0,0],"response":[3,1],"correct":false,"juego":13,"trial_type":"serial-reaction-time-mouse","trial_index":80,"time_elapsed":4389755,"internal_node_id":"0.0-11.0-10.0"},{"rt":20576.089999987744,"grid":[[1,1,1]],"target":[0,2],"response":[0,2],"correct":true,"juego":2,"trial_type":"serial-reaction-time-mouse","trial_index":81,"time_elapsed":4410335,"internal_node_id":"0.0-11.0-11.0"},{"rt":9068.440000060946,"grid":[[1,1,1]],"target":[0,2],"response":[0,0],"correct":false,"juego":1,"trial_type":"serial-reaction-time-mouse","trial_index":82,"time_elapsed":4419407,"internal_node_id":"0.0-11.0-12.0"},{"rt":4307.81000002753,"grid":[[1],[1],[1]],"target":[0,2],"response":[0,0],"correct":false,"juego":4,"trial_type":"serial-reaction-time-mouse","trial_index":83,"time_elapsed":4423720,"internal_node_id":"0.0-11.0-13.0"},{"rt":34412.17000002507,"grid":[[1],[1],[1],[1],[1],[1]],"target":[0,0],"response":[2,0],"correct":false,"juego":5,"trial_type":"serial-reaction-time-mouse","trial_index":84,"time_elapsed":4458135,"internal_node_id":"0.0-11.0-14.0"},{"rt":10037.879999959841,"stimulus":"<h1>Último juego</h1><p style=\"font-size: 130%;\">Tienes <span style=\"color:red\">20</span> segundos para recordar los pares de palabras que aparecerán a continuación. <br></p>","response":0,"trial_type":"html-button-response","trial_index":85,"time_elapsed":4468183,"internal_node_id":"0.0-12.0"},{"animation_sequence":[{"stimulus":"imagen_juego_interferencia.jpg","time":586.9699999457225},{"stimulus":"imagen_juego_interferencia.jpg","time":1037.9800000227988},{"stimulus":"imagen_juego_interferencia.jpg","time":1532.4150000233203},{"stimulus":"imagen_juego_interferencia.jpg","time":2037.419999949634},{"stimulus":"imagen_juego_interferencia.jpg","time":2534.2599999858066},{"stimulus":"imagen_juego_interferencia.jpg","time":3037.209999980405},{"stimulus":"imagen_juego_interferencia.jpg","time":3536.3000000361353},{"stimulus":"imagen_juego_interferencia.jpg","time":4032.675000024028},{"stimulus":"imagen_juego_interferencia.jpg","time":4535.85500002373},{"stimulus":"imagen_juego_interferencia.jpg","time":5031.405000016093},{"stimulus":"imagen_juego_interferencia.jpg","time":5530.6750000454485},{"stimulus":"imagen_juego_interferencia.jpg","time":6036.775000044145},{"stimulus":"imagen_juego_interferencia.jpg","time":6538.249999983236},{"stimulus":"imagen_juego_interferencia.jpg","time":7035.550000029616},{"stimulus":"imagen_juego_interferencia.jpg","time":7535.384999937378},{"stimulus":"imagen_juego_interferencia.jpg","time":8032.144999946468},{"stimulus":"imagen_juego_interferencia.jpg","time":8534.69000000041},{"stimulus":"imagen_juego_interferencia.jpg","time":9030.599999940023},{"stimulus":"imagen_juego_interferencia.jpg","time":9530.969999963418},{"stimulus":"imagen_juego_interferencia.jpg","time":10031.205000006594},{"stimulus":"imagen_juego_interferencia.jpg","time":10535.470000002533},{"stimulus":"imagen_juego_interferencia.jpg","time":11036.979999975301},{"stimulus":"imagen_juego_interferencia.jpg","time":11534.69999996014},{"stimulus":"imagen_juego_interferencia.jpg","time":12030.810000025667},{"stimulus":"imagen_juego_interferencia.jpg","time":12536.194999935105},{"stimulus":"imagen_juego_interferencia.jpg","time":13031.070000026375},{"stimulus":"imagen_juego_interferencia.jpg","time":13530.870000016876},{"stimulus":"imagen_juego_interferencia.jpg","time":14037.09500003606},{"stimulus":"imagen_juego_interferencia.jpg","time":14532.684999983758},{"stimulus":"imagen_juego_interferencia.jpg","time":15037.989999982528},{"stimulus":"imagen_juego_interferencia.jpg","time":15533.380000037141},{"stimulus":"imagen_juego_interferencia.jpg","time":16031.034999992698},{"stimulus":"imagen_juego_interferencia.jpg","time":16531.745000043884},{"stimulus":"imagen_juego_interferencia.jpg","time":17037.24500001408},{"stimulus":"imagen_juego_interferencia.jpg","time":17535.479999962263},{"stimulus":"imagen_juego_interferencia.jpg","time":18030.29000002425},{"stimulus":"imagen_juego_interferencia.jpg","time":18535.494999960065},{"stimulus":"imagen_juego_interferencia.jpg","time":19030.945000005886},{"stimulus":"imagen_juego_interferencia.jpg","time":19536.710000014864},{"stimulus":"imagen_juego_interferencia.jpg","time":20037.909999955446}],"response":[],"trial_type":"animation","trial_index":86,"time_elapsed":4488720,"internal_node_id":"0.0-13.0"},{"rt":9285.32499994617,"responses":"{\"pregunta interferencia4\":\"contador\"}","question_order":"[0]","trial_type":"survey-multi-choice-cuest","trial_index":87,"time_elapsed":4498008,"internal_node_id":"0.0-14.0-0.0"},{"rt":10349.355000071228,"responses":"{\"pregunta interferencia3\":\"aluminio\"}","question_order":"[0]","trial_type":"survey-multi-choice-cuest","trial_index":88,"time_elapsed":4508362,"internal_node_id":"0.0-14.0-1.0"},{"rt":6208.250000025146,"responses":"{\"pregunta interferencia1\":\"naranja\"}","question_order":"[0]","trial_type":"survey-multi-choice-cuest","trial_index":89,"time_elapsed":4514575,"internal_node_id":"0.0-14.0-2.0"},{"rt":6801.875000004657,"responses":"{\"pregunta interferencia2\":\"saltamontes\"}","question_order":"[0]","trial_type":"survey-multi-choice-cuest","trial_index":90,"time_elapsed":4521384,"internal_node_id":"0.0-14.0-3.0"},{"success":true,"trial_type":"fullscreen","trial_index":91,"time_elapsed":4522392,"internal_node_id":"0.0-15.0"}]