[{"rt":903044.0800000001,"stimulus":"<h1 style=\"color:red; margin-top: 3%;\">¡Bienvenido(a)!</h1><p style=\"text-align:left; justify-content:space-between; margin-right: 5%; margin-left: 5%; margin-top: 5%\"> Antes de empezar el estudio, necesitamos que nos confirmes que estás de acuerdo con participar. Recuerda que tu participación es 100% voluntaria y que lo único que te pedimos es responder lo mejor que puedas. Recuerda también que el estudio incluye:</p><ol style=\"text-align:left; justify-content:space-between; margin-right: 5%; margin-left: 5%;\"><li> un ejercicio de resolución de preguntas de selección múltiple (30’),</li><li>un cuestionario breve (5’),</li><li>un juego muy breve (3’),</li></ol><p style=\"text-align:left; justify-content:space-between; margin-right: 5%; margin-left: 5%;\">Si quieres participar, haz clic en “Acepto” luego de leer lo siguiente:<br></p><p style=\"text-align:left; justify-content:space-between; margin-right: 5%; margin-left: 5%;\">Acepto participar en el estudio “Estrategias de lectura y resolución de preguntas de selección múltiple”, en los términos aquí señalados:<br></p><p style=\"text-align:left; justify-content:space-between; margin-right: 5%; margin-left: 5%;\"><a href=\"http://ciae.uchile.cl/download.php?file=noticias/Asentimiento.pdf\" target=\"_blank\">Link a la hoja de información del Consentimiento.</a></p><p style=\"text-align:left; justify-content:space-between; margin-right: 5%; margin-left: 5%;\">Declaro que he leído (o se me ha leído) y (he) comprendido, las condiciones de mi participación en este estudio. He tenido la oportunidad de hacer preguntas y éstas han sido respondidas. No tengo dudas al respecto.</p>","response":0,"condicion_MCQ":3,"condicion_INTER":21,"numero_participante":21,"numero_version":2,"dimx":1366,"dimy":768,"color_profundidad":24,"pixel_profundidad":24,"Browser":"Google Chrome","trial_type":"html-button-response","trial_index":0,"time_elapsed":903049,"internal_node_id":"0.0-0.0"},{"success":true,"trial_type":"fullscreen","trial_index":1,"time_elapsed":910010,"internal_node_id":"0.0-1.0"},{"rt":102509.83499999985,"responses":"{\"Nombres\":\"Iván Ignacio\",\"Apellidos\":\"Lavados Vargas\",\"Edad\":\"19\",\"Sexo\":\"hombre\",\"Curso\":\"Primer año\",\"Colegio\":\"UNAB\",\"Contacto\":\"ilavados@gmail.com\"}","trial_type":"survey-text","trial_index":2,"time_elapsed":1012551,"internal_node_id":"0.0-2.0"},{"success":true,"timeout":false,"failed_images":[],"failed_audio":[],"failed_video":[],"trial_type":"preload","trial_index":3,"time_elapsed":1064319,"internal_node_id":"0.0-3.0"},{"rt":90170.12499999953,"stimulus":"<h1 style:\"margin-top: 5%;\">Ejercicios de Comprensión de Lectura de la Universidad de Chile</h1><p style=\"font-size: 120%;\">En esta actividad, debes responder 30 preguntas de selección múltiple. Cada pregunta presenta 3 respuestas alternativas, pero sólo una de ellas es correcta. Por lo tanto, debes escoger una sola alternativa para cada pregunta. Además, debes reportar qué tan seguro(a) estás de la respuesta que das, con un:</p><ol style=\"font-size: 120%;text-align:left;margin-left: 40%;\"><li>No estoy seguro(a) para nada</li><li>No estoy muy seguro(a)</li><li>Estoy bastante seguro(a)</li><li>Estoy totalmente seguro(a)</li></ol><p style=\"font-size: 120%;\">Por favor lee bien los enunciados antes de responder. ¡Éxito!</p>","response":0,"trial_type":"html-button-response","trial_index":4,"time_elapsed":1154502,"internal_node_id":"0.0-4.0"},{"rt":95397.12500000047,"responses":"{\"pregunta17\":\"b) Revivir un periodo histórico. \"}","question_order":"[0]","trial_type":"survey-multi-choice","trial_index":5,"time_elapsed":1249901,"internal_node_id":"0.0-5.0-0.0"},{"rt":2622.019999999786,"response":{"pregunta17 likert":2},"question_order":[0],"trial_type":"survey-likert","trial_index":6,"time_elapsed":1252526,"internal_node_id":"0.0-5.0-1.0"},{"rt":103940.22499999986,"responses":"{\"pregunta14\":\"c) preparar los recuerdos del mañana. \"}","question_order":"[0]","trial_type":"survey-multi-choice","trial_index":7,"time_elapsed":1356467,"internal_node_id":"0.0-5.0-2.0"},{"rt":4036.909999999916,"response":{"pregunta14 likert":2},"question_order":[0],"trial_type":"survey-likert","trial_index":8,"time_elapsed":1360507,"internal_node_id":"0.0-5.0-3.0"},{"rt":263009.94499999983,"responses":"{\"pregunta13\":\"a) El concepto de normalidad es diferente para un psiquiatra que para nosotros. \"}","question_order":"[0]","trial_type":"survey-multi-choice","trial_index":9,"time_elapsed":1623519,"internal_node_id":"0.0-5.0-4.0"},{"rt":2263.5800000000745,"response":{"pregunta13 likert":1},"question_order":[0],"trial_type":"survey-likert","trial_index":10,"time_elapsed":1625785,"internal_node_id":"0.0-5.0-5.0"},{"rt":336254.54000000004,"responses":"{\"pregunta1\":\"a) Aportan informaciones con las que se reconstruye el personaje dentro de un relato. \"}","question_order":"[0]","trial_type":"survey-multi-choice","trial_index":11,"time_elapsed":1962041,"internal_node_id":"0.0-5.0-6.0"},{"rt":2499.2400000002235,"response":{"pregunta1 likert":3},"question_order":[0],"trial_type":"survey-likert","trial_index":12,"time_elapsed":1964542,"internal_node_id":"0.0-5.0-7.0"},{"rt":116459.06000000052,"responses":"{\"pregunta2\":\"b) A la relación entre sociedad y constitución social. \"}","question_order":"[0]","trial_type":"survey-multi-choice","trial_index":13,"time_elapsed":2081003,"internal_node_id":"0.0-5.0-8.0"},{"rt":3275.7349999998696,"response":{"pregunta2 likert":2},"question_order":[0],"trial_type":"survey-likert","trial_index":14,"time_elapsed":2084281,"internal_node_id":"0.0-5.0-9.0"},{"rt":201692.03500000015,"responses":"{\"pregunta16\":\"b) Provocar el deseo de la adquisición vertiginosa. \"}","question_order":"[0]","trial_type":"survey-multi-choice","trial_index":15,"time_elapsed":2285974,"internal_node_id":"0.0-5.0-10.0"},{"rt":2345.429999999702,"response":{"pregunta16 likert":3},"question_order":[0],"trial_type":"survey-likert","trial_index":16,"time_elapsed":2288321,"internal_node_id":"0.0-5.0-11.0"},{"rt":288095.1700000004,"responses":"{\"pregunta23\":\"a) A la inexistencia de un recinto adecuado para el recital. \"}","question_order":"[0]","trial_type":"survey-multi-choice","trial_index":17,"time_elapsed":2576418,"internal_node_id":"0.0-5.0-12.0"},{"rt":3531.135000000242,"response":{"pregunta23 likert":3},"question_order":[0],"trial_type":"survey-likert","trial_index":18,"time_elapsed":2579951,"internal_node_id":"0.0-5.0-13.0"},{"rt":9844.17500000028,"responses":"{\"pregunta11\":\"b) Presentar positivamente las diversas tendencias del diseño de interiores a través de un comentario. \"}","question_order":"[0]","trial_type":"survey-multi-choice","trial_index":19,"time_elapsed":2589796,"internal_node_id":"0.0-5.0-14.0"},{"rt":2121.380000000354,"response":{"pregunta11 likert":1},"question_order":[0],"trial_type":"survey-likert","trial_index":20,"time_elapsed":2591919,"internal_node_id":"0.0-5.0-15.0"},{"rt":29011.64999999944,"responses":"{\"pregunta12\":\"a) se da como existente, y sólo se discute su relación con el cuerpo. \"}","question_order":"[0]","trial_type":"survey-multi-choice","trial_index":21,"time_elapsed":2620933,"internal_node_id":"0.0-5.0-16.0"},{"rt":4142.254999999888,"response":{"pregunta12 likert":2},"question_order":[0],"trial_type":"survey-likert","trial_index":22,"time_elapsed":2625077,"internal_node_id":"0.0-5.0-17.0"},{"rt":408915.2399999993,"responses":"{\"pregunta27\":\"c) Nuestra economía vivirá un proceso de ajuste a la nueva realidad. \"}","question_order":"[0]","trial_type":"survey-multi-choice","trial_index":23,"time_elapsed":3033994,"internal_node_id":"0.0-5.0-18.0"},{"rt":6442.095000000205,"response":{"pregunta27 likert":1},"question_order":[0],"trial_type":"survey-likert","trial_index":24,"time_elapsed":3040437,"internal_node_id":"0.0-5.0-19.0"},{"rt":211832.84000000032,"responses":"{\"pregunta10\":\"c) La biónica es una disciplina que aprovecha las condiciones del entorno. \"}","question_order":"[0]","trial_type":"survey-multi-choice","trial_index":25,"time_elapsed":3252273,"internal_node_id":"0.0-5.0-20.0"},{"rt":14332.834999999963,"response":{"pregunta10 likert":2},"question_order":[0],"trial_type":"survey-likert","trial_index":26,"time_elapsed":3266607,"internal_node_id":"0.0-5.0-21.0"},{"rt":121403.47999999998,"responses":"{\"pregunta5\":\"a) En los viajes es esencial el momento mismo de la escritura. \"}","question_order":"[0]","trial_type":"survey-multi-choice","trial_index":27,"time_elapsed":3388012,"internal_node_id":"0.0-5.0-22.0"},{"rt":11569.884999999776,"response":{"pregunta5 likert":2},"question_order":[0],"trial_type":"survey-likert","trial_index":28,"time_elapsed":3399584,"internal_node_id":"0.0-5.0-23.0"},{"rt":1369251.5350000001,"responses":"{\"pregunta4\":\"a) Las personas importantes comparten el gusto por la literatura. \"}","question_order":"[0]","trial_type":"survey-multi-choice","trial_index":29,"time_elapsed":5428260,"internal_node_id":"0.0-5.0-24.0"},{"rt":4132.429999998771,"response":{"pregunta4 likert":1},"question_order":[0],"trial_type":"survey-likert","trial_index":30,"time_elapsed":5432395,"internal_node_id":"0.0-5.0-25.0"},{"rt":128562.3499999987,"responses":"{\"pregunta3\":\"b) El inicio de la dinastía Chang. \"}","question_order":"[0]","trial_type":"survey-multi-choice","trial_index":31,"time_elapsed":5560959,"internal_node_id":"0.0-5.0-26.0"},{"rt":3030.3349999990314,"response":{"pregunta3 likert":3},"question_order":[0],"trial_type":"survey-likert","trial_index":32,"time_elapsed":5563991,"internal_node_id":"0.0-5.0-27.0"},{"rt":57527.41000000015,"responses":"{\"pregunta18\":\"b) A la inutilidad de tanto esfuerzo si el objetivo es el reposo. \"}","question_order":"[0]","trial_type":"survey-multi-choice","trial_index":33,"time_elapsed":5621520,"internal_node_id":"0.0-5.0-28.0"},{"rt":2092.570000000298,"response":{"pregunta18 likert":2},"question_order":[0],"trial_type":"survey-likert","trial_index":34,"time_elapsed":5623615,"internal_node_id":"0.0-5.0-29.0"},{"rt":183106.68999999948,"responses":"{\"pregunta15\":\"c) ritualistas y obsesivos. \"}","question_order":"[0]","trial_type":"survey-multi-choice","trial_index":35,"time_elapsed":5806724,"internal_node_id":"0.0-5.0-30.0"},{"rt":3834.25,"response":{"pregunta15 likert":3},"question_order":[0],"trial_type":"survey-likert","trial_index":36,"time_elapsed":5810560,"internal_node_id":"0.0-5.0-31.0"},{"rt":208364.2600000007,"responses":"{\"pregunta20\":\"c) sólo las leyes bastan para gobernarse. \"}","question_order":"[0]","trial_type":"survey-multi-choice","trial_index":37,"time_elapsed":6018926,"internal_node_id":"0.0-5.0-32.0"},{"rt":1712.320000000298,"response":{"pregunta20 likert":3},"question_order":[0],"trial_type":"survey-likert","trial_index":38,"time_elapsed":6020640,"internal_node_id":"0.0-5.0-33.0"},{"rt":2839.9049999993294,"responses":"{\"pregunta6\":\"a) Las personas escandalosas constantemente critican a la Academia. \"}","question_order":"[0]","trial_type":"survey-multi-choice","trial_index":39,"time_elapsed":6023482,"internal_node_id":"0.0-5.0-34.0"},{"rt":1983.3699999991804,"response":{"pregunta6 likert":1},"question_order":[0],"trial_type":"survey-likert","trial_index":40,"time_elapsed":6025468,"internal_node_id":"0.0-5.0-35.0"},{"rt":111828.96499999985,"responses":"{\"pregunta26\":\"a) el sujeto sufre con su modo de vida. \"}","question_order":"[0]","trial_type":"survey-multi-choice","trial_index":41,"time_elapsed":6137298,"internal_node_id":"0.0-5.0-36.0"},{"rt":1791.2999999998137,"response":{"pregunta26 likert":2},"question_order":[0],"trial_type":"survey-likert","trial_index":42,"time_elapsed":6139091,"internal_node_id":"0.0-5.0-37.0"},{"rt":191284.49999999907,"responses":"{\"pregunta19\":\"b) Las personas que leen son más flexibles en sus ideas y autónomas en su accionar. \"}","question_order":"[0]","trial_type":"survey-multi-choice","trial_index":43,"time_elapsed":6330377,"internal_node_id":"0.0-5.0-38.0"},{"rt":2823.2750000003725,"response":{"pregunta19 likert":3},"question_order":[0],"trial_type":"survey-likert","trial_index":44,"time_elapsed":6333202,"internal_node_id":"0.0-5.0-39.0"},{"rt":101204.63499999978,"responses":"{\"pregunta24\":\"c) La publicidad es dañina para sus receptores. \"}","question_order":"[0]","trial_type":"survey-multi-choice","trial_index":45,"time_elapsed":6434408,"internal_node_id":"0.0-5.0-40.0"},{"rt":2236.5900000007823,"response":{"pregunta24 likert":2},"question_order":[0],"trial_type":"survey-likert","trial_index":46,"time_elapsed":6436646,"internal_node_id":"0.0-5.0-41.0"},{"rt":5189.420000000857,"responses":"{\"pregunta7\":\"b) Si desaparecieran el papel y la imprenta, se produciría un gran retraso en nuestra civilización. \"}","question_order":"[0]","trial_type":"survey-multi-choice","trial_index":47,"time_elapsed":6441837,"internal_node_id":"0.0-5.0-42.0"},{"rt":2159.795000000857,"response":{"pregunta7 likert":2},"question_order":[0],"trial_type":"survey-likert","trial_index":48,"time_elapsed":6443999,"internal_node_id":"0.0-5.0-43.0"},{"rt":34987.40500000026,"responses":"{\"pregunta30\":\"c) para el mexicano, la muerte es cotidiana. \"}","question_order":"[0]","trial_type":"survey-multi-choice","trial_index":49,"time_elapsed":6478988,"internal_node_id":"0.0-5.0-44.0"},{"rt":3850.18499999959,"response":{"pregunta30 likert":3},"question_order":[0],"trial_type":"survey-likert","trial_index":50,"time_elapsed":6482841,"internal_node_id":"0.0-5.0-45.0"},{"rt":9301.504999999888,"responses":"{\"pregunta9\":\"a) deben ser capaces de mantenerse económicamente de la misma forma que los hombres. \"}","question_order":"[0]","trial_type":"survey-multi-choice","trial_index":51,"time_elapsed":6492144,"internal_node_id":"0.0-5.0-46.0"},{"rt":2782.4399999994785,"response":{"pregunta9 likert":2},"question_order":[0],"trial_type":"survey-likert","trial_index":52,"time_elapsed":6494928,"internal_node_id":"0.0-5.0-47.0"},{"rt":79119.48500000034,"responses":"{\"pregunta21\":\"a) la creación de elementos químicos artificiales ha resultado de la manipulación del uranio. \"}","question_order":"[0]","trial_type":"survey-multi-choice","trial_index":53,"time_elapsed":6574050,"internal_node_id":"0.0-5.0-48.0"},{"rt":3321.410000000149,"response":{"pregunta21 likert":3},"question_order":[0],"trial_type":"survey-likert","trial_index":54,"time_elapsed":6577373,"internal_node_id":"0.0-5.0-49.0"},{"rt":146523.61000000034,"responses":"{\"pregunta28\":\"c) El derecho a informar y el derecho a la privacidad son inconciliables. \"}","question_order":"[0]","trial_type":"survey-multi-choice","trial_index":55,"time_elapsed":6723897,"internal_node_id":"0.0-5.0-50.0"},{"rt":2200.9749999996275,"response":{"pregunta28 likert":2},"question_order":[0],"trial_type":"survey-likert","trial_index":56,"time_elapsed":6726100,"internal_node_id":"0.0-5.0-51.0"},{"rt":58340.45999999903,"responses":"{\"pregunta25\":\"b) llevan un control grupal de su embarazo. \"}","question_order":"[0]","trial_type":"survey-multi-choice","trial_index":57,"time_elapsed":6784443,"internal_node_id":"0.0-5.0-52.0"},{"rt":4430.674999999814,"response":{"pregunta25 likert":0},"question_order":[0],"trial_type":"survey-likert","trial_index":58,"time_elapsed":6788875,"internal_node_id":"0.0-5.0-53.0"},{"rt":25214.75500000082,"responses":"{\"pregunta29\":\"b) el jardinero estará muerto al día siguiente. \"}","question_order":"[0]","trial_type":"survey-multi-choice","trial_index":59,"time_elapsed":6814092,"internal_node_id":"0.0-5.0-54.0"},{"rt":3914.289999999106,"response":{"pregunta29 likert":2},"question_order":[0],"trial_type":"survey-likert","trial_index":60,"time_elapsed":6818007,"internal_node_id":"0.0-5.0-55.0"},{"rt":57588.36500000022,"responses":"{\"pregunta22\":\"a) Bomberos debería tener acceso a un seguro médico, al que pueda recurrir en caso de accidente. \"}","question_order":"[0]","trial_type":"survey-multi-choice","trial_index":61,"time_elapsed":6875597,"internal_node_id":"0.0-5.0-56.0"},{"rt":5351.30999999959,"response":{"pregunta22 likert":3},"question_order":[0],"trial_type":"survey-likert","trial_index":62,"time_elapsed":6880950,"internal_node_id":"0.0-5.0-57.0"},{"rt":5068.519999999553,"responses":"{\"pregunta8\":\"c) Caracterizar al Quijote como un pelmazo. \"}","question_order":"[0]","trial_type":"survey-multi-choice","trial_index":63,"time_elapsed":6886020,"internal_node_id":"0.0-5.0-58.0"},{"rt":2252.0149999996647,"response":{"pregunta8 likert":2},"question_order":[0],"trial_type":"survey-likert","trial_index":64,"time_elapsed":6888274,"internal_node_id":"0.0-5.0-59.0"},{"rt":2633.375,"stimulus":"<p style=\"font-size: 120%\">Gracias por completar esta etapa del estudio. Ahora te invitamos a responder el cuestionario.<br><br></p>","response":0,"trial_type":"html-button-response","trial_index":65,"time_elapsed":6890912,"internal_node_id":"0.0-6.0"},{"rt":70389.99500000011,"stimulus":"<h1 style=\"margin-top: 5%\">Cuestionario para la Evaluación de Metas Académicas</h1><p style=\"font-size: 120%; margin-left: 3%; margin-top: 5%\">Este es un cuestionario que permite conocer cuáles son los principales motivos por los que los estudiantes se esfuerzan en su trabajo académico. A continuación, se te presentarán una serie de afirmaciones acerca de los motivos que puedes tener para estudiar.<br>Te pedimos que contestes a dichas afirmaciones reflexionando sobre el contenido de cada una de ellas, que, aunque te parezcan semejantes, en realidad, no lo son.<br>NO HAY RESPUESTAS CORRECTAS o INCORRECTAS, sólo queremos que respondas con la mayor precisión y sinceridad posible a las preguntas que se plantean.","response":0,"trial_type":"html-button-response","trial_index":66,"time_elapsed":6961303,"internal_node_id":"0.0-7.0"},{"rt":121599.88499999978,"response":{"Metas cuestionario pregunta1":2,"Metas cuestionario pregunta2":3,"Metas cuestionario pregunta3":4,"Metas cuestionario pregunta4":3,"Metas cuestionario pregunta5":4,"Metas cuestionario pregunta6":3,"Metas cuestionario pregunta7":3,"Metas cuestionario pregunta8":3,"Metas cuestionario pregunta9":0,"Metas cuestionario pregunta10":0,"Metas cuestionario pregunta11":0,"Metas cuestionario pregunta12":4,"Metas cuestionario pregunta13":3,"Metas cuestionario pregunta14":2,"Metas cuestionario pregunta15":4,"Metas cuestionario pregunta16":4,"Metas cuestionario pregunta17":4,"Metas cuestionario pregunta18":3,"Metas cuestionario pregunta19":4,"Metas cuestionario pregunta20":4},"question_order":[0,1,2,3,4,5,6,7,8,9,10,11,12,13,14,15,16,17,18,19],"trial_type":"survey-likert","trial_index":67,"time_elapsed":7082910,"internal_node_id":"0.0-8.0"},{"rt":2974.7299999995157,"stimulus":"<p style=\"font-size: 120%\">Gracias por responder el cuestionario. Ahora te invitamos a seguir con el juego, que es muy breve.<br><br></p>","response":0,"trial_type":"html-button-response","trial_index":68,"time_elapsed":7085889,"internal_node_id":"0.0-9.0"},{"rt":9439.59499999974,"stimulus":"<h1>Juego</h1><p style=\"font-size: 120%;\">A continuación se te presentarán 16 pequeñas historias.<br>Por favor lee el texto presentado en cada una de ellas y luego haz click en el objeto de tu elección.<br>Si estás listo(a),<span style=\"color:red;\"> haz click en \"comenzar\"</span>.</p>","response":0,"trial_type":"html-button-response","trial_index":69,"time_elapsed":7095329,"internal_node_id":"0.0-10.0"},{"rt":4625.3499999996275,"grid":[[1,1,1]],"target":[0,2],"response":[0,1],"correct":false,"juego":1,"trial_type":"serial-reaction-time-mouse","trial_index":70,"time_elapsed":7099957,"internal_node_id":"0.0-11.0-0.0"},{"rt":24061.395000000484,"grid":[[1],[1],[1],[1],[1],[1]],"target":[0,0],"response":[0,0],"correct":true,"juego":5,"trial_type":"serial-reaction-time-mouse","trial_index":71,"time_elapsed":7124021,"internal_node_id":"0.0-11.0-1.0"},{"rt":16849.539999999106,"grid":[[1,1,1]],"target":[0,2],"response":[0,1],"correct":false,"juego":7,"trial_type":"serial-reaction-time-mouse","trial_index":72,"time_elapsed":7140876,"internal_node_id":"0.0-11.0-2.0"},{"rt":9813.149999999441,"grid":[[1,1,1],[1,1,1],[1,1,1],[1,1,1],[1,1,1],[1,1,1],[1,1,1]],"target":[0,0],"response":[5,1],"correct":false,"juego":13,"trial_type":"serial-reaction-time-mouse","trial_index":73,"time_elapsed":7150694,"internal_node_id":"0.0-11.0-3.0"},{"rt":10299.375,"grid":[[1,1],[1,1],[1,1],[1,1],[1,1],[1,1],[1,1]],"target":[0,0],"response":[3,1],"correct":false,"juego":14,"trial_type":"serial-reaction-time-mouse","trial_index":74,"time_elapsed":7160997,"internal_node_id":"0.0-11.0-4.0"},{"rt":19020.759999999776,"grid":[[1,1],[1,1],[1,1],[1,1],[1,1],[1,1],[1,1]],"target":[0,0],"response":[3,1],"correct":false,"juego":15,"trial_type":"serial-reaction-time-mouse","trial_index":75,"time_elapsed":7180022,"internal_node_id":"0.0-11.0-5.0"},{"rt":7766.1699999999255,"grid":[[1,1,1]],"target":[0,2],"response":[0,0],"correct":false,"juego":2,"trial_type":"serial-reaction-time-mouse","trial_index":76,"time_elapsed":7187794,"internal_node_id":"0.0-11.0-6.0"},{"rt":7702.56500000041,"grid":[[1,1,1],[1,1,1],[1,1,1],[1,1,1],[1,1,1],[1,1,1],[1,1,1]],"target":[0,0],"response":[1,1],"correct":false,"juego":6,"trial_type":"serial-reaction-time-mouse","trial_index":77,"time_elapsed":7195505,"internal_node_id":"0.0-11.0-7.0"},{"rt":5825.610000000335,"grid":[[1],[1],[1]],"target":[0,2],"response":[1,0],"correct":false,"juego":4,"trial_type":"serial-reaction-time-mouse","trial_index":78,"time_elapsed":7201335,"internal_node_id":"0.0-11.0-8.0"},{"rt":6509.355000000447,"grid":[[1,1,1]],"target":[0,2],"response":[0,1],"correct":false,"juego":8,"trial_type":"serial-reaction-time-mouse","trial_index":79,"time_elapsed":7207846,"internal_node_id":"0.0-11.0-9.0"},{"rt":10273.664999999106,"grid":[[1,1,1]],"target":[0,0],"response":[0,1],"correct":false,"juego":11,"trial_type":"serial-reaction-time-mouse","trial_index":80,"time_elapsed":7218123,"internal_node_id":"0.0-11.0-10.0"},{"rt":10518.020000000484,"grid":[[1,1,1]],"target":[0,2],"response":[0,2],"correct":true,"juego":3,"trial_type":"serial-reaction-time-mouse","trial_index":81,"time_elapsed":7228645,"internal_node_id":"0.0-11.0-11.0"},{"rt":7636.264999999665,"grid":[[1,1,1],[1,1,1],[1,1,1]],"target":[0,0],"response":[1,2],"correct":false,"juego":10,"trial_type":"serial-reaction-time-mouse","trial_index":82,"time_elapsed":7236286,"internal_node_id":"0.0-11.0-12.0"},{"rt":25521.43499999959,"grid":[[1,1,1]],"target":[0,0],"response":[0,1],"correct":false,"juego":12,"trial_type":"serial-reaction-time-mouse","trial_index":83,"time_elapsed":7261811,"internal_node_id":"0.0-11.0-13.0"},{"rt":1561.0499999998137,"grid":[[1,1,1]],"target":[0,0],"response":[0,0],"correct":true,"juego":9,"trial_type":"serial-reaction-time-mouse","trial_index":84,"time_elapsed":7263377,"internal_node_id":"0.0-11.0-14.0"},{"rt":5680.574999999255,"stimulus":"<h1>Último juego</h1><p style=\"font-size: 130%;\">Tienes <span style=\"color:red\">20</span> segundos para recordar los pares de palabras que aparecerán a continuación. <br></p>","response":0,"trial_type":"html-button-response","trial_index":85,"time_elapsed":7269067,"internal_node_id":"0.0-12.0"},{"animation_sequence":[{"stimulus":"imagen_juego_interferencia.jpg","time":540.3650000002235},{"stimulus":"imagen_juego_interferencia.jpg","time":1014.910000000149},{"stimulus":"imagen_juego_interferencia.jpg","time":1506.9799999995157},{"stimulus":"imagen_juego_interferencia.jpg","time":2002.2299999995157},{"stimulus":"imagen_juego_interferencia.jpg","time":2501.469999998808},{"stimulus":"imagen_juego_interferencia.jpg","time":3002.3799999998882},{"stimulus":"imagen_juego_interferencia.jpg","time":3501.8799999998882},{"stimulus":"imagen_juego_interferencia.jpg","time":4002.329999999143},{"stimulus":"imagen_juego_interferencia.jpg","time":4503.495000000112},{"stimulus":"imagen_juego_interferencia.jpg","time":5002.714999999851},{"stimulus":"imagen_juego_interferencia.jpg","time":5501.219999998808},{"stimulus":"imagen_juego_interferencia.jpg","time":6001.769999999553},{"stimulus":"imagen_juego_interferencia.jpg","time":6502.5},{"stimulus":"imagen_juego_interferencia.jpg","time":7001.55999999959},{"stimulus":"imagen_juego_interferencia.jpg","time":7501.3499999996275},{"stimulus":"imagen_juego_interferencia.jpg","time":8002.9399999994785},{"stimulus":"imagen_juego_interferencia.jpg","time":8512.984999999404},{"stimulus":"imagen_juego_interferencia.jpg","time":9006.314999999478},{"stimulus":"imagen_juego_interferencia.jpg","time":9505.665000000037},{"stimulus":"imagen_juego_interferencia.jpg","time":10001.705000000075},{"stimulus":"imagen_juego_interferencia.jpg","time":10501.724999998696},{"stimulus":"imagen_juego_interferencia.jpg","time":11003.324999999255},{"stimulus":"imagen_juego_interferencia.jpg","time":11503.849999998696},{"stimulus":"imagen_juego_interferencia.jpg","time":12011.61999999918},{"stimulus":"imagen_juego_interferencia.jpg","time":12501.864999999292},{"stimulus":"imagen_juego_interferencia.jpg","time":13001.115000000224},{"stimulus":"imagen_juego_interferencia.jpg","time":13502.304999999702},{"stimulus":"imagen_juego_interferencia.jpg","time":14002.099999999627},{"stimulus":"imagen_juego_interferencia.jpg","time":14502.5},{"stimulus":"imagen_juego_interferencia.jpg","time":15000.949999999255},{"stimulus":"imagen_juego_interferencia.jpg","time":15501.410000000149},{"stimulus":"imagen_juego_interferencia.jpg","time":16001.274999999441},{"stimulus":"imagen_juego_interferencia.jpg","time":16501.31499999948},{"stimulus":"imagen_juego_interferencia.jpg","time":17002.31499999948},{"stimulus":"imagen_juego_interferencia.jpg","time":17501.579999999143},{"stimulus":"imagen_juego_interferencia.jpg","time":18001.669999999925},{"stimulus":"imagen_juego_interferencia.jpg","time":18501.354999999516},{"stimulus":"imagen_juego_interferencia.jpg","time":19002.039999999106},{"stimulus":"imagen_juego_interferencia.jpg","time":19502.230000000447},{"stimulus":"imagen_juego_interferencia.jpg","time":20001.734999999404}],"response":[],"trial_type":"animation","trial_index":86,"time_elapsed":7289569,"internal_node_id":"0.0-13.0"},{"rt":6112.9900000002235,"responses":"{\"pregunta interferencia3\":\"aluminio\"}","question_order":"[0]","trial_type":"survey-multi-choice-cuest","trial_index":87,"time_elapsed":7295684,"internal_node_id":"0.0-14.0-0.0"},{"rt":9963.450000000186,"responses":"{\"pregunta interferencia4\":\"contador\"}","question_order":"[0]","trial_type":"survey-multi-choice-cuest","trial_index":88,"time_elapsed":7305649,"internal_node_id":"0.0-14.0-1.0"},{"rt":4182.584999999031,"responses":"{\"pregunta interferencia2\":\"saltamontes\"}","question_order":"[0]","trial_type":"survey-multi-choice-cuest","trial_index":89,"time_elapsed":7309833,"internal_node_id":"0.0-14.0-2.0"},{"rt":5088.094999999739,"responses":"{\"pregunta interferencia1\":\"naranja\"}","question_order":"[0]","trial_type":"survey-multi-choice-cuest","trial_index":90,"time_elapsed":7314923,"internal_node_id":"0.0-14.0-3.0"},{"success":true,"trial_type":"fullscreen","trial_index":91,"time_elapsed":7315929,"internal_node_id":"0.0-15.0"}]