[{"rt":22768.690000000104,"stimulus":"<h1 style=\"color:red; margin-top: 3%;\">¡Bienvenido(a)!</h1><p style=\"text-align:left; justify-content:space-between; margin-right: 5%; margin-left: 5%; margin-top: 5%\"> Antes de empezar el estudio, necesitamos que nos confirmes que estás de acuerdo con participar. Recuerda que tu participación es 100% voluntaria y que lo único que te pedimos es responder lo mejor que puedas. Recuerda también que el estudio incluye:</p><ol style=\"text-align:left; justify-content:space-between; margin-right: 5%; margin-left: 5%;\"><li> un ejercicio de resolución de preguntas de selección múltiple (30’),</li><li>un cuestionario breve (5’),</li><li>un juego muy breve (3’),</li></ol><p style=\"text-align:left; justify-content:space-between; margin-right: 5%; margin-left: 5%;\">Si quieres participar, haz clic en “Acepto” luego de leer lo siguiente:<br></p><p style=\"text-align:left; justify-content:space-between; margin-right: 5%; margin-left: 5%;\">Acepto participar en el estudio “Estrategias de lectura y resolución de preguntas de selección múltiple”, en los términos aquí señalados:<br></p><p style=\"text-align:left; justify-content:space-between; margin-right: 5%; margin-left: 5%;\"><a href=\"http://ciae.uchile.cl/download.php?file=noticias/Asentimiento.pdf\" target=\"_blank\">Link a la hoja de información del Consentimiento.</a></p><p style=\"text-align:left; justify-content:space-between; margin-right: 5%; margin-left: 5%;\">Declaro que he leído (o se me ha leído) y (he) comprendido, las condiciones de mi participación en este estudio. He tenido la oportunidad de hacer preguntas y éstas han sido respondidas. No tengo dudas al respecto.</p>","response":0,"condicion_MCQ":3,"condicion_INTER":3,"numero_participante":3,"numero_version":1,"dimx":1280,"dimy":720,"color_profundidad":24,"pixel_profundidad":24,"Browser":"Google Chrome","trial_type":"html-button-response","trial_index":0,"time_elapsed":22771,"internal_node_id":"0.0-0.0"},{"success":true,"trial_type":"fullscreen","trial_index":1,"time_elapsed":32167,"internal_node_id":"0.0-1.0"},{"rt":76708.58999999997,"responses":"{\"Nombres\":\"Lucas\",\"Apellidos\":\"Martino Carrasco\",\"Edad\":\"18\",\"Sexo\":\"hombre\",\"Curso\":\"primer año\",\"Colegio\":\"Universidad Andrés Bello\",\"Contacto\":\"l.martinocarrasco@gmail.com\"}","trial_type":"survey-text","trial_index":2,"time_elapsed":108880,"internal_node_id":"0.0-2.0"},{"success":true,"timeout":false,"failed_images":[],"failed_audio":[],"failed_video":[],"trial_type":"preload","trial_index":3,"time_elapsed":109605,"internal_node_id":"0.0-3.0"},{"rt":15233.500000000058,"stimulus":"<h1 style:\"margin-top: 5%;\">Ejercicios de Comprensión de Lectura de la Universidad de Chile</h1><p style=\"font-size: 120%;\">En esta actividad, debes responder 30 preguntas de selección múltiple. Cada pregunta presenta 3 respuestas alternativas, pero sólo una de ellas es correcta. Por lo tanto, debes escoger una sola alternativa para cada pregunta. Además, debes reportar qué tan seguro(a) estás de la respuesta que das, con un:</p><ol style=\"font-size: 120%;text-align:left;margin-left: 40%;\"><li>No estoy seguro(a) para nada</li><li>No estoy muy seguro(a)</li><li>Estoy bastante seguro(a)</li><li>Estoy totalmente seguro(a)</li></ol><p style=\"font-size: 120%;\">Por favor lee bien los enunciados antes de responder. ¡Éxito!</p>","response":0,"trial_type":"html-button-response","trial_index":4,"time_elapsed":124839,"internal_node_id":"0.0-4.0"},{"rt":62895,"responses":"{\"pregunta13\":\"b) El ser humano se comporta de acuerdo con las circunstancias. \"}","question_order":"[0]","trial_type":"survey-multi-choice","trial_index":5,"time_elapsed":187727,"internal_node_id":"0.0-5.0-0.0"},{"rt":5196.499999999796,"response":{"pregunta13 likert":2},"question_order":[0],"trial_type":"survey-likert","trial_index":6,"time_elapsed":192927,"internal_node_id":"0.0-5.0-1.0"},{"rt":63220.27500000014,"responses":"{\"pregunta28\":\"a) Se necesita un marco legal para delimitar lo público y lo privado en materia informativa. \"}","question_order":"[0]","trial_type":"survey-multi-choice","trial_index":7,"time_elapsed":256145,"internal_node_id":"0.0-5.0-2.0"},{"rt":1908.690000000206,"response":{"pregunta28 likert":3},"question_order":[0],"trial_type":"survey-likert","trial_index":8,"time_elapsed":258057,"internal_node_id":"0.0-5.0-3.0"},{"rt":82589.37000000017,"responses":"{\"pregunta9\":\"c) pueden rendir exámenes para optar y obtener títulos profesionales igual que los hombres. \"}","question_order":"[0]","trial_type":"survey-multi-choice","trial_index":9,"time_elapsed":340643,"internal_node_id":"0.0-5.0-4.0"},{"rt":2756.5500000000466,"response":{"pregunta9 likert":2},"question_order":[0],"trial_type":"survey-likert","trial_index":10,"time_elapsed":343403,"internal_node_id":"0.0-5.0-5.0"},{"rt":88740.87499999994,"responses":"{\"pregunta6\":\"b) Las voces extranjeras viven una tensión entre la aceptación y el rechazo. \"}","question_order":"[0]","trial_type":"survey-multi-choice","trial_index":11,"time_elapsed":432139,"internal_node_id":"0.0-5.0-6.0"},{"rt":1837.649999999965,"response":{"pregunta6 likert":1},"question_order":[0],"trial_type":"survey-likert","trial_index":12,"time_elapsed":433979,"internal_node_id":"0.0-5.0-7.0"},{"rt":106188.7099999999,"responses":"{\"pregunta12\":\"a) se da como existente, y sólo se discute su relación con el cuerpo. \"}","question_order":"[0]","trial_type":"survey-multi-choice","trial_index":13,"time_elapsed":540164,"internal_node_id":"0.0-5.0-8.0"},{"rt":2308.649999999907,"response":{"pregunta12 likert":2},"question_order":[0],"trial_type":"survey-likert","trial_index":14,"time_elapsed":542476,"internal_node_id":"0.0-5.0-9.0"},{"rt":87412.7899999998,"responses":"{\"pregunta10\":\"c) La biónica es una disciplina que aprovecha las condiciones del entorno. \"}","question_order":"[0]","trial_type":"survey-multi-choice","trial_index":15,"time_elapsed":629887,"internal_node_id":"0.0-5.0-10.0"},{"rt":2548.339999999851,"response":{"pregunta10 likert":3},"question_order":[0],"trial_type":"survey-likert","trial_index":16,"time_elapsed":632438,"internal_node_id":"0.0-5.0-11.0"},{"rt":44132.70000000007,"responses":"{\"pregunta30\":\"c) para el mexicano, la muerte es cotidiana. \"}","question_order":"[0]","trial_type":"survey-multi-choice","trial_index":17,"time_elapsed":676574,"internal_node_id":"0.0-5.0-12.0"},{"rt":1957.125,"response":{"pregunta30 likert":3},"question_order":[0],"trial_type":"survey-likert","trial_index":18,"time_elapsed":678535,"internal_node_id":"0.0-5.0-13.0"},{"rt":72868.07000000007,"responses":"{\"pregunta18\":\"c) Al premio merecido después de tantos esfuerzos. \"}","question_order":"[0]","trial_type":"survey-multi-choice","trial_index":19,"time_elapsed":751398,"internal_node_id":"0.0-5.0-14.0"},{"rt":2588.850000000093,"response":{"pregunta18 likert":3},"question_order":[0],"trial_type":"survey-likert","trial_index":20,"time_elapsed":753990,"internal_node_id":"0.0-5.0-15.0"},{"rt":86836.44000000006,"responses":"{\"pregunta2\":\"b) A la relación entre sociedad y constitución social. \"}","question_order":"[0]","trial_type":"survey-multi-choice","trial_index":21,"time_elapsed":840824,"internal_node_id":"0.0-5.0-16.0"},{"rt":1572.9599999999627,"response":{"pregunta2 likert":1},"question_order":[0],"trial_type":"survey-likert","trial_index":22,"time_elapsed":842400,"internal_node_id":"0.0-5.0-17.0"},{"rt":15900.729999999865,"responses":"{\"pregunta16\":\"b) Provocar el deseo de la adquisición vertiginosa. \"}","question_order":"[0]","trial_type":"survey-multi-choice","trial_index":23,"time_elapsed":858304,"internal_node_id":"0.0-5.0-18.0"},{"rt":2540.2949999996927,"response":{"pregunta16 likert":3},"question_order":[0],"trial_type":"survey-likert","trial_index":24,"time_elapsed":860848,"internal_node_id":"0.0-5.0-19.0"},{"rt":19773.049999999814,"responses":"{\"pregunta23\":\"b) A la influencia de grupos que rechazaban su música. \"}","question_order":"[0]","trial_type":"survey-multi-choice","trial_index":25,"time_elapsed":880624,"internal_node_id":"0.0-5.0-20.0"},{"rt":1780.365000000107,"response":{"pregunta23 likert":3},"question_order":[0],"trial_type":"survey-likert","trial_index":26,"time_elapsed":882408,"internal_node_id":"0.0-5.0-21.0"},{"rt":51189.17499999993,"responses":"{\"pregunta20\":\"b) el mejor emperador es el que está muerto. \"}","question_order":"[0]","trial_type":"survey-multi-choice","trial_index":27,"time_elapsed":933594,"internal_node_id":"0.0-5.0-22.0"},{"rt":1228.8250000001863,"response":{"pregunta20 likert":2},"question_order":[0],"trial_type":"survey-likert","trial_index":28,"time_elapsed":934827,"internal_node_id":"0.0-5.0-23.0"},{"rt":65244.36000000022,"responses":"{\"pregunta7\":\"a) La imprenta y el papel han permitido el desarrollo de la civilización y la conservación de su cultura, y ambos son inventos chinos. \"}","question_order":"[0]","trial_type":"survey-multi-choice","trial_index":29,"time_elapsed":1000070,"internal_node_id":"0.0-5.0-24.0"},{"rt":1645.660000000149,"response":{"pregunta7 likert":2},"question_order":[0],"trial_type":"survey-likert","trial_index":30,"time_elapsed":1001719,"internal_node_id":"0.0-5.0-25.0"},{"rt":26123.915000000154,"responses":"{\"pregunta27\":\"c) Nuestra economía vivirá un proceso de ajuste a la nueva realidad. \"}","question_order":"[0]","trial_type":"survey-multi-choice","trial_index":31,"time_elapsed":1027846,"internal_node_id":"0.0-5.0-26.0"},{"rt":1948.9549999998417,"response":{"pregunta27 likert":3},"question_order":[0],"trial_type":"survey-likert","trial_index":32,"time_elapsed":1029798,"internal_node_id":"0.0-5.0-27.0"},{"rt":48372.369999999995,"responses":"{\"pregunta1\":\"a) Aportan informaciones con las que se reconstruye el personaje dentro de un relato. \"}","question_order":"[0]","trial_type":"survey-multi-choice","trial_index":33,"time_elapsed":1078168,"internal_node_id":"0.0-5.0-28.0"},{"rt":2356.864999999758,"response":{"pregunta1 likert":2},"question_order":[0],"trial_type":"survey-likert","trial_index":34,"time_elapsed":1080528,"internal_node_id":"0.0-5.0-29.0"},{"rt":42924.570000000065,"responses":"{\"pregunta11\":\"a) Orientar la opción estética de un grupo de personas en lo que se refiere a la decoración de interiores. \"}","question_order":"[0]","trial_type":"survey-multi-choice","trial_index":35,"time_elapsed":1123456,"internal_node_id":"0.0-5.0-30.0"},{"rt":1876.6949999998324,"response":{"pregunta11 likert":1},"question_order":[0],"trial_type":"survey-likert","trial_index":36,"time_elapsed":1125336,"internal_node_id":"0.0-5.0-31.0"},{"rt":38956.705000000075,"responses":"{\"pregunta8\":\"a) Comparar a Cervantes con Quevedo. \"}","question_order":"[0]","trial_type":"survey-multi-choice","trial_index":37,"time_elapsed":1164291,"internal_node_id":"0.0-5.0-32.0"},{"rt":1692.8249999997206,"response":{"pregunta8 likert":3},"question_order":[0],"trial_type":"survey-likert","trial_index":38,"time_elapsed":1165987,"internal_node_id":"0.0-5.0-33.0"},{"rt":98124.4750000001,"responses":"{\"pregunta26\":\"a) el sujeto sufre con su modo de vida. \"}","question_order":"[0]","trial_type":"survey-multi-choice","trial_index":39,"time_elapsed":1264111,"internal_node_id":"0.0-5.0-34.0"},{"rt":1876.755000000354,"response":{"pregunta26 likert":2},"question_order":[0],"trial_type":"survey-likert","trial_index":40,"time_elapsed":1265991,"internal_node_id":"0.0-5.0-35.0"},{"rt":49436.52000000025,"responses":"{\"pregunta5\":\"a) En los viajes es esencial el momento mismo de la escritura. \"}","question_order":"[0]","trial_type":"survey-multi-choice","trial_index":41,"time_elapsed":1315425,"internal_node_id":"0.0-5.0-36.0"},{"rt":2989.8249999999534,"response":{"pregunta5 likert":2},"question_order":[0],"trial_type":"survey-likert","trial_index":42,"time_elapsed":1318417,"internal_node_id":"0.0-5.0-37.0"},{"rt":42268.2350000001,"responses":"{\"pregunta3\":\"b) El inicio de la dinastía Chang. \"}","question_order":"[0]","trial_type":"survey-multi-choice","trial_index":43,"time_elapsed":1360689,"internal_node_id":"0.0-5.0-38.0"},{"rt":2293.3400000003166,"response":{"pregunta3 likert":2},"question_order":[0],"trial_type":"survey-likert","trial_index":44,"time_elapsed":1362985,"internal_node_id":"0.0-5.0-39.0"},{"rt":15509.270000000019,"responses":"{\"pregunta22\":\"b) Por el riesgo que corren diariamente, los bomberos deberían tener mejores condiciones de seguridad. \"}","question_order":"[0]","trial_type":"survey-multi-choice","trial_index":45,"time_elapsed":1378494,"internal_node_id":"0.0-5.0-40.0"},{"rt":1676.3199999993667,"response":{"pregunta22 likert":3},"question_order":[0],"trial_type":"survey-likert","trial_index":46,"time_elapsed":1380173,"internal_node_id":"0.0-5.0-41.0"},{"rt":41060.77000000002,"responses":"{\"pregunta21\":\"c) el uranio es el elemento natural con el mayor número de protones en el núcleo. \"}","question_order":"[0]","trial_type":"survey-multi-choice","trial_index":47,"time_elapsed":1421237,"internal_node_id":"0.0-5.0-42.0"},{"rt":2013.4450000000652,"response":{"pregunta21 likert":2},"question_order":[0],"trial_type":"survey-likert","trial_index":48,"time_elapsed":1423253,"internal_node_id":"0.0-5.0-43.0"},{"rt":34844.71999999997,"responses":"{\"pregunta29\":\"c) la Muerte vaticina el futuro mediante gestos. \"}","question_order":"[0]","trial_type":"survey-multi-choice","trial_index":49,"time_elapsed":1458097,"internal_node_id":"0.0-5.0-44.0"},{"rt":1653.8500000000931,"response":{"pregunta29 likert":3},"question_order":[0],"trial_type":"survey-likert","trial_index":50,"time_elapsed":1459753,"internal_node_id":"0.0-5.0-45.0"},{"rt":42444.85499999975,"responses":"{\"pregunta17\":\"c) Atraer a los turistas. \"}","question_order":"[0]","trial_type":"survey-multi-choice","trial_index":51,"time_elapsed":1502200,"internal_node_id":"0.0-5.0-46.0"},{"rt":2469.0799999998417,"response":{"pregunta17 likert":3},"question_order":[0],"trial_type":"survey-likert","trial_index":52,"time_elapsed":1504673,"internal_node_id":"0.0-5.0-47.0"},{"rt":52212.52499999991,"responses":"{\"pregunta4\":\"a) Las personas importantes comparten el gusto por la literatura. \"}","question_order":"[0]","trial_type":"survey-multi-choice","trial_index":53,"time_elapsed":1556884,"internal_node_id":"0.0-5.0-48.0"},{"rt":1725.25,"response":{"pregunta4 likert":3},"question_order":[0],"trial_type":"survey-likert","trial_index":54,"time_elapsed":1558612,"internal_node_id":"0.0-5.0-49.0"},{"rt":101804.63500000001,"responses":"{\"pregunta24\":\"a) El receptor es habitualmente pasivo frente a la publicidad. \"}","question_order":"[0]","trial_type":"survey-multi-choice","trial_index":55,"time_elapsed":1660415,"internal_node_id":"0.0-5.0-50.0"},{"rt":1796.8049999999348,"response":{"pregunta24 likert":2},"question_order":[0],"trial_type":"survey-likert","trial_index":56,"time_elapsed":1662215,"internal_node_id":"0.0-5.0-51.0"},{"rt":64796.600000000326,"responses":"{\"pregunta15\":\"c) ritualistas y obsesivos. \"}","question_order":"[0]","trial_type":"survey-multi-choice","trial_index":57,"time_elapsed":1727012,"internal_node_id":"0.0-5.0-52.0"},{"rt":1196.9799999999814,"response":{"pregunta15 likert":3},"question_order":[0],"trial_type":"survey-likert","trial_index":58,"time_elapsed":1728212,"internal_node_id":"0.0-5.0-53.0"},{"rt":49948.54500000016,"responses":"{\"pregunta19\":\"c) El hábito de la lectura y el progreso mantienen una relación inversamente proporcional. \"}","question_order":"[0]","trial_type":"survey-multi-choice","trial_index":59,"time_elapsed":1778164,"internal_node_id":"0.0-5.0-54.0"},{"rt":2652.7650000001304,"response":{"pregunta19 likert":2},"question_order":[0],"trial_type":"survey-likert","trial_index":60,"time_elapsed":1780820,"internal_node_id":"0.0-5.0-55.0"},{"rt":63556.480000000214,"responses":"{\"pregunta14\":\"b) la persistencia de la melancolía y la desesperanza. \"}","question_order":"[0]","trial_type":"survey-multi-choice","trial_index":61,"time_elapsed":1844375,"internal_node_id":"0.0-5.0-56.0"},{"rt":1525.25,"response":{"pregunta14 likert":2},"question_order":[0],"trial_type":"survey-likert","trial_index":62,"time_elapsed":1845903,"internal_node_id":"0.0-5.0-57.0"},{"rt":70796.69499999983,"responses":"{\"pregunta25\":\"c) tienen dificultades durante el parto. \"}","question_order":"[0]","trial_type":"survey-multi-choice","trial_index":63,"time_elapsed":1916700,"internal_node_id":"0.0-5.0-58.0"},{"rt":2036.844999999972,"response":{"pregunta25 likert":2},"question_order":[0],"trial_type":"survey-likert","trial_index":64,"time_elapsed":1918740,"internal_node_id":"0.0-5.0-59.0"},{"rt":2234.9500000001863,"stimulus":"<p style=\"font-size: 120%\">Gracias por completar esta etapa del estudio. Ahora te invitamos a responder el cuestionario.<br><br></p>","response":0,"trial_type":"html-button-response","trial_index":65,"time_elapsed":1920980,"internal_node_id":"0.0-6.0"},{"rt":11248.035000000149,"stimulus":"<h1 style=\"margin-top: 5%\">Cuestionario para la Evaluación de Metas Académicas</h1><p style=\"font-size: 120%; margin-left: 3%; margin-top: 5%\">Este es un cuestionario que permite conocer cuáles son los principales motivos por los que los estudiantes se esfuerzan en su trabajo académico. A continuación, se te presentarán una serie de afirmaciones acerca de los motivos que puedes tener para estudiar.<br>Te pedimos que contestes a dichas afirmaciones reflexionando sobre el contenido de cada una de ellas, que, aunque te parezcan semejantes, en realidad, no lo son.<br>NO HAY RESPUESTAS CORRECTAS o INCORRECTAS, sólo queremos que respondas con la mayor precisión y sinceridad posible a las preguntas que se plantean.","response":0,"trial_type":"html-button-response","trial_index":66,"time_elapsed":1932229,"internal_node_id":"0.0-7.0"},{"rt":96334.57499999972,"response":{"Metas cuestionario pregunta1":3,"Metas cuestionario pregunta2":2,"Metas cuestionario pregunta3":2,"Metas cuestionario pregunta4":2,"Metas cuestionario pregunta5":2,"Metas cuestionario pregunta6":3,"Metas cuestionario pregunta7":2,"Metas cuestionario pregunta8":2,"Metas cuestionario pregunta9":3,"Metas cuestionario pregunta10":1,"Metas cuestionario pregunta11":0,"Metas cuestionario pregunta12":1,"Metas cuestionario pregunta13":2,"Metas cuestionario pregunta14":1,"Metas cuestionario pregunta15":3,"Metas cuestionario pregunta16":3,"Metas cuestionario pregunta17":2,"Metas cuestionario pregunta18":3,"Metas cuestionario pregunta19":3,"Metas cuestionario pregunta20":3},"question_order":[0,1,2,3,4,5,6,7,8,9,10,11,12,13,14,15,16,17,18,19],"trial_type":"survey-likert","trial_index":67,"time_elapsed":2028560,"internal_node_id":"0.0-8.0"},{"rt":1609.725000000326,"stimulus":"<p style=\"font-size: 120%\">Gracias por responder el cuestionario. Ahora te invitamos a seguir con el juego, que es muy breve.<br><br></p>","response":0,"trial_type":"html-button-response","trial_index":68,"time_elapsed":2030174,"internal_node_id":"0.0-9.0"},{"rt":5935.159999999916,"stimulus":"<h1>Juego</h1><p style=\"font-size: 120%;\">A continuación se te presentarán 16 pequeñas historias.<br>Por favor lee el texto presentado en cada una de ellas y luego haz click en el objeto de tu elección.<br>Si estás listo(a),<span style=\"color:red;\"> haz click en \"comenzar\"</span>.</p>","response":0,"trial_type":"html-button-response","trial_index":69,"time_elapsed":2036110,"internal_node_id":"0.0-10.0"},{"rt":10523.329999999842,"grid":[[1,1,1],[1,1,1],[1,1,1],[1,1,1],[1,1,1],[1,1,1],[1,1,1]],"target":[0,0],"response":[1,1],"correct":false,"juego":13,"trial_type":"serial-reaction-time-mouse","trial_index":70,"time_elapsed":2046635,"internal_node_id":"0.0-11.0-0.0"},{"rt":11761.980000000214,"grid":[[1,1,1],[1,1,1],[1,1,1]],"target":[0,0],"response":[1,0],"correct":false,"juego":10,"trial_type":"serial-reaction-time-mouse","trial_index":71,"time_elapsed":2058399,"internal_node_id":"0.0-11.0-1.0"},{"rt":12927.545000000158,"grid":[[1,1,1]],"target":[0,2],"response":[0,1],"correct":false,"juego":3,"trial_type":"serial-reaction-time-mouse","trial_index":72,"time_elapsed":2071327,"internal_node_id":"0.0-11.0-2.0"},{"rt":2954.179999999702,"grid":[[1,1,1]],"target":[0,2],"response":[0,2],"correct":true,"juego":8,"trial_type":"serial-reaction-time-mouse","trial_index":73,"time_elapsed":2074282,"internal_node_id":"0.0-11.0-3.0"},{"rt":13173.735000000335,"grid":[[1],[1],[1],[1],[1],[1]],"target":[0,0],"response":[4,0],"correct":false,"juego":5,"trial_type":"serial-reaction-time-mouse","trial_index":74,"time_elapsed":2087455,"internal_node_id":"0.0-11.0-4.0"},{"rt":4079.75,"grid":[[1,1,1],[1,1,1],[1,1,1],[1,1,1],[1,1,1],[1,1,1],[1,1,1]],"target":[0,0],"response":[3,1],"correct":false,"juego":6,"trial_type":"serial-reaction-time-mouse","trial_index":75,"time_elapsed":2091535,"internal_node_id":"0.0-11.0-5.0"},{"rt":4548.475000000093,"grid":[[1,1,1]],"target":[0,2],"response":[0,0],"correct":false,"juego":2,"trial_type":"serial-reaction-time-mouse","trial_index":76,"time_elapsed":2096084,"internal_node_id":"0.0-11.0-6.0"},{"rt":6952.825000000186,"grid":[[1,1],[1,1],[1,1],[1,1],[1,1],[1,1],[1,1]],"target":[0,0],"response":[1,1],"correct":false,"juego":15,"trial_type":"serial-reaction-time-mouse","trial_index":77,"time_elapsed":2103038,"internal_node_id":"0.0-11.0-7.0"},{"rt":7544.760000000242,"grid":[[1,1],[1,1],[1,1],[1,1],[1,1],[1,1],[1,1]],"target":[0,0],"response":[1,1],"correct":false,"juego":14,"trial_type":"serial-reaction-time-mouse","trial_index":78,"time_elapsed":2110583,"internal_node_id":"0.0-11.0-8.0"},{"rt":4862.540000000037,"grid":[[1,1,1]],"target":[0,2],"response":[0,1],"correct":false,"juego":1,"trial_type":"serial-reaction-time-mouse","trial_index":79,"time_elapsed":2115446,"internal_node_id":"0.0-11.0-9.0"},{"rt":2471.570000000298,"grid":[[1],[1],[1]],"target":[0,2],"response":[0,0],"correct":false,"juego":4,"trial_type":"serial-reaction-time-mouse","trial_index":80,"time_elapsed":2117919,"internal_node_id":"0.0-11.0-10.0"},{"rt":7087.310000000056,"grid":[[1,1,1]],"target":[0,0],"response":[0,2],"correct":false,"juego":9,"trial_type":"serial-reaction-time-mouse","trial_index":81,"time_elapsed":2125006,"internal_node_id":"0.0-11.0-11.0"},{"rt":8519.485000000335,"grid":[[1,1,1]],"target":[0,0],"response":[0,1],"correct":false,"juego":11,"trial_type":"serial-reaction-time-mouse","trial_index":82,"time_elapsed":2133526,"internal_node_id":"0.0-11.0-12.0"},{"rt":7407.040000000037,"grid":[[1,1,1]],"target":[0,2],"response":[0,2],"correct":true,"juego":7,"trial_type":"serial-reaction-time-mouse","trial_index":83,"time_elapsed":2140934,"internal_node_id":"0.0-11.0-13.0"},{"rt":6487.959999999963,"grid":[[1,1,1]],"target":[0,0],"response":[0,1],"correct":false,"juego":12,"trial_type":"serial-reaction-time-mouse","trial_index":84,"time_elapsed":2147420,"internal_node_id":"0.0-11.0-14.0"},{"rt":4803.625000000466,"stimulus":"<h1>Último juego</h1><p style=\"font-size: 130%;\">Tienes <span style=\"color:red\">20</span> segundos para recordar los pares de palabras que aparecerán a continuación. <br></p>","response":0,"trial_type":"html-button-response","trial_index":85,"time_elapsed":2152225,"internal_node_id":"0.0-12.0"},{"animation_sequence":[{"stimulus":"imagen_juego_interferencia.jpg","time":513.6049999999814},{"stimulus":"imagen_juego_interferencia.jpg","time":1011.089999999851},{"stimulus":"imagen_juego_interferencia.jpg","time":1516.7949999999255},{"stimulus":"imagen_juego_interferencia.jpg","time":2001.2400000002235},{"stimulus":"imagen_juego_interferencia.jpg","time":2516.160000000149},{"stimulus":"imagen_juego_interferencia.jpg","time":3001.4149999995716},{"stimulus":"imagen_juego_interferencia.jpg","time":3513.7999999998137},{"stimulus":"imagen_juego_interferencia.jpg","time":4001.314999999944},{"stimulus":"imagen_juego_interferencia.jpg","time":4501.100000000093},{"stimulus":"imagen_juego_interferencia.jpg","time":5001.560000000056},{"stimulus":"imagen_juego_interferencia.jpg","time":5507.629999999888},{"stimulus":"imagen_juego_interferencia.jpg","time":6001.429999999702},{"stimulus":"imagen_juego_interferencia.jpg","time":6501.049999999814},{"stimulus":"imagen_juego_interferencia.jpg","time":7001.095000000205},{"stimulus":"imagen_juego_interferencia.jpg","time":7502.875},{"stimulus":"imagen_juego_interferencia.jpg","time":8010.319999999832},{"stimulus":"imagen_juego_interferencia.jpg","time":8514.350000000093},{"stimulus":"imagen_juego_interferencia.jpg","time":9005.635000000242},{"stimulus":"imagen_juego_interferencia.jpg","time":9515.56500000041},{"stimulus":"imagen_juego_interferencia.jpg","time":10001.310000000056},{"stimulus":"imagen_juego_interferencia.jpg","time":10501.535000000149},{"stimulus":"imagen_juego_interferencia.jpg","time":11007.330000000075},{"stimulus":"imagen_juego_interferencia.jpg","time":11513.024999999907},{"stimulus":"imagen_juego_interferencia.jpg","time":12002.055000000168},{"stimulus":"imagen_juego_interferencia.jpg","time":12501.429999999702},{"stimulus":"imagen_juego_interferencia.jpg","time":13012.975000000093},{"stimulus":"imagen_juego_interferencia.jpg","time":13501.345000000205},{"stimulus":"imagen_juego_interferencia.jpg","time":14008.864999999758},{"stimulus":"imagen_juego_interferencia.jpg","time":14515.599999999627},{"stimulus":"imagen_juego_interferencia.jpg","time":15000.845000000205},{"stimulus":"imagen_juego_interferencia.jpg","time":15511.860000000335},{"stimulus":"imagen_juego_interferencia.jpg","time":16001.23499999987},{"stimulus":"imagen_juego_interferencia.jpg","time":16507.740000000224},{"stimulus":"imagen_juego_interferencia.jpg","time":17001.544999999925},{"stimulus":"imagen_juego_interferencia.jpg","time":17500.915000000037},{"stimulus":"imagen_juego_interferencia.jpg","time":18010.89000000013},{"stimulus":"imagen_juego_interferencia.jpg","time":18516.044999999925},{"stimulus":"imagen_juego_interferencia.jpg","time":19001.290000000037},{"stimulus":"imagen_juego_interferencia.jpg","time":19515.935000000056},{"stimulus":"imagen_juego_interferencia.jpg","time":20001.260000000242}],"response":[],"trial_type":"animation","trial_index":86,"time_elapsed":2172739,"internal_node_id":"0.0-13.0"},{"rt":5683.714999999851,"responses":"{\"pregunta interferencia1\":\"naranja\"}","question_order":"[0]","trial_type":"survey-multi-choice-cuest","trial_index":87,"time_elapsed":2178425,"internal_node_id":"0.0-14.0-0.0"},{"rt":3908.619999999646,"responses":"{\"pregunta interferencia2\":\"saltamontes\"}","question_order":"[0]","trial_type":"survey-multi-choice-cuest","trial_index":88,"time_elapsed":2182337,"internal_node_id":"0.0-14.0-1.0"},{"rt":5228.674999999814,"responses":"{\"pregunta interferencia4\":\"conserje\"}","question_order":"[0]","trial_type":"survey-multi-choice-cuest","trial_index":89,"time_elapsed":2187569,"internal_node_id":"0.0-14.0-2.0"},{"rt":3412.600000000559,"responses":"{\"pregunta interferencia3\":\"aluminio\"}","question_order":"[0]","trial_type":"survey-multi-choice-cuest","trial_index":90,"time_elapsed":2190985,"internal_node_id":"0.0-14.0-3.0"},{"success":true,"trial_type":"fullscreen","trial_index":91,"time_elapsed":2191989,"internal_node_id":"0.0-15.0"}]