[{"rt":35678.90499997884,"stimulus":"<h1 style=\"color:red; margin-top: 3%;\">¡Bienvenido(a)!</h1><p style=\"text-align:left; justify-content:space-between; margin-right: 5%; margin-left: 5%; margin-top: 5%\"> Antes de empezar el estudio, necesitamos que nos confirmes que estás de acuerdo con participar. Recuerda que tu participación es 100% voluntaria y que lo único que te pedimos es responder lo mejor que puedas. Recuerda también que el estudio incluye:</p><ol style=\"text-align:left; justify-content:space-between; margin-right: 5%; margin-left: 5%;\"><li> un ejercicio de resolución de preguntas de selección múltiple (30’),</li><li>un cuestionario breve (5’),</li><li>un juego muy breve (3’),</li></ol><p style=\"text-align:left; justify-content:space-between; margin-right: 5%; margin-left: 5%;\">Si quieres participar, haz clic en “Acepto” luego de leer lo siguiente:<br></p><p style=\"text-align:left; justify-content:space-between; margin-right: 5%; margin-left: 5%;\">Acepto participar en el estudio “Estrategias de lectura y resolución de preguntas de selección múltiple”, en los términos aquí señalados:<br></p><p style=\"text-align:left; justify-content:space-between; margin-right: 5%; margin-left: 5%;\"><a href=\"http://ciae.uchile.cl/download.php?file=noticias/Asentimiento.pdf\" target=\"_blank\">Link a la hoja de información del Consentimiento.</a></p><p style=\"text-align:left; justify-content:space-between; margin-right: 5%; margin-left: 5%;\">Declaro que he leído (o se me ha leído) y (he) comprendido, las condiciones de mi participación en este estudio. He tenido la oportunidad de hacer preguntas y éstas han sido respondidas. No tengo dudas al respecto.</p>","response":0,"condicion_MCQ":6,"condicion_INTER":6,"numero_participante":30,"numero_version":1,"dimx":1366,"dimy":768,"color_profundidad":24,"pixel_profundidad":24,"Browser":"Google Chrome","trial_type":"html-button-response","trial_index":0,"time_elapsed":35682,"internal_node_id":"0.0-0.0"},{"success":true,"trial_type":"fullscreen","trial_index":1,"time_elapsed":635937,"internal_node_id":"0.0-1.0"},{"rt":110284.08000001218,"responses":"{\"Nombres\":\"Javier\",\"Apellidos\":\"Rodó Muñoz\",\"Edad\":\"19\",\"Sexo\":\"hombre\",\"Curso\":\"1°año de universidad\",\"Colegio\":\"universidad Andres Bello\",\"Contacto\":\"rodojavier28@gmail.com\"}","trial_type":"survey-text","trial_index":2,"time_elapsed":746342,"internal_node_id":"0.0-2.0"},{"success":true,"timeout":false,"failed_images":[],"failed_audio":[],"failed_video":[],"trial_type":"preload","trial_index":3,"time_elapsed":751121,"internal_node_id":"0.0-3.0"},{"rt":19234.36500004027,"stimulus":"<h1 style:\"margin-top: 5%;\">Ejercicios de Comprensión de Lectura de la Universidad de Chile</h1><p style=\"font-size: 120%;\">En esta actividad, debes responder 30 preguntas de selección múltiple. Cada pregunta presenta 3 respuestas alternativas, pero sólo una de ellas es correcta. Por lo tanto, debes escoger una sola alternativa para cada pregunta. Además, debes reportar qué tan seguro(a) estás de la respuesta que das, con un:</p><ol style=\"font-size: 120%;text-align:left;margin-left: 40%;\"><li>No estoy seguro(a) para nada</li><li>No estoy muy seguro(a)</li><li>Estoy bastante seguro(a)</li><li>Estoy totalmente seguro(a)</li></ol><p style=\"font-size: 120%;\">Por favor lee bien los enunciados antes de responder. ¡Éxito!</p>","response":0,"trial_type":"html-button-response","trial_index":4,"time_elapsed":770356,"internal_node_id":"0.0-4.0"},{"rt":84699.19000001391,"responses":"{\"pregunta29\":\"a) la Muerte vaticina el futuro mediante gestos. \"}","question_order":"[0]","trial_type":"survey-multi-choice","trial_index":5,"time_elapsed":855057,"internal_node_id":"0.0-5.0-0.0"},{"rt":7982.039999973495,"response":{"pregunta29 likert":1},"question_order":[0],"trial_type":"survey-likert","trial_index":6,"time_elapsed":863046,"internal_node_id":"0.0-5.0-1.0"},{"rt":72252.95999995433,"responses":"{\"pregunta30\":\"c) para el mexicano, la muerte es cotidiana. \"}","question_order":"[0]","trial_type":"survey-multi-choice","trial_index":7,"time_elapsed":935306,"internal_node_id":"0.0-5.0-2.0"},{"rt":2968.044999986887,"response":{"pregunta30 likert":2},"question_order":[0],"trial_type":"survey-likert","trial_index":8,"time_elapsed":938280,"internal_node_id":"0.0-5.0-3.0"},{"rt":60879.76000003982,"responses":"{\"pregunta19\":\"b) Las personas que leen son más flexibles en sus ideas y autónomas en su accionar. \"}","question_order":"[0]","trial_type":"survey-multi-choice","trial_index":9,"time_elapsed":999164,"internal_node_id":"0.0-5.0-4.0"},{"rt":2537.9650000249967,"response":{"pregunta19 likert":2},"question_order":[0],"trial_type":"survey-likert","trial_index":10,"time_elapsed":1001707,"internal_node_id":"0.0-5.0-5.0"},{"rt":51054.91499998607,"responses":"{\"pregunta17\":\"b) Atraer a los turistas. \"}","question_order":"[0]","trial_type":"survey-multi-choice","trial_index":11,"time_elapsed":1052766,"internal_node_id":"0.0-5.0-6.0"},{"rt":2524.3049999698997,"response":{"pregunta17 likert":2},"question_order":[0],"trial_type":"survey-likert","trial_index":12,"time_elapsed":1055296,"internal_node_id":"0.0-5.0-7.0"},{"rt":106386.69499999378,"responses":"{\"pregunta2\":\"a) A la relación entre sociedad y constitución social. \"}","question_order":"[0]","trial_type":"survey-multi-choice","trial_index":13,"time_elapsed":1161688,"internal_node_id":"0.0-5.0-8.0"},{"rt":5205.5099999997765,"response":{"pregunta2 likert":1},"question_order":[0],"trial_type":"survey-likert","trial_index":14,"time_elapsed":1166897,"internal_node_id":"0.0-5.0-9.0"},{"rt":141762.76000001235,"responses":"{\"pregunta7\":\"a) La imprenta y el papel han permitido el desarrollo de la civilización y la conservación de su cultura, y ambos son inventos chinos. \"}","question_order":"[0]","trial_type":"survey-multi-choice","trial_index":15,"time_elapsed":1308666,"internal_node_id":"0.0-5.0-10.0"},{"rt":3259.5449999789707,"response":{"pregunta7 likert":2},"question_order":[0],"trial_type":"survey-likert","trial_index":16,"time_elapsed":1311931,"internal_node_id":"0.0-5.0-11.0"},{"rt":92883.60000000102,"responses":"{\"pregunta28\":\"a) Se necesita un marco legal para delimitar lo público y lo privado en materia informativa. \"}","question_order":"[0]","trial_type":"survey-multi-choice","trial_index":17,"time_elapsed":1404818,"internal_node_id":"0.0-5.0-12.0"},{"rt":2516.8500000145286,"response":{"pregunta28 likert":1},"question_order":[0],"trial_type":"survey-likert","trial_index":18,"time_elapsed":1407340,"internal_node_id":"0.0-5.0-13.0"},{"rt":46580.2000000258,"responses":"{\"pregunta9\":\"a) pueden ejercer profesiones científicas de la misma forma en que lo hacen los hombres. \"}","question_order":"[0]","trial_type":"survey-multi-choice","trial_index":19,"time_elapsed":1453924,"internal_node_id":"0.0-5.0-14.0"},{"rt":2517.14999997057,"response":{"pregunta9 likert":2},"question_order":[0],"trial_type":"survey-likert","trial_index":20,"time_elapsed":1456447,"internal_node_id":"0.0-5.0-15.0"},{"rt":78990.93999998877,"responses":"{\"pregunta16\":\"c) Deleitar a sus receptores por medio de la belleza y el confort. \"}","question_order":"[0]","trial_type":"survey-multi-choice","trial_index":21,"time_elapsed":1535443,"internal_node_id":"0.0-5.0-16.0"},{"rt":3760.054999962449,"response":{"pregunta16 likert":2},"question_order":[0],"trial_type":"survey-likert","trial_index":22,"time_elapsed":1539209,"internal_node_id":"0.0-5.0-17.0"},{"rt":54159.34999997262,"responses":"{\"pregunta1\":\"a) Aportan informaciones con las que se reconstruye el personaje dentro de un relato. \"}","question_order":"[0]","trial_type":"survey-multi-choice","trial_index":23,"time_elapsed":1593374,"internal_node_id":"0.0-5.0-18.0"},{"rt":2725.1149999792688,"response":{"pregunta1 likert":2},"question_order":[0],"trial_type":"survey-likert","trial_index":24,"time_elapsed":1596104,"internal_node_id":"0.0-5.0-19.0"},{"rt":153605.16999999527,"responses":"{\"pregunta5\":\"a) La escritura plasma los mejores momentos de los viajes. \"}","question_order":"[0]","trial_type":"survey-multi-choice","trial_index":25,"time_elapsed":1749715,"internal_node_id":"0.0-5.0-20.0"},{"rt":2995.6750000128523,"response":{"pregunta5 likert":2},"question_order":[0],"trial_type":"survey-likert","trial_index":26,"time_elapsed":1752716,"internal_node_id":"0.0-5.0-21.0"},{"rt":232451.8050000188,"responses":"{\"pregunta14\":\"b) un recuerdo nostálgico. \"}","question_order":"[0]","trial_type":"survey-multi-choice","trial_index":27,"time_elapsed":1985172,"internal_node_id":"0.0-5.0-22.0"},{"rt":2566.5549999685027,"response":{"pregunta14 likert":1},"question_order":[0],"trial_type":"survey-likert","trial_index":28,"time_elapsed":1987744,"internal_node_id":"0.0-5.0-23.0"},{"rt":343108.0049999873,"responses":"{\"pregunta10\":\"b) La biónica es una disciplina que aprovecha las condiciones del entorno. \"}","question_order":"[0]","trial_type":"survey-multi-choice","trial_index":29,"time_elapsed":2330856,"internal_node_id":"0.0-5.0-24.0"},{"rt":3594.3899999838322,"response":{"pregunta10 likert":1},"question_order":[0],"trial_type":"survey-likert","trial_index":30,"time_elapsed":2334457,"internal_node_id":"0.0-5.0-25.0"},{"rt":66484.98500004644,"responses":"{\"pregunta8\":\"b) Dar a conocer al ganador del premio Cervantes. \"}","question_order":"[0]","trial_type":"survey-multi-choice","trial_index":31,"time_elapsed":2400948,"internal_node_id":"0.0-5.0-26.0"},{"rt":2131.3649999792688,"response":{"pregunta8 likert":2},"question_order":[0],"trial_type":"survey-likert","trial_index":32,"time_elapsed":2403085,"internal_node_id":"0.0-5.0-27.0"},{"rt":99870.02999999095,"responses":"{\"pregunta15\":\"c) ritualistas y obsesivos. \"}","question_order":"[0]","trial_type":"survey-multi-choice","trial_index":33,"time_elapsed":2502960,"internal_node_id":"0.0-5.0-28.0"},{"rt":4668.315000017174,"response":{"pregunta15 likert":2},"question_order":[0],"trial_type":"survey-likert","trial_index":34,"time_elapsed":2507633,"internal_node_id":"0.0-5.0-29.0"},{"rt":75843.82000000915,"responses":"{\"pregunta22\":\"b) Se debe crear un seguro médico especial para esta institución, pues es de alto riesgo. \"}","question_order":"[0]","trial_type":"survey-multi-choice","trial_index":35,"time_elapsed":2583483,"internal_node_id":"0.0-5.0-30.0"},{"rt":2952.7649999945424,"response":{"pregunta22 likert":3},"question_order":[0],"trial_type":"survey-likert","trial_index":36,"time_elapsed":2586440,"internal_node_id":"0.0-5.0-31.0"},{"rt":92323.39999999385,"responses":"{\"pregunta20\":\"b) el mejor emperador es el que está muerto. \"}","question_order":"[0]","trial_type":"survey-multi-choice","trial_index":37,"time_elapsed":2678769,"internal_node_id":"0.0-5.0-32.0"},{"rt":2552.0399999804795,"response":{"pregunta20 likert":2},"question_order":[0],"trial_type":"survey-likert","trial_index":38,"time_elapsed":2681376,"internal_node_id":"0.0-5.0-33.0"},{"rt":40882.175000035204,"responses":"{\"pregunta21\":\"b) la creación de elementos químicos artificiales ha resultado de la manipulación del uranio. \"}","question_order":"[0]","trial_type":"survey-multi-choice","trial_index":39,"time_elapsed":2722265,"internal_node_id":"0.0-5.0-34.0"},{"rt":2403.7549999775365,"response":{"pregunta21 likert":1},"question_order":[0],"trial_type":"survey-likert","trial_index":40,"time_elapsed":2724674,"internal_node_id":"0.0-5.0-35.0"},{"rt":186699.59500001278,"responses":"{\"pregunta6\":\"a) La aparición del Diccionario Académico ha sido polémica. \"}","question_order":"[0]","trial_type":"survey-multi-choice","trial_index":41,"time_elapsed":2911379,"internal_node_id":"0.0-5.0-36.0"},{"rt":2546.42500000773,"response":{"pregunta6 likert":1},"question_order":[0],"trial_type":"survey-likert","trial_index":42,"time_elapsed":2913931,"internal_node_id":"0.0-5.0-37.0"},{"rt":141024.08499998273,"responses":"{\"pregunta18\":\"a) A la inutilidad de tanto esfuerzo si el objetivo es el reposo. \"}","question_order":"[0]","trial_type":"survey-multi-choice","trial_index":43,"time_elapsed":3054961,"internal_node_id":"0.0-5.0-38.0"},{"rt":10252.510000020266,"response":{"pregunta18 likert":1},"question_order":[0],"trial_type":"survey-likert","trial_index":44,"time_elapsed":3065219,"internal_node_id":"0.0-5.0-39.0"},{"rt":117668.01000002306,"responses":"{\"pregunta4\":\"a) En la literatura como en la vida, todo es metáfora. \"}","question_order":"[0]","trial_type":"survey-multi-choice","trial_index":45,"time_elapsed":3182890,"internal_node_id":"0.0-5.0-40.0"},{"rt":2206.385000026785,"response":{"pregunta4 likert":1},"question_order":[0],"trial_type":"survey-likert","trial_index":46,"time_elapsed":3185100,"internal_node_id":"0.0-5.0-41.0"},{"rt":104175.79499998828,"responses":"{\"pregunta26\":\"c) para Aristóteles la virtud estaba en el justo equilibrio. \"}","question_order":"[0]","trial_type":"survey-multi-choice","trial_index":47,"time_elapsed":3289281,"internal_node_id":"0.0-5.0-42.0"},{"rt":2459.659999993164,"response":{"pregunta26 likert":1},"question_order":[0],"trial_type":"survey-likert","trial_index":48,"time_elapsed":3291746,"internal_node_id":"0.0-5.0-43.0"},{"rt":65660.98500002408,"responses":"{\"pregunta13\":\"c) El concepto de normalidad es diferente para un psiquiatra que para nosotros. \"}","question_order":"[0]","trial_type":"survey-multi-choice","trial_index":49,"time_elapsed":3357413,"internal_node_id":"0.0-5.0-44.0"},{"rt":3088.33500003675,"response":{"pregunta13 likert":2},"question_order":[0],"trial_type":"survey-likert","trial_index":50,"time_elapsed":3360506,"internal_node_id":"0.0-5.0-45.0"},{"rt":184562.81499995384,"responses":"{\"pregunta12\":\"b) es una realidad discutida por algunos. \"}","question_order":"[0]","trial_type":"survey-multi-choice","trial_index":51,"time_elapsed":3545074,"internal_node_id":"0.0-5.0-46.0"},{"rt":4155.35000001546,"response":{"pregunta12 likert":1},"question_order":[0],"trial_type":"survey-likert","trial_index":52,"time_elapsed":3549233,"internal_node_id":"0.0-5.0-47.0"},{"rt":129094.43499997724,"responses":"{\"pregunta3\":\"a) El inicio de la civilización china. \"}","question_order":"[0]","trial_type":"survey-multi-choice","trial_index":53,"time_elapsed":3678332,"internal_node_id":"0.0-5.0-48.0"},{"rt":2676.244999980554,"response":{"pregunta3 likert":1},"question_order":[0],"trial_type":"survey-likert","trial_index":54,"time_elapsed":3681013,"internal_node_id":"0.0-5.0-49.0"},{"rt":101810.44000003021,"responses":"{\"pregunta25\":\"c) llevan un control grupal de su embarazo. \"}","question_order":"[0]","trial_type":"survey-multi-choice","trial_index":55,"time_elapsed":3782828,"internal_node_id":"0.0-5.0-50.0"},{"rt":2259.7350000287406,"response":{"pregunta25 likert":1},"question_order":[0],"trial_type":"survey-likert","trial_index":56,"time_elapsed":3785093,"internal_node_id":"0.0-5.0-51.0"},{"rt":58276.21499996167,"responses":"{\"pregunta11\":\"a) Presentar positivamente las diversas tendencias del diseño de interiores a través de un comentario. \"}","question_order":"[0]","trial_type":"survey-multi-choice","trial_index":57,"time_elapsed":3843375,"internal_node_id":"0.0-5.0-52.0"},{"rt":1895.3900000196882,"response":{"pregunta11 likert":1},"question_order":[0],"trial_type":"survey-likert","trial_index":58,"time_elapsed":3845275,"internal_node_id":"0.0-5.0-53.0"},{"rt":177766.33999997284,"responses":"{\"pregunta27\":\"a) Será difícil que las empresas nacionales compitan con las estadounidenses. \"}","question_order":"[0]","trial_type":"survey-multi-choice","trial_index":59,"time_elapsed":4023046,"internal_node_id":"0.0-5.0-54.0"},{"rt":2956.579999998212,"response":{"pregunta27 likert":1},"question_order":[0],"trial_type":"survey-likert","trial_index":60,"time_elapsed":4026006,"internal_node_id":"0.0-5.0-55.0"},{"rt":46780.68999998504,"responses":"{\"pregunta23\":\"b) A la influencia de grupos que rechazaban su música. \"}","question_order":"[0]","trial_type":"survey-multi-choice","trial_index":61,"time_elapsed":4072791,"internal_node_id":"0.0-5.0-56.0"},{"rt":2435.3049999917857,"response":{"pregunta23 likert":3},"question_order":[0],"trial_type":"survey-likert","trial_index":62,"time_elapsed":4075230,"internal_node_id":"0.0-5.0-57.0"},{"rt":110299.87499996787,"responses":"{\"pregunta24\":\"b) La publicidad es dañina para sus receptores. \"}","question_order":"[0]","trial_type":"survey-multi-choice","trial_index":63,"time_elapsed":4185535,"internal_node_id":"0.0-5.0-58.0"},{"rt":2244.8899999726564,"response":{"pregunta24 likert":2},"question_order":[0],"trial_type":"survey-likert","trial_index":64,"time_elapsed":4187785,"internal_node_id":"0.0-5.0-59.0"},{"rt":3677.940000023227,"stimulus":"<p style=\"font-size: 120%\">Gracias por completar esta etapa del estudio. Ahora te invitamos a responder el cuestionario.<br><br></p>","response":0,"trial_type":"html-button-response","trial_index":65,"time_elapsed":4191629,"internal_node_id":"0.0-6.0"},{"rt":17826.784999982454,"stimulus":"<h1 style=\"margin-top: 5%\">Cuestionario para la Evaluación de Metas Académicas</h1><p style=\"font-size: 120%; margin-left: 3%; margin-top: 5%\">Este es un cuestionario que permite conocer cuáles son los principales motivos por los que los estudiantes se esfuerzan en su trabajo académico. A continuación, se te presentarán una serie de afirmaciones acerca de los motivos que puedes tener para estudiar.<br>Te pedimos que contestes a dichas afirmaciones reflexionando sobre el contenido de cada una de ellas, que, aunque te parezcan semejantes, en realidad, no lo son.<br>NO HAY RESPUESTAS CORRECTAS o INCORRECTAS, sólo queremos que respondas con la mayor precisión y sinceridad posible a las preguntas que se plantean.","response":0,"trial_type":"html-button-response","trial_index":66,"time_elapsed":4209457,"internal_node_id":"0.0-7.0"},{"rt":158345.44500004314,"response":{"Metas cuestionario pregunta1":3,"Metas cuestionario pregunta2":2,"Metas cuestionario pregunta3":3,"Metas cuestionario pregunta4":2,"Metas cuestionario pregunta5":2,"Metas cuestionario pregunta6":3,"Metas cuestionario pregunta7":2,"Metas cuestionario pregunta8":3,"Metas cuestionario pregunta9":1,"Metas cuestionario pregunta10":2,"Metas cuestionario pregunta11":1,"Metas cuestionario pregunta12":2,"Metas cuestionario pregunta13":4,"Metas cuestionario pregunta14":2,"Metas cuestionario pregunta15":4,"Metas cuestionario pregunta16":4,"Metas cuestionario pregunta17":4,"Metas cuestionario pregunta18":4,"Metas cuestionario pregunta19":4,"Metas cuestionario pregunta20":4},"question_order":[0,1,2,3,4,5,6,7,8,9,10,11,12,13,14,15,16,17,18,19],"trial_type":"survey-likert","trial_index":67,"time_elapsed":4367808,"internal_node_id":"0.0-8.0"}]