[{"rt":367306.2149999896,"stimulus":"<h1 style=\"color:red; margin-top: 3%;\">¡Bienvenido(a)!</h1><p style=\"text-align:left; justify-content:space-between; margin-right: 5%; margin-left: 5%; margin-top: 5%\"> Antes de empezar el estudio, necesitamos que nos confirmes que estás de acuerdo con participar. Recuerda que tu participación es 100% voluntaria y que lo único que te pedimos es responder lo mejor que puedas. Recuerda también que el estudio incluye:</p><ol style=\"text-align:left; justify-content:space-between; margin-right: 5%; margin-left: 5%;\"><li> un ejercicio de resolución de preguntas de selección múltiple (30’),</li><li>un cuestionario breve (5’),</li><li>un juego muy breve (3’),</li></ol><p style=\"text-align:left; justify-content:space-between; margin-right: 5%; margin-left: 5%;\">Si quieres participar, haz clic en “Acepto” luego de leer lo siguiente:<br></p><p style=\"text-align:left; justify-content:space-between; margin-right: 5%; margin-left: 5%;\">Acepto participar en el estudio “Estrategias de lectura y resolución de preguntas de selección múltiple”, en los términos aquí señalados:<br></p><p style=\"text-align:left; justify-content:space-between; margin-right: 5%; margin-left: 5%;\"><a href=\"http://ciae.uchile.cl/download.php?file=noticias/Asentimiento.pdf\" target=\"_blank\">Link a la hoja de información del Consentimiento.</a></p><p style=\"text-align:left; justify-content:space-between; margin-right: 5%; margin-left: 5%;\">Declaro que he leído (o se me ha leído) y (he) comprendido, las condiciones de mi participación en este estudio. He tenido la oportunidad de hacer preguntas y éstas han sido respondidas. No tengo dudas al respecto.</p>","response":0,"condicion_MCQ":2,"condicion_INTER":20,"numero_participante":20,"numero_version":2,"dimx":1366,"dimy":768,"color_profundidad":24,"pixel_profundidad":24,"Browser":"Google Chrome","trial_type":"html-button-response","trial_index":0,"time_elapsed":367325,"internal_node_id":"0.0-0.0"},{"success":true,"trial_type":"fullscreen","trial_index":1,"time_elapsed":378314,"internal_node_id":"0.0-1.0"},{"rt":195083.6249999702,"responses":"{\"Nombres\":\"Daniela Loreto \",\"Apellidos\":\"Givovich Rubilar \",\"Edad\":\"18\",\"Sexo\":\"mujer\",\"Curso\":\"1er semestre\",\"Colegio\":\"UNAB\",\"Contacto\":\"danielagivovich@gmail.com\"}","trial_type":"survey-text","trial_index":2,"time_elapsed":573596,"internal_node_id":"0.0-2.0"},{"success":true,"timeout":false,"failed_images":[],"failed_audio":[],"failed_video":[],"trial_type":"preload","trial_index":3,"time_elapsed":576723,"internal_node_id":"0.0-3.0"},{"rt":51516.050000092946,"stimulus":"<h1 style:\"margin-top: 5%;\">Ejercicios de Comprensión de Lectura de la Universidad de Chile</h1><p style=\"font-size: 120%;\">En esta actividad, debes responder 30 preguntas de selección múltiple. Cada pregunta presenta 3 respuestas alternativas, pero sólo una de ellas es correcta. Por lo tanto, debes escoger una sola alternativa para cada pregunta. Además, debes reportar qué tan seguro(a) estás de la respuesta que das, con un:</p><ol style=\"font-size: 120%;text-align:left;margin-left: 40%;\"><li>No estoy seguro(a) para nada</li><li>No estoy muy seguro(a)</li><li>Estoy bastante seguro(a)</li><li>Estoy totalmente seguro(a)</li></ol><p style=\"font-size: 120%;\">Por favor lee bien los enunciados antes de responder. ¡Éxito!</p>","response":0,"trial_type":"html-button-response","trial_index":4,"time_elapsed":628245,"internal_node_id":"0.0-4.0"},{"rt":64580.95999993384,"responses":"{\"pregunta27\":\"b) Nuestra economía vivirá un proceso de ajuste a la nueva realidad. \"}","question_order":"[0]","trial_type":"survey-multi-choice","trial_index":5,"time_elapsed":692831,"internal_node_id":"0.0-5.0-0.0"},{"rt":7617.459999979474,"response":{"pregunta27 likert":2},"question_order":[0],"trial_type":"survey-likert","trial_index":6,"time_elapsed":700453,"internal_node_id":"0.0-5.0-1.0"},{"rt":86610.77000002842,"responses":"{\"pregunta28\":\"c) Se necesita un marco legal para delimitar lo público y lo privado en materia informativa. \"}","question_order":"[0]","trial_type":"survey-multi-choice","trial_index":7,"time_elapsed":787070,"internal_node_id":"0.0-5.0-2.0"},{"rt":3298.509999993257,"response":{"pregunta28 likert":2},"question_order":[0],"trial_type":"survey-likert","trial_index":8,"time_elapsed":790372,"internal_node_id":"0.0-5.0-3.0"},{"rt":84201.5399999218,"responses":"{\"pregunta30\":\"a) para el mexicano, la muerte es como una mujer. \"}","question_order":"[0]","trial_type":"survey-multi-choice","trial_index":9,"time_elapsed":874572,"internal_node_id":"0.0-5.0-4.0"},{"rt":6387.73499999661,"response":{"pregunta30 likert":1},"question_order":[0],"trial_type":"survey-likert","trial_index":10,"time_elapsed":880964,"internal_node_id":"0.0-5.0-5.0"},{"rt":143855.24999990594,"responses":"{\"pregunta19\":\"c) Si no se lee, es imposible valorar la planificación y aceptar principios científicos. \"}","question_order":"[0]","trial_type":"survey-multi-choice","trial_index":11,"time_elapsed":1024824,"internal_node_id":"0.0-5.0-6.0"},{"rt":3094.64999998454,"response":{"pregunta19 likert":1},"question_order":[0],"trial_type":"survey-likert","trial_index":12,"time_elapsed":1027922,"internal_node_id":"0.0-5.0-7.0"},{"rt":249111.74999992363,"responses":"{\"pregunta15\":\"a) religiosos y precavidos. \"}","question_order":"[0]","trial_type":"survey-multi-choice","trial_index":13,"time_elapsed":1277042,"internal_node_id":"0.0-5.0-8.0"},{"rt":7238.979999907315,"response":{"pregunta15 likert":1},"question_order":[0],"trial_type":"survey-likert","trial_index":14,"time_elapsed":1284286,"internal_node_id":"0.0-5.0-9.0"},{"rt":86899.05500004534,"responses":"{\"pregunta3\":\"c) El inicio de la civilización china. \"}","question_order":"[0]","trial_type":"survey-multi-choice","trial_index":15,"time_elapsed":1371183,"internal_node_id":"0.0-5.0-10.0"},{"rt":4001.219999976456,"response":{"pregunta3 likert":1},"question_order":[0],"trial_type":"survey-likert","trial_index":16,"time_elapsed":1375188,"internal_node_id":"0.0-5.0-11.0"},{"rt":56379.044999950565,"responses":"{\"pregunta8\":\"a) Dar a conocer al ganador del premio Cervantes. \"}","question_order":"[0]","trial_type":"survey-multi-choice","trial_index":17,"time_elapsed":1431576,"internal_node_id":"0.0-5.0-12.0"},{"rt":4313.1000000284985,"response":{"pregunta8 likert":1},"question_order":[0],"trial_type":"survey-likert","trial_index":18,"time_elapsed":1435893,"internal_node_id":"0.0-5.0-13.0"},{"rt":87315.98499999382,"responses":"{\"pregunta4\":\"a) En la literatura como en la vida, lo importante son las preguntas. \"}","question_order":"[0]","trial_type":"survey-multi-choice","trial_index":19,"time_elapsed":1523212,"internal_node_id":"0.0-5.0-14.0"},{"rt":5442.960000014864,"response":{"pregunta4 likert":2},"question_order":[0],"trial_type":"survey-likert","trial_index":20,"time_elapsed":1528659,"internal_node_id":"0.0-5.0-15.0"},{"rt":99729.39999995288,"responses":"{\"pregunta10\":\"c) La biónica puede asegurar nuestra existencia mediante la aplicación de técnicas copiadas de la naturaleza. \"}","question_order":"[0]","trial_type":"survey-multi-choice","trial_index":21,"time_elapsed":1628390,"internal_node_id":"0.0-5.0-16.0"},{"rt":3362.4800000106916,"response":{"pregunta10 likert":1},"question_order":[0],"trial_type":"survey-likert","trial_index":22,"time_elapsed":1631759,"internal_node_id":"0.0-5.0-17.0"},{"rt":76244.46000007447,"responses":"{\"pregunta5\":\"a) Los momentos triviales de los viajes, en la escritura se vuelven significativos. \"}","question_order":"[0]","trial_type":"survey-multi-choice","trial_index":23,"time_elapsed":1708010,"internal_node_id":"0.0-5.0-18.0"},{"rt":3673.9899999229237,"response":{"pregunta5 likert":1},"question_order":[0],"trial_type":"survey-likert","trial_index":24,"time_elapsed":1711687,"internal_node_id":"0.0-5.0-19.0"},{"rt":185289.23499991652,"responses":"{\"pregunta24\":\"c) El receptor es habitualmente pasivo frente a la publicidad. \"}","question_order":"[0]","trial_type":"survey-multi-choice","trial_index":25,"time_elapsed":1896974,"internal_node_id":"0.0-5.0-20.0"},{"rt":2267.4150000093505,"response":{"pregunta24 likert":1},"question_order":[0],"trial_type":"survey-likert","trial_index":26,"time_elapsed":1899248,"internal_node_id":"0.0-5.0-21.0"},{"rt":89756.3450000016,"responses":"{\"pregunta6\":\"a) Las voces extranjeras viven una tensión entre la aceptación y el rechazo. \"}","question_order":"[0]","trial_type":"survey-multi-choice","trial_index":27,"time_elapsed":1989016,"internal_node_id":"0.0-5.0-22.0"},{"rt":3204.8049999866635,"response":{"pregunta6 likert":1},"question_order":[0],"trial_type":"survey-likert","trial_index":28,"time_elapsed":1992225,"internal_node_id":"0.0-5.0-23.0"},{"rt":53355.61999992933,"responses":"{\"pregunta2\":\"b) A la relación entre pensamiento y estructura social. \"}","question_order":"[0]","trial_type":"survey-multi-choice","trial_index":29,"time_elapsed":2045581,"internal_node_id":"0.0-5.0-24.0"},{"rt":3029.5949999708682,"response":{"pregunta2 likert":2},"question_order":[0],"trial_type":"survey-likert","trial_index":30,"time_elapsed":2048613,"internal_node_id":"0.0-5.0-25.0"},{"rt":60641.760000027716,"responses":"{\"pregunta16\":\"a) Provocar el deseo de la adquisición vertiginosa. \"}","question_order":"[0]","trial_type":"survey-multi-choice","trial_index":31,"time_elapsed":2109258,"internal_node_id":"0.0-5.0-26.0"},{"rt":6446.300000068732,"response":{"pregunta16 likert":2},"question_order":[0],"trial_type":"survey-likert","trial_index":32,"time_elapsed":2115708,"internal_node_id":"0.0-5.0-27.0"},{"rt":86730.60499993153,"responses":"{\"pregunta25\":\"a) llevan un control grupal de su embarazo. \"}","question_order":"[0]","trial_type":"survey-multi-choice","trial_index":33,"time_elapsed":2202444,"internal_node_id":"0.0-5.0-28.0"},{"rt":5539.144999929704,"response":{"pregunta25 likert":1},"question_order":[0],"trial_type":"survey-likert","trial_index":34,"time_elapsed":2207987,"internal_node_id":"0.0-5.0-29.0"},{"rt":85468.27999991365,"responses":"{\"pregunta13\":\"a) El ser humano se comporta de acuerdo con las circunstancias. \"}","question_order":"[0]","trial_type":"survey-multi-choice","trial_index":35,"time_elapsed":2293459,"internal_node_id":"0.0-5.0-30.0"},{"rt":6472.085000015795,"response":{"pregunta13 likert":1},"question_order":[0],"trial_type":"survey-likert","trial_index":36,"time_elapsed":2299935,"internal_node_id":"0.0-5.0-31.0"},{"rt":90237.16000001878,"responses":"{\"pregunta17\":\"c) Homenajear a quienes murieron. \"}","question_order":"[0]","trial_type":"survey-multi-choice","trial_index":37,"time_elapsed":2390169,"internal_node_id":"0.0-5.0-32.0"},{"rt":6592.029999941587,"response":{"pregunta17 likert":2},"question_order":[0],"trial_type":"survey-likert","trial_index":38,"time_elapsed":2396765,"internal_node_id":"0.0-5.0-33.0"},{"rt":139768.88000010513,"responses":"{\"pregunta1\":\"c) Aportan informaciones con las que se reconstruye el personaje dentro de un relato. \"}","question_order":"[0]","trial_type":"survey-multi-choice","trial_index":39,"time_elapsed":2536544,"internal_node_id":"0.0-5.0-34.0"},{"rt":4459.275000030175,"response":{"pregunta1 likert":1},"question_order":[0],"trial_type":"survey-likert","trial_index":40,"time_elapsed":2541007,"internal_node_id":"0.0-5.0-35.0"},{"rt":59232.72500000894,"responses":"{\"pregunta9\":\"b) pueden rendir exámenes para optar y obtener títulos profesionales igual que los hombres. \"}","question_order":"[0]","trial_type":"survey-multi-choice","trial_index":41,"time_elapsed":2600240,"internal_node_id":"0.0-5.0-36.0"},{"rt":3706.99999993667,"response":{"pregunta9 likert":1},"question_order":[0],"trial_type":"survey-likert","trial_index":42,"time_elapsed":2603951,"internal_node_id":"0.0-5.0-37.0"},{"rt":78364.62999996729,"responses":"{\"pregunta18\":\"b) Al premio merecido después de tantos esfuerzos. \"}","question_order":"[0]","trial_type":"survey-multi-choice","trial_index":43,"time_elapsed":2682324,"internal_node_id":"0.0-5.0-38.0"},{"rt":2621.6300000669435,"response":{"pregunta18 likert":1},"question_order":[0],"trial_type":"survey-likert","trial_index":44,"time_elapsed":2684949,"internal_node_id":"0.0-5.0-39.0"},{"rt":162136.14999991842,"responses":"{\"pregunta14\":\"c) un recuerdo nostálgico. \"}","question_order":"[0]","trial_type":"survey-multi-choice","trial_index":45,"time_elapsed":2847086,"internal_node_id":"0.0-5.0-40.0"},{"rt":3035.0750000216067,"response":{"pregunta14 likert":1},"question_order":[0],"trial_type":"survey-likert","trial_index":46,"time_elapsed":2850125,"internal_node_id":"0.0-5.0-41.0"},{"rt":118001.56000000425,"responses":"{\"pregunta23\":\"a) A la influencia de grupos que rechazaban su música. \"}","question_order":"[0]","trial_type":"survey-multi-choice","trial_index":47,"time_elapsed":2968134,"internal_node_id":"0.0-5.0-42.0"},{"rt":2870.0800000224262,"response":{"pregunta23 likert":1},"question_order":[0],"trial_type":"survey-likert","trial_index":48,"time_elapsed":2971008,"internal_node_id":"0.0-5.0-43.0"},{"rt":88026.28500002902,"responses":"{\"pregunta11\":\"b) Promover la asistencia a un evento específico de decoración a través de una atractiva descripción. \"}","question_order":"[0]","trial_type":"survey-multi-choice","trial_index":49,"time_elapsed":3059038,"internal_node_id":"0.0-5.0-44.0"},{"rt":4194.7800000198185,"response":{"pregunta11 likert":1},"question_order":[0],"trial_type":"survey-likert","trial_index":50,"time_elapsed":3063237,"internal_node_id":"0.0-5.0-45.0"},{"rt":155880.26500004344,"responses":"{\"pregunta7\":\"c) La imprenta y el papel han permitido el desarrollo de la civilización y la conservación de su cultura, y ambos son inventos chinos. \"}","question_order":"[0]","trial_type":"survey-multi-choice","trial_index":51,"time_elapsed":3219121,"internal_node_id":"0.0-5.0-46.0"},{"rt":3431.154999998398,"response":{"pregunta7 likert":1},"question_order":[0],"trial_type":"survey-likert","trial_index":52,"time_elapsed":3222556,"internal_node_id":"0.0-5.0-47.0"},{"rt":148353.1700000167,"responses":"{\"pregunta26\":\"a) el hombre excesivo es inmoral. \"}","question_order":"[0]","trial_type":"survey-multi-choice","trial_index":53,"time_elapsed":3370908,"internal_node_id":"0.0-5.0-48.0"},{"rt":2748.0049999430776,"response":{"pregunta26 likert":1},"question_order":[0],"trial_type":"survey-likert","trial_index":54,"time_elapsed":3373660,"internal_node_id":"0.0-5.0-49.0"},{"rt":109617.33499995898,"responses":"{\"pregunta20\":\"a) el mejor emperador es el que está muerto. \"}","question_order":"[0]","trial_type":"survey-multi-choice","trial_index":55,"time_elapsed":3483284,"internal_node_id":"0.0-5.0-50.0"},{"rt":5159.280000021681,"response":{"pregunta20 likert":1},"question_order":[0],"trial_type":"survey-likert","trial_index":56,"time_elapsed":3488448,"internal_node_id":"0.0-5.0-51.0"},{"rt":84615.20000000019,"responses":"{\"pregunta12\":\"a) es una noción que obedece a una visión pesimista de la vida. \"}","question_order":"[0]","trial_type":"survey-multi-choice","trial_index":57,"time_elapsed":3573071,"internal_node_id":"0.0-5.0-52.0"},{"rt":2967.0599999371916,"response":{"pregunta12 likert":1},"question_order":[0],"trial_type":"survey-likert","trial_index":58,"time_elapsed":3576042,"internal_node_id":"0.0-5.0-53.0"},{"rt":52553.35499998182,"responses":"{\"pregunta22\":\"c) Bomberos debería tener acceso a un seguro médico, al que pueda recurrir en caso de accidente. \"}","question_order":"[0]","trial_type":"survey-multi-choice","trial_index":59,"time_elapsed":3628600,"internal_node_id":"0.0-5.0-54.0"},{"rt":7606.48499999661,"response":{"pregunta22 likert":1},"question_order":[0],"trial_type":"survey-likert","trial_index":60,"time_elapsed":3636212,"internal_node_id":"0.0-5.0-55.0"},{"rt":72006.315000006,"responses":"{\"pregunta21\":\"c) la creación de elementos químicos artificiales ha resultado de la manipulación del uranio. \"}","question_order":"[0]","trial_type":"survey-multi-choice","trial_index":61,"time_elapsed":3708218,"internal_node_id":"0.0-5.0-56.0"},{"rt":3746.40000006184,"response":{"pregunta21 likert":1},"question_order":[0],"trial_type":"survey-likert","trial_index":62,"time_elapsed":3711968,"internal_node_id":"0.0-5.0-57.0"},{"rt":79573.33500008099,"responses":"{\"pregunta29\":\"b) la Muerte vaticina el futuro mediante gestos. \"}","question_order":"[0]","trial_type":"survey-multi-choice","trial_index":63,"time_elapsed":3791552,"internal_node_id":"0.0-5.0-58.0"},{"rt":3435.439999913797,"response":{"pregunta29 likert":0},"question_order":[0],"trial_type":"survey-likert","trial_index":64,"time_elapsed":3794991,"internal_node_id":"0.0-5.0-59.0"}]