[{"rt":6355.199999990873,"stimulus":"<h1 style=\"color:red; margin-top: 3%;\">¡Bienvenido(a)!</h1><p style=\"text-align:left; justify-content:space-between; margin-right: 5%; margin-left: 5%; margin-top: 5%\"> Antes de empezar el estudio, necesitamos que nos confirmes que estás de acuerdo con participar. Recuerda que tu participación es 100% voluntaria y que lo único que te pedimos es responder lo mejor que puedas. Recuerda también que el estudio incluye:</p><ol style=\"text-align:left; justify-content:space-between; margin-right: 5%; margin-left: 5%;\"><li> un ejercicio de resolución de preguntas de selección múltiple (30’),</li><li>un cuestionario breve (5’),</li><li>un juego muy breve (3’),</li></ol><p style=\"text-align:left; justify-content:space-between; margin-right: 5%; margin-left: 5%;\">Si quieres participar, haz clic en “Acepto” luego de leer lo siguiente:<br></p><p style=\"text-align:left; justify-content:space-between; margin-right: 5%; margin-left: 5%;\">Acepto participar en el estudio “Estrategias de lectura y resolución de preguntas de selección múltiple”, en los términos aquí señalados:<br></p><p style=\"text-align:left; justify-content:space-between; margin-right: 5%; margin-left: 5%;\"><a href=\"http://ciae.uchile.cl/download.php?file=noticias/Asentimiento.pdf\" target=\"_blank\">Link a la hoja de información del Consentimiento.</a></p><p style=\"text-align:left; justify-content:space-between; margin-right: 5%; margin-left: 5%;\">Declaro que he leído (o se me ha leído) y (he) comprendido, las condiciones de mi participación en este estudio. He tenido la oportunidad de hacer preguntas y éstas han sido respondidas. No tengo dudas al respecto.</p>","response":0,"condicion_MCQ":2,"condicion_INTER":8,"numero_participante":56,"numero_version":1,"dimx":412,"dimy":869,"color_profundidad":24,"pixel_profundidad":24,"Browser":"Google Chrome","trial_type":"html-button-response","trial_index":0,"time_elapsed":6366,"internal_node_id":"0.0-0.0"},{"success":true,"trial_type":"fullscreen","trial_index":1,"time_elapsed":9039,"internal_node_id":"0.0-1.0"},{"rt":41815.89999992866,"responses":"{\"Nombres\":\"Jeremía Israel\",\"Apellidos\":\"Varas Sura\",\"Edad\":\"19\",\"Sexo\":\"Hombre\",\"Curso\":\"Primer año\",\"Colegio\":\"Universidad Andrés bello \",\"Contacto\":\"harri.v31@gmail.com\"}","trial_type":"survey-text","trial_index":2,"time_elapsed":50870,"internal_node_id":"0.0-2.0"},{"success":true,"timeout":false,"failed_images":[],"failed_audio":[],"failed_video":[],"trial_type":"preload","trial_index":3,"time_elapsed":52271,"internal_node_id":"0.0-3.0"},{"rt":4469.399999943562,"stimulus":"<h1 style:\"margin-top: 5%;\">Ejercicios de Comprensión de Lectura de la Universidad de Chile</h1><p style=\"font-size: 120%;\">En esta actividad, debes responder 30 preguntas de selección múltiple. Cada pregunta presenta 3 respuestas alternativas, pero sólo una de ellas es correcta. Por lo tanto, debes escoger una sola alternativa para cada pregunta. Además, debes reportar qué tan seguro(a) estás de la respuesta que das, con un:</p><ol style=\"font-size: 120%;text-align:left;margin-left: 40%;\"><li>No estoy seguro(a) para nada</li><li>No estoy muy seguro(a)</li><li>Estoy bastante seguro(a)</li><li>Estoy totalmente seguro(a)</li></ol><p style=\"font-size: 120%;\">Por favor lee bien los enunciados antes de responder. ¡Éxito!</p>","response":0,"trial_type":"html-button-response","trial_index":4,"time_elapsed":56744,"internal_node_id":"0.0-4.0"},{"rt":96831.29999996163,"responses":"{\"pregunta2\":\"c) A la relación entre civilización y sociedad. \"}","question_order":"[0]","trial_type":"survey-multi-choice","trial_index":5,"time_elapsed":153583,"internal_node_id":"0.0-5.0-0.0"},{"rt":12296.099999919534,"response":{"pregunta2 likert":0},"question_order":[0],"trial_type":"survey-likert","trial_index":6,"time_elapsed":165883,"internal_node_id":"0.0-5.0-1.0"},{"rt":174146.70000004116,"responses":"{\"pregunta20\":\"a) el mejor emperador es el que está muerto. \"}","question_order":"[0]","trial_type":"survey-multi-choice","trial_index":7,"time_elapsed":340033,"internal_node_id":"0.0-5.0-2.0"},{"rt":1984.3999999575317,"response":{"pregunta20 likert":0},"question_order":[0],"trial_type":"survey-likert","trial_index":8,"time_elapsed":342020,"internal_node_id":"0.0-5.0-3.0"},{"rt":203206.4000000246,"responses":"{\"pregunta15\":\"b) ritualistas y obsesivos. \"}","question_order":"[0]","trial_type":"survey-multi-choice","trial_index":9,"time_elapsed":545229,"internal_node_id":"0.0-5.0-4.0"},{"rt":2265.89999999851,"response":{"pregunta15 likert":2},"question_order":[0],"trial_type":"survey-likert","trial_index":10,"time_elapsed":547498,"internal_node_id":"0.0-5.0-5.0"},{"rt":356843.30000006594,"responses":"{\"pregunta23\":\"a) A la influencia de grupos que rechazaban su música. \"}","question_order":"[0]","trial_type":"survey-multi-choice","trial_index":11,"time_elapsed":904344,"internal_node_id":"0.0-5.0-6.0"},{"rt":3649.7999998973683,"response":{"pregunta23 likert":3},"question_order":[0],"trial_type":"survey-likert","trial_index":12,"time_elapsed":907997,"internal_node_id":"0.0-5.0-7.0"},{"rt":48805.799999972805,"responses":"{\"pregunta18\":\"a) A la inutilidad de tanto esfuerzo si el objetivo es el reposo. \"}","question_order":"[0]","trial_type":"survey-multi-choice","trial_index":13,"time_elapsed":956807,"internal_node_id":"0.0-5.0-8.0"},{"rt":3207.300000009127,"response":{"pregunta18 likert":3},"question_order":[0],"trial_type":"survey-likert","trial_index":14,"time_elapsed":960021,"internal_node_id":"0.0-5.0-9.0"},{"rt":638251.1999999406,"responses":"{\"pregunta14\":\"c) un recuerdo nostálgico. \"}","question_order":"[0]","trial_type":"survey-multi-choice","trial_index":15,"time_elapsed":1598276,"internal_node_id":"0.0-5.0-10.0"},{"rt":2914.0999999362975,"response":{"pregunta14 likert":1},"question_order":[0],"trial_type":"survey-likert","trial_index":16,"time_elapsed":1601193,"internal_node_id":"0.0-5.0-11.0"},{"rt":77058.30000003334,"responses":"{\"pregunta24\":\"c) El receptor es habitualmente pasivo frente a la publicidad. \"}","question_order":"[0]","trial_type":"survey-multi-choice","trial_index":17,"time_elapsed":1678255,"internal_node_id":"0.0-5.0-12.0"},{"rt":2380.0000000046566,"response":{"pregunta24 likert":3},"question_order":[0],"trial_type":"survey-likert","trial_index":18,"time_elapsed":1680638,"internal_node_id":"0.0-5.0-13.0"},{"rt":74652.59999991395,"responses":"{\"pregunta16\":\"a) Provocar el deseo de la adquisición vertiginosa. \"}","question_order":"[0]","trial_type":"survey-multi-choice","trial_index":19,"time_elapsed":1755295,"internal_node_id":"0.0-5.0-14.0"},{"rt":2746.500000008382,"response":{"pregunta16 likert":0},"question_order":[0],"trial_type":"survey-likert","trial_index":20,"time_elapsed":1758044,"internal_node_id":"0.0-5.0-15.0"},{"rt":73058.39999997988,"responses":"{\"pregunta8\":\"c) Comparar a Cervantes con Quevedo. \"}","question_order":"[0]","trial_type":"survey-multi-choice","trial_index":21,"time_elapsed":1831107,"internal_node_id":"0.0-5.0-16.0"},{"rt":3674.7999999206513,"response":{"pregunta8 likert":1},"question_order":[0],"trial_type":"survey-likert","trial_index":22,"time_elapsed":1834784,"internal_node_id":"0.0-5.0-17.0"},{"rt":93595.00000008848,"responses":"{\"pregunta9\":\"a) pueden ejercer profesiones científicas de la misma forma en que lo hacen los hombres. \"}","question_order":"[0]","trial_type":"survey-multi-choice","trial_index":23,"time_elapsed":1928382,"internal_node_id":"0.0-5.0-18.0"},{"rt":2992.8000000072643,"response":{"pregunta9 likert":0},"question_order":[0],"trial_type":"survey-likert","trial_index":24,"time_elapsed":1931378,"internal_node_id":"0.0-5.0-19.0"},{"rt":29641.700000036508,"responses":"{\"pregunta27\":\"a) Será difícil que las empresas nacionales compitan con las estadounidenses. \"}","question_order":"[0]","trial_type":"survey-multi-choice","trial_index":25,"time_elapsed":1961023,"internal_node_id":"0.0-5.0-20.0"},{"rt":2571.4000000152737,"response":{"pregunta27 likert":2},"question_order":[0],"trial_type":"survey-likert","trial_index":26,"time_elapsed":1963601,"internal_node_id":"0.0-5.0-21.0"},{"rt":338853.2000000123,"responses":"{\"pregunta6\":\"b) La aparición del Diccionario Académico ha sido polémica. \"}","question_order":"[0]","trial_type":"survey-multi-choice","trial_index":27,"time_elapsed":2302457,"internal_node_id":"0.0-5.0-22.0"},{"rt":2172.5000001024455,"response":{"pregunta6 likert":1},"question_order":[0],"trial_type":"survey-likert","trial_index":28,"time_elapsed":2304632,"internal_node_id":"0.0-5.0-23.0"},{"rt":3871.900000027381,"responses":"{\"pregunta11\":\"a) Presentar positivamente las diversas tendencias del diseño de interiores a través de un comentario. \"}","question_order":"[0]","trial_type":"survey-multi-choice","trial_index":29,"time_elapsed":2308507,"internal_node_id":"0.0-5.0-24.0"},{"rt":1693.0999999167398,"response":{"pregunta11 likert":1},"question_order":[0],"trial_type":"survey-likert","trial_index":30,"time_elapsed":2310203,"internal_node_id":"0.0-5.0-25.0"},{"rt":2209.2999999877065,"responses":"{\"pregunta19\":\"b) El hábito de la lectura y el progreso mantienen una relación inversamente proporcional. \"}","question_order":"[0]","trial_type":"survey-multi-choice","trial_index":31,"time_elapsed":2312415,"internal_node_id":"0.0-5.0-26.0"},{"rt":1700.7999999914318,"response":{"pregunta19 likert":1},"question_order":[0],"trial_type":"survey-likert","trial_index":32,"time_elapsed":2314118,"internal_node_id":"0.0-5.0-27.0"},{"rt":2356.999999959953,"responses":"{\"pregunta21\":\"c) la creación de elementos químicos artificiales ha resultado de la manipulación del uranio. \"}","question_order":"[0]","trial_type":"survey-multi-choice","trial_index":33,"time_elapsed":2316479,"internal_node_id":"0.0-5.0-28.0"},{"rt":4608.999999938533,"response":{"pregunta21 likert":0},"question_order":[0],"trial_type":"survey-likert","trial_index":34,"time_elapsed":2321094,"internal_node_id":"0.0-5.0-29.0"},{"rt":5657.100000069477,"responses":"{\"pregunta10\":\"a) La biónica es una disciplina que tiene su origen en la ecología. \"}","question_order":"[0]","trial_type":"survey-multi-choice","trial_index":35,"time_elapsed":2326755,"internal_node_id":"0.0-5.0-30.0"},{"rt":1667.5999999279156,"response":{"pregunta10 likert":1},"question_order":[0],"trial_type":"survey-likert","trial_index":36,"time_elapsed":2328425,"internal_node_id":"0.0-5.0-31.0"},{"rt":2648.4000000637025,"responses":"{\"pregunta17\":\"a) Revivir un periodo histórico. \"}","question_order":"[0]","trial_type":"survey-multi-choice","trial_index":37,"time_elapsed":2331077,"internal_node_id":"0.0-5.0-32.0"},{"rt":1608.8999999919906,"response":{"pregunta17 likert":1},"question_order":[0],"trial_type":"survey-likert","trial_index":38,"time_elapsed":2332688,"internal_node_id":"0.0-5.0-33.0"},{"rt":3070.1000000117347,"responses":"{\"pregunta25\":\"b) tienen dificultades durante el parto. \"}","question_order":"[0]","trial_type":"survey-multi-choice","trial_index":39,"time_elapsed":2335763,"internal_node_id":"0.0-5.0-34.0"},{"rt":1657.4999999720603,"response":{"pregunta25 likert":1},"question_order":[0],"trial_type":"survey-likert","trial_index":40,"time_elapsed":2337427,"internal_node_id":"0.0-5.0-35.0"},{"rt":2202.50000001397,"responses":"{\"pregunta12\":\"a) es una noción que obedece a una visión pesimista de la vida. \"}","question_order":"[0]","trial_type":"survey-multi-choice","trial_index":41,"time_elapsed":2339633,"internal_node_id":"0.0-5.0-36.0"},{"rt":1710.1999999722466,"response":{"pregunta12 likert":1},"question_order":[0],"trial_type":"survey-likert","trial_index":42,"time_elapsed":2341346,"internal_node_id":"0.0-5.0-37.0"},{"rt":42951.80000003893,"responses":"{\"pregunta13\":\"b) Lo que es normal en un asilo es anormal en un campo de concentración. \"}","question_order":"[0]","trial_type":"survey-multi-choice","trial_index":43,"time_elapsed":2384301,"internal_node_id":"0.0-5.0-38.0"},{"rt":2369.300000020303,"response":{"pregunta13 likert":1},"question_order":[0],"trial_type":"survey-likert","trial_index":44,"time_elapsed":2386673,"internal_node_id":"0.0-5.0-39.0"},{"rt":2585.1000000257045,"responses":"{\"pregunta29\":\"a) el jardinero estará muerto al día siguiente. \"}","question_order":"[0]","trial_type":"survey-multi-choice","trial_index":45,"time_elapsed":2389261,"internal_node_id":"0.0-5.0-40.0"},{"rt":2153.00000004936,"response":{"pregunta29 likert":1},"question_order":[0],"trial_type":"survey-likert","trial_index":46,"time_elapsed":2391418,"internal_node_id":"0.0-5.0-41.0"},{"rt":4021.100000012666,"responses":"{\"pregunta7\":\"a) Si desaparecieran el papel y la imprenta, se produciría un gran retraso en nuestra civilización. \"}","question_order":"[0]","trial_type":"survey-multi-choice","trial_index":47,"time_elapsed":2395442,"internal_node_id":"0.0-5.0-42.0"},{"rt":2162.099999957718,"response":{"pregunta7 likert":3},"question_order":[0],"trial_type":"survey-likert","trial_index":48,"time_elapsed":2397608,"internal_node_id":"0.0-5.0-43.0"},{"rt":2556.6000000108033,"responses":"{\"pregunta5\":\"b) La escritura plasma los mejores momentos de los viajes. \"}","question_order":"[0]","trial_type":"survey-multi-choice","trial_index":49,"time_elapsed":2400168,"internal_node_id":"0.0-5.0-44.0"},{"rt":2111.4999999990687,"response":{"pregunta5 likert":1},"question_order":[0],"trial_type":"survey-likert","trial_index":50,"time_elapsed":2402284,"internal_node_id":"0.0-5.0-45.0"},{"rt":2674.4000000180677,"responses":"{\"pregunta22\":\"a) Por el riesgo que corren diariamente, los bomberos deberían tener mejores condiciones de seguridad. \"}","question_order":"[0]","trial_type":"survey-multi-choice","trial_index":51,"time_elapsed":2404961,"internal_node_id":"0.0-5.0-46.0"},{"rt":1750.6000000284985,"response":{"pregunta22 likert":0},"question_order":[0],"trial_type":"survey-likert","trial_index":52,"time_elapsed":2406715,"internal_node_id":"0.0-5.0-47.0"},{"rt":3984.000000054948,"responses":"{\"pregunta3\":\"a) El inicio de la dinastía Chang. \"}","question_order":"[0]","trial_type":"survey-multi-choice","trial_index":53,"time_elapsed":2410706,"internal_node_id":"0.0-5.0-48.0"},{"rt":2084.499999997206,"response":{"pregunta3 likert":0},"question_order":[0],"trial_type":"survey-likert","trial_index":54,"time_elapsed":2412794,"internal_node_id":"0.0-5.0-49.0"},{"rt":59157.60000003502,"responses":"{\"pregunta28\":\"b) El derecho a informar y el derecho a la privacidad son inconciliables. \"}","question_order":"[0]","trial_type":"survey-multi-choice","trial_index":55,"time_elapsed":2471955,"internal_node_id":"0.0-5.0-50.0"},{"rt":2032.2000000160187,"response":{"pregunta28 likert":0},"question_order":[0],"trial_type":"survey-likert","trial_index":56,"time_elapsed":2473990,"internal_node_id":"0.0-5.0-51.0"},{"rt":3038.9999999897555,"responses":"{\"pregunta30\":\"c) la muerte es distinta en las grandes ciudades. \"}","question_order":"[0]","trial_type":"survey-multi-choice","trial_index":57,"time_elapsed":2477032,"internal_node_id":"0.0-5.0-52.0"},{"rt":1857.30000003241,"response":{"pregunta30 likert":1},"question_order":[0],"trial_type":"survey-likert","trial_index":58,"time_elapsed":2478893,"internal_node_id":"0.0-5.0-53.0"},{"rt":1878.0999999726191,"responses":"{\"pregunta4\":\"a) En la literatura como en la vida, lo importante son las preguntas. \"}","question_order":"[0]","trial_type":"survey-multi-choice","trial_index":59,"time_elapsed":2480778,"internal_node_id":"0.0-5.0-54.0"},{"rt":1900.9999999543652,"response":{"pregunta4 likert":1},"question_order":[0],"trial_type":"survey-likert","trial_index":60,"time_elapsed":2482682,"internal_node_id":"0.0-5.0-55.0"},{"rt":2060.300000011921,"responses":"{\"pregunta1\":\"a) Muestran las opiniones expuestas por los personajes en un relato. \"}","question_order":"[0]","trial_type":"survey-multi-choice","trial_index":61,"time_elapsed":2484746,"internal_node_id":"0.0-5.0-56.0"},{"rt":1776.700000045821,"response":{"pregunta1 likert":2},"question_order":[0],"trial_type":"survey-likert","trial_index":62,"time_elapsed":2486525,"internal_node_id":"0.0-5.0-57.0"},{"rt":3018.7999999616295,"responses":"{\"pregunta26\":\"c) el sujeto sufre con su modo de vida. \"}","question_order":"[0]","trial_type":"survey-multi-choice","trial_index":63,"time_elapsed":2489547,"internal_node_id":"0.0-5.0-58.0"},{"rt":1786.5000000456348,"response":{"pregunta26 likert":1},"question_order":[0],"trial_type":"survey-likert","trial_index":64,"time_elapsed":2491340,"internal_node_id":"0.0-5.0-59.0"}]