[{"rt":1486,"stimulus":"<h1 style=\"color:red; margin-top: 3%;\">¡Bienvenido(a)!</h1><p style=\"text-align:left; justify-content:space-between; margin-right: 5%; margin-left: 5%; margin-top: 5%\"> Antes de empezar el estudio, necesitamos que nos confirmes que estás de acuerdo con participar. Recuerda que tu participación es 100% voluntaria y que lo único que te pedimos es responder lo mejor que puedas. Recuerda también que el estudio incluye:</p><ol style=\"text-align:left; justify-content:space-between; margin-right: 5%; margin-left: 5%;\"><li> un ejercicio de resolución de preguntas de selección múltiple (30’),</li><li>un cuestionario breve (5’),</li><li>un juego muy breve (3’),</li></ol><p style=\"text-align:left; justify-content:space-between; margin-right: 5%; margin-left: 5%;\">Si quieres participar, haz clic en “Acepto” luego de leer lo siguiente:<br></p><p style=\"text-align:left; justify-content:space-between; margin-right: 5%; margin-left: 5%;\">Acepto participar en el estudio “Estrategias de lectura y resolución de preguntas de selección múltiple”, en los términos aquí señalados:<br></p><p style=\"text-align:left; justify-content:space-between; margin-right: 5%; margin-left: 5%;\"><a href=\"http://ciae.uchile.cl/download.php?file=noticias/Asentimiento.pdf\" target=\"_blank\">Link a la hoja de información del Consentimiento.</a></p><p style=\"text-align:left; justify-content:space-between; margin-right: 5%; margin-left: 5%;\">Declaro que he leído (o se me ha leído) y (he) comprendido, las condiciones de mi participación en este estudio. He tenido la oportunidad de hacer preguntas y éstas han sido respondidas. No tengo dudas al respecto.</p>","response":0,"condicion_MCQ":1,"condicion_INTER":1,"numero_participante":25,"numero_version":2,"dimx":1280,"dimy":800,"color_profundidad":24,"pixel_profundidad":24,"Browser":"Apple Safari","trial_type":"html-button-response","trial_index":0,"time_elapsed":1488,"internal_node_id":"0.0-0.0"},{"success":true,"trial_type":"fullscreen","trial_index":1,"time_elapsed":6719,"internal_node_id":"0.0-1.0"},{"rt":77047,"responses":"{\"Nombres\":\"Trinitat\",\"Apellidos\":\"Valls Cordova\",\"Edad\":\"19\",\"Sexo\":\"mujer\",\"Curso\":\"primer año\",\"Colegio\":\"unab\",\"Contacto\":\"vallstrini@gmail.com\"}","trial_type":"survey-text","trial_index":2,"time_elapsed":83787,"internal_node_id":"0.0-2.0"},{"success":true,"timeout":false,"failed_images":[],"failed_audio":[],"failed_video":[],"trial_type":"preload","trial_index":3,"time_elapsed":84756,"internal_node_id":"0.0-3.0"},{"rt":23417.999999999985,"stimulus":"<h1 style:\"margin-top: 5%;\">Ejercicios de Comprensión de Lectura de la Universidad de Chile</h1><p style=\"font-size: 120%;\">En esta actividad, debes responder 30 preguntas de selección múltiple. Cada pregunta presenta 3 respuestas alternativas, pero sólo una de ellas es correcta. Por lo tanto, debes escoger una sola alternativa para cada pregunta. Además, debes reportar qué tan seguro(a) estás de la respuesta que das, con un:</p><ol style=\"font-size: 120%;text-align:left;margin-left: 40%;\"><li>No estoy seguro(a) para nada</li><li>No estoy muy seguro(a)</li><li>Estoy bastante seguro(a)</li><li>Estoy totalmente seguro(a)</li></ol><p style=\"font-size: 120%;\">Por favor lee bien los enunciados antes de responder. ¡Éxito!</p>","response":0,"trial_type":"html-button-response","trial_index":4,"time_elapsed":108175,"internal_node_id":"0.0-4.0"},{"rt":35518,"responses":"{\"pregunta10\":\"a) La biónica es una disciplina que aprovecha las condiciones del entorno. \"}","question_order":"[0]","trial_type":"survey-multi-choice","trial_index":5,"time_elapsed":143694,"internal_node_id":"0.0-5.0-0.0"},{"rt":2807,"response":{"pregunta10 likert":1},"question_order":[0],"trial_type":"survey-likert","trial_index":6,"time_elapsed":146504,"internal_node_id":"0.0-5.0-1.0"},{"rt":49506,"responses":"{\"pregunta28\":\"a) El derecho a informar y el derecho a la privacidad son inconciliables. \"}","question_order":"[0]","trial_type":"survey-multi-choice","trial_index":7,"time_elapsed":196010,"internal_node_id":"0.0-5.0-2.0"},{"rt":1758,"response":{"pregunta28 likert":2},"question_order":[0],"trial_type":"survey-likert","trial_index":8,"time_elapsed":197770,"internal_node_id":"0.0-5.0-3.0"},{"rt":161514,"responses":"{\"pregunta20\":\"a) sólo las leyes bastan para gobernarse. \"}","question_order":"[0]","trial_type":"survey-multi-choice","trial_index":9,"time_elapsed":359281,"internal_node_id":"0.0-5.0-4.0"},{"rt":6300,"response":{"pregunta20 likert":2},"question_order":[0],"trial_type":"survey-likert","trial_index":10,"time_elapsed":365583,"internal_node_id":"0.0-5.0-5.0"},{"rt":77373,"responses":"{\"pregunta14\":\"a) preparar los recuerdos del mañana. \"}","question_order":"[0]","trial_type":"survey-multi-choice","trial_index":11,"time_elapsed":442956,"internal_node_id":"0.0-5.0-6.0"},{"rt":1640,"response":{"pregunta14 likert":3},"question_order":[0],"trial_type":"survey-likert","trial_index":12,"time_elapsed":444598,"internal_node_id":"0.0-5.0-7.0"},{"rt":90825.00000000012,"responses":"{\"pregunta30\":\"b) la muerte es distinta en las grandes ciudades. \"}","question_order":"[0]","trial_type":"survey-multi-choice","trial_index":13,"time_elapsed":535421,"internal_node_id":"0.0-5.0-8.0"},{"rt":2061,"response":{"pregunta30 likert":2},"question_order":[0],"trial_type":"survey-likert","trial_index":14,"time_elapsed":537483,"internal_node_id":"0.0-5.0-9.0"},{"rt":158987,"responses":"{\"pregunta25\":\"b) sufren dolores de espalda. \"}","question_order":"[0]","trial_type":"survey-multi-choice","trial_index":15,"time_elapsed":696467,"internal_node_id":"0.0-5.0-10.0"},{"rt":2342,"response":{"pregunta25 likert":1},"question_order":[0],"trial_type":"survey-likert","trial_index":16,"time_elapsed":698810,"internal_node_id":"0.0-5.0-11.0"},{"rt":187429,"responses":"{\"pregunta6\":\"b) Las personas escandalosas constantemente critican a la Academia. \"}","question_order":"[0]","trial_type":"survey-multi-choice","trial_index":17,"time_elapsed":886290,"internal_node_id":"0.0-5.0-12.0"},{"rt":2120,"response":{"pregunta6 likert":1},"question_order":[0],"trial_type":"survey-likert","trial_index":18,"time_elapsed":888412,"internal_node_id":"0.0-5.0-13.0"},{"rt":90525,"responses":"{\"pregunta22\":\"b) Bomberos debería tener acceso a un seguro médico, al que pueda recurrir en caso de accidente. \"}","question_order":"[0]","trial_type":"survey-multi-choice","trial_index":19,"time_elapsed":978937,"internal_node_id":"0.0-5.0-14.0"},{"rt":4047,"response":{"pregunta22 likert":2},"question_order":[0],"trial_type":"survey-likert","trial_index":20,"time_elapsed":982985,"internal_node_id":"0.0-5.0-15.0"},{"rt":94578,"responses":"{\"pregunta21\":\"b) la creación de elementos químicos artificiales ha resultado de la manipulación del uranio. \"}","question_order":"[0]","trial_type":"survey-multi-choice","trial_index":21,"time_elapsed":1077562,"internal_node_id":"0.0-5.0-16.0"},{"rt":2203.000000000233,"response":{"pregunta21 likert":2},"question_order":[0],"trial_type":"survey-likert","trial_index":22,"time_elapsed":1079766,"internal_node_id":"0.0-5.0-17.0"},{"rt":92493,"responses":"{\"pregunta4\":\"a) En la literatura como en la vida, todo es metáfora. \"}","question_order":"[0]","trial_type":"survey-multi-choice","trial_index":23,"time_elapsed":1172259,"internal_node_id":"0.0-5.0-18.0"},{"rt":4284,"response":{"pregunta4 likert":1},"question_order":[0],"trial_type":"survey-likert","trial_index":24,"time_elapsed":1176545,"internal_node_id":"0.0-5.0-19.0"},{"rt":53600,"responses":"{\"pregunta27\":\"b) El TLC causará una completa transformación de la economía chilena. \"}","question_order":"[0]","trial_type":"survey-multi-choice","trial_index":25,"time_elapsed":1230145,"internal_node_id":"0.0-5.0-20.0"},{"rt":2231,"response":{"pregunta27 likert":2},"question_order":[0],"trial_type":"survey-likert","trial_index":26,"time_elapsed":1232377,"internal_node_id":"0.0-5.0-21.0"},{"rt":91765,"responses":"{\"pregunta15\":\"a) ritualistas y obsesivos. \"}","question_order":"[0]","trial_type":"survey-multi-choice","trial_index":27,"time_elapsed":1324143,"internal_node_id":"0.0-5.0-22.0"},{"rt":2766,"response":{"pregunta15 likert":2},"question_order":[0],"trial_type":"survey-likert","trial_index":28,"time_elapsed":1326911,"internal_node_id":"0.0-5.0-23.0"},{"rt":223499,"responses":"{\"pregunta24\":\"a) La publicidad es dañina para sus receptores. \"}","question_order":"[0]","trial_type":"survey-multi-choice","trial_index":29,"time_elapsed":1550407,"internal_node_id":"0.0-5.0-24.0"},{"rt":2452,"response":{"pregunta24 likert":1},"question_order":[0],"trial_type":"survey-likert","trial_index":30,"time_elapsed":1552861,"internal_node_id":"0.0-5.0-25.0"},{"rt":75680.99999999977,"responses":"{\"pregunta16\":\"c) Provocar el deseo de la adquisición vertiginosa. \"}","question_order":"[0]","trial_type":"survey-multi-choice","trial_index":31,"time_elapsed":1628542,"internal_node_id":"0.0-5.0-26.0"},{"rt":2299.999999999767,"response":{"pregunta16 likert":2},"question_order":[0],"trial_type":"survey-likert","trial_index":32,"time_elapsed":1630845,"internal_node_id":"0.0-5.0-27.0"},{"rt":59206,"responses":"{\"pregunta5\":\"c) Los momentos triviales de los viajes, en la escritura se vuelven significativos. \"}","question_order":"[0]","trial_type":"survey-multi-choice","trial_index":33,"time_elapsed":1690051,"internal_node_id":"0.0-5.0-28.0"},{"rt":1594.9999999997672,"response":{"pregunta5 likert":2},"question_order":[0],"trial_type":"survey-likert","trial_index":34,"time_elapsed":1691648,"internal_node_id":"0.0-5.0-29.0"},{"rt":27863.999999999767,"responses":"{\"pregunta11\":\"c) Presentar positivamente las diversas tendencias del diseño de interiores a través de un comentario. \"}","question_order":"[0]","trial_type":"survey-multi-choice","trial_index":35,"time_elapsed":1719512,"internal_node_id":"0.0-5.0-30.0"},{"rt":1820.9999999997672,"response":{"pregunta11 likert":1},"question_order":[0],"trial_type":"survey-likert","trial_index":36,"time_elapsed":1721335,"internal_node_id":"0.0-5.0-31.0"},{"rt":31199,"responses":"{\"pregunta17\":\"b) Homenajear a quienes murieron. \"}","question_order":"[0]","trial_type":"survey-multi-choice","trial_index":37,"time_elapsed":1752536,"internal_node_id":"0.0-5.0-32.0"},{"rt":1844,"response":{"pregunta17 likert":2},"question_order":[0],"trial_type":"survey-likert","trial_index":38,"time_elapsed":1754381,"internal_node_id":"0.0-5.0-33.0"},{"rt":75802,"responses":"{\"pregunta29\":\"c) el jardinero estará muerto al día siguiente. \"}","question_order":"[0]","trial_type":"survey-multi-choice","trial_index":39,"time_elapsed":1830183,"internal_node_id":"0.0-5.0-34.0"},{"rt":2049.999999999767,"response":{"pregunta29 likert":2},"question_order":[0],"trial_type":"survey-likert","trial_index":40,"time_elapsed":1832235,"internal_node_id":"0.0-5.0-35.0"},{"rt":7414,"responses":"{\"pregunta7\":\"b) La imprenta y el papel han permitido el desarrollo de la civilización y la conservación de su cultura, y ambos son inventos chinos. \"}","question_order":"[0]","trial_type":"survey-multi-choice","trial_index":41,"time_elapsed":1839651,"internal_node_id":"0.0-5.0-36.0"},{"rt":1677,"response":{"pregunta7 likert":1},"question_order":[0],"trial_type":"survey-likert","trial_index":42,"time_elapsed":1841330,"internal_node_id":"0.0-5.0-37.0"},{"rt":91055.00000000023,"responses":"{\"pregunta19\":\"a) El hábito de la lectura y el progreso mantienen una relación inversamente proporcional. \"}","question_order":"[0]","trial_type":"survey-multi-choice","trial_index":43,"time_elapsed":1932385,"internal_node_id":"0.0-5.0-38.0"},{"rt":3413,"response":{"pregunta19 likert":2},"question_order":[0],"trial_type":"survey-likert","trial_index":44,"time_elapsed":1935800,"internal_node_id":"0.0-5.0-39.0"},{"rt":4834,"responses":"{\"pregunta23\":\"b) A la inexistencia de un recinto adecuado para el recital. \"}","question_order":"[0]","trial_type":"survey-multi-choice","trial_index":45,"time_elapsed":1940636,"internal_node_id":"0.0-5.0-40.0"},{"rt":1867,"response":{"pregunta23 likert":1},"question_order":[0],"trial_type":"survey-likert","trial_index":46,"time_elapsed":1942506,"internal_node_id":"0.0-5.0-41.0"},{"rt":50174.00000000023,"responses":"{\"pregunta3\":\"b) El inicio de la civilización china. \"}","question_order":"[0]","trial_type":"survey-multi-choice","trial_index":47,"time_elapsed":1992681,"internal_node_id":"0.0-5.0-42.0"},{"rt":1740.9999999997672,"response":{"pregunta3 likert":2},"question_order":[0],"trial_type":"survey-likert","trial_index":48,"time_elapsed":1994423,"internal_node_id":"0.0-5.0-43.0"},{"rt":48040,"responses":"{\"pregunta13\":\"b) El concepto de normalidad es diferente para un psiquiatra que para nosotros. \"}","question_order":"[0]","trial_type":"survey-multi-choice","trial_index":49,"time_elapsed":2042464,"internal_node_id":"0.0-5.0-44.0"},{"rt":1698,"response":{"pregunta13 likert":2},"question_order":[0],"trial_type":"survey-likert","trial_index":50,"time_elapsed":2044164,"internal_node_id":"0.0-5.0-45.0"},{"rt":116774,"responses":"{\"pregunta2\":\"b) A la relación entre civilización y sociedad. \"}","question_order":"[0]","trial_type":"survey-multi-choice","trial_index":51,"time_elapsed":2160937,"internal_node_id":"0.0-5.0-46.0"},{"rt":2074,"response":{"pregunta2 likert":2},"question_order":[0],"trial_type":"survey-likert","trial_index":52,"time_elapsed":2163014,"internal_node_id":"0.0-5.0-47.0"},{"rt":8483,"responses":"{\"pregunta18\":\"a) Al premio merecido después de tantos esfuerzos. \"}","question_order":"[0]","trial_type":"survey-multi-choice","trial_index":53,"time_elapsed":2171498,"internal_node_id":"0.0-5.0-48.0"},{"rt":2535.9999999995343,"response":{"pregunta18 likert":1},"question_order":[0],"trial_type":"survey-likert","trial_index":54,"time_elapsed":2174036,"internal_node_id":"0.0-5.0-49.0"},{"rt":37972.999999999534,"responses":"{\"pregunta8\":\"c) Dar a conocer al ganador del premio Cervantes. \"}","question_order":"[0]","trial_type":"survey-multi-choice","trial_index":55,"time_elapsed":2212010,"internal_node_id":"0.0-5.0-50.0"},{"rt":2057,"response":{"pregunta8 likert":2},"question_order":[0],"trial_type":"survey-likert","trial_index":56,"time_elapsed":2214068,"internal_node_id":"0.0-5.0-51.0"},{"rt":32099,"responses":"{\"pregunta26\":\"b) el sujeto sufre con su modo de vida. \"}","question_order":"[0]","trial_type":"survey-multi-choice","trial_index":57,"time_elapsed":2246169,"internal_node_id":"0.0-5.0-52.0"},{"rt":3074.9999999995343,"response":{"pregunta26 likert":1},"question_order":[0],"trial_type":"survey-likert","trial_index":58,"time_elapsed":2249246,"internal_node_id":"0.0-5.0-53.0"},{"rt":37967,"responses":"{\"pregunta12\":\"a) es una realidad discutida por algunos. \"}","question_order":"[0]","trial_type":"survey-multi-choice","trial_index":59,"time_elapsed":2287213,"internal_node_id":"0.0-5.0-54.0"},{"rt":2805,"response":{"pregunta12 likert":2},"question_order":[0],"trial_type":"survey-likert","trial_index":60,"time_elapsed":2290021,"internal_node_id":"0.0-5.0-55.0"},{"rt":5380,"responses":"{\"pregunta9\":\"c) pueden ejercer profesiones científicas de la misma forma en que lo hacen los hombres. \"}","question_order":"[0]","trial_type":"survey-multi-choice","trial_index":61,"time_elapsed":2295403,"internal_node_id":"0.0-5.0-56.0"},{"rt":2228,"response":{"pregunta9 likert":1},"question_order":[0],"trial_type":"survey-likert","trial_index":62,"time_elapsed":2297633,"internal_node_id":"0.0-5.0-57.0"},{"rt":47199,"responses":"{\"pregunta1\":\"b) Aportan informaciones con las que se reconstruye el personaje dentro de un relato. \"}","question_order":"[0]","trial_type":"survey-multi-choice","trial_index":63,"time_elapsed":2344833,"internal_node_id":"0.0-5.0-58.0"},{"rt":2324,"response":{"pregunta1 likert":2},"question_order":[0],"trial_type":"survey-likert","trial_index":64,"time_elapsed":2347159,"internal_node_id":"0.0-5.0-59.0"},{"rt":2265,"stimulus":"<p style=\"font-size: 120%\">Gracias por completar esta etapa del estudio. Ahora te invitamos a responder el cuestionario.<br><br></p>","response":0,"trial_type":"html-button-response","trial_index":65,"time_elapsed":2349426,"internal_node_id":"0.0-6.0"},{"rt":11137,"stimulus":"<h1 style=\"margin-top: 5%\">Cuestionario para la Evaluación de Metas Académicas</h1><p style=\"font-size: 120%; margin-left: 3%; margin-top: 5%\">Este es un cuestionario que permite conocer cuáles son los principales motivos por los que los estudiantes se esfuerzan en su trabajo académico. A continuación, se te presentarán una serie de afirmaciones acerca de los motivos que puedes tener para estudiar.<br>Te pedimos que contestes a dichas afirmaciones reflexionando sobre el contenido de cada una de ellas, que, aunque te parezcan semejantes, en realidad, no lo son.<br>NO HAY RESPUESTAS CORRECTAS o INCORRECTAS, sólo queremos que respondas con la mayor precisión y sinceridad posible a las preguntas que se plantean.","response":0,"trial_type":"html-button-response","trial_index":66,"time_elapsed":2360564,"internal_node_id":"0.0-7.0"},{"rt":148137,"response":{"Metas cuestionario pregunta1":4,"Metas cuestionario pregunta2":4,"Metas cuestionario pregunta3":4,"Metas cuestionario pregunta4":4,"Metas cuestionario pregunta5":4,"Metas cuestionario pregunta6":4,"Metas cuestionario pregunta7":4,"Metas cuestionario pregunta8":3,"Metas cuestionario pregunta9":4,"Metas cuestionario pregunta10":0,"Metas cuestionario pregunta11":0,"Metas cuestionario pregunta12":0,"Metas cuestionario pregunta13":2,"Metas cuestionario pregunta14":2,"Metas cuestionario pregunta15":4,"Metas cuestionario pregunta16":4,"Metas cuestionario pregunta17":4,"Metas cuestionario pregunta18":4,"Metas cuestionario pregunta19":4,"Metas cuestionario pregunta20":2},"question_order":[0,1,2,3,4,5,6,7,8,9,10,11,12,13,14,15,16,17,18,19],"trial_type":"survey-likert","trial_index":67,"time_elapsed":2508705,"internal_node_id":"0.0-8.0"},{"rt":4016,"stimulus":"<p style=\"font-size: 120%\">Gracias por responder el cuestionario. Ahora te invitamos a seguir con el juego, que es muy breve.<br><br></p>","response":0,"trial_type":"html-button-response","trial_index":68,"time_elapsed":2512724,"internal_node_id":"0.0-9.0"},{"rt":10909,"stimulus":"<h1>Juego</h1><p style=\"font-size: 120%;\">A continuación se te presentarán 16 pequeñas historias.<br>Por favor lee el texto presentado en cada una de ellas y luego haz click en el objeto de tu elección.<br>Si estás listo(a),<span style=\"color:red;\"> haz click en \"comenzar\"</span>.</p>","response":0,"trial_type":"html-button-response","trial_index":69,"time_elapsed":2523634,"internal_node_id":"0.0-10.0"},{"rt":15428.999999999534,"grid":[[1,1,1]],"target":[0,2],"response":[0,2],"correct":true,"juego":7,"trial_type":"serial-reaction-time-mouse","trial_index":70,"time_elapsed":2539064,"internal_node_id":"0.0-11.0-0.0"},{"rt":10485,"grid":[[1,1,1],[1,1,1],[1,1,1],[1,1,1],[1,1,1],[1,1,1],[1,1,1]],"target":[0,0],"response":[3,1],"correct":false,"juego":6,"trial_type":"serial-reaction-time-mouse","trial_index":71,"time_elapsed":2549551,"internal_node_id":"0.0-11.0-1.0"},{"rt":5173,"grid":[[1,1,1]],"target":[0,2],"response":[0,0],"correct":false,"juego":1,"trial_type":"serial-reaction-time-mouse","trial_index":72,"time_elapsed":2554724,"internal_node_id":"0.0-11.0-2.0"},{"rt":17468,"grid":[[1,1,1]],"target":[0,0],"response":[0,1],"correct":false,"juego":12,"trial_type":"serial-reaction-time-mouse","trial_index":73,"time_elapsed":2572192,"internal_node_id":"0.0-11.0-3.0"},{"rt":3582,"grid":[[1],[1],[1]],"target":[0,2],"response":[0,0],"correct":false,"juego":4,"trial_type":"serial-reaction-time-mouse","trial_index":74,"time_elapsed":2575776,"internal_node_id":"0.0-11.0-4.0"},{"rt":8170,"grid":[[1,1],[1,1],[1,1],[1,1],[1,1],[1,1],[1,1]],"target":[0,0],"response":[3,1],"correct":false,"juego":14,"trial_type":"serial-reaction-time-mouse","trial_index":75,"time_elapsed":2583947,"internal_node_id":"0.0-11.0-5.0"},{"rt":7972,"grid":[[1,1,1],[1,1,1],[1,1,1],[1,1,1],[1,1,1],[1,1,1],[1,1,1]],"target":[0,0],"response":[3,1],"correct":false,"juego":13,"trial_type":"serial-reaction-time-mouse","trial_index":76,"time_elapsed":2591921,"internal_node_id":"0.0-11.0-6.0"},{"rt":17713,"grid":[[1,1,1]],"target":[0,0],"response":[0,0],"correct":true,"juego":11,"trial_type":"serial-reaction-time-mouse","trial_index":77,"time_elapsed":2609634,"internal_node_id":"0.0-11.0-7.0"},{"rt":10280,"grid":[[1,1,1]],"target":[0,2],"response":[0,2],"correct":true,"juego":2,"trial_type":"serial-reaction-time-mouse","trial_index":78,"time_elapsed":2619915,"internal_node_id":"0.0-11.0-8.0"},{"rt":16938,"grid":[[1,1,1],[1,1,1],[1,1,1]],"target":[0,0],"response":[1,0],"correct":false,"juego":10,"trial_type":"serial-reaction-time-mouse","trial_index":79,"time_elapsed":2636854,"internal_node_id":"0.0-11.0-9.0"},{"rt":4049,"grid":[[1,1,1]],"target":[0,2],"response":[0,0],"correct":false,"juego":3,"trial_type":"serial-reaction-time-mouse","trial_index":80,"time_elapsed":2640903,"internal_node_id":"0.0-11.0-10.0"},{"rt":6895,"grid":[[1],[1],[1],[1],[1],[1]],"target":[0,0],"response":[0,0],"correct":true,"juego":5,"trial_type":"serial-reaction-time-mouse","trial_index":81,"time_elapsed":2647799,"internal_node_id":"0.0-11.0-11.0"},{"rt":7125,"grid":[[1,1],[1,1],[1,1],[1,1],[1,1],[1,1],[1,1]],"target":[0,0],"response":[1,1],"correct":false,"juego":15,"trial_type":"serial-reaction-time-mouse","trial_index":82,"time_elapsed":2654925,"internal_node_id":"0.0-11.0-12.0"},{"rt":4497,"grid":[[1,1,1]],"target":[0,0],"response":[0,1],"correct":false,"juego":9,"trial_type":"serial-reaction-time-mouse","trial_index":83,"time_elapsed":2659423,"internal_node_id":"0.0-11.0-13.0"},{"rt":2457,"grid":[[1,1,1]],"target":[0,2],"response":[0,0],"correct":false,"juego":8,"trial_type":"serial-reaction-time-mouse","trial_index":84,"time_elapsed":2661881,"internal_node_id":"0.0-11.0-14.0"},{"rt":38339,"stimulus":"<h1>Último juego</h1><p style=\"font-size: 130%;\">Tienes <span style=\"color:red\">20</span> segundos para recordar los pares de palabras que aparecerán a continuación. <br></p>","response":0,"trial_type":"html-button-response","trial_index":85,"time_elapsed":2700221,"internal_node_id":"0.0-12.0"},{"animation_sequence":[{"stimulus":"imagen_juego_interferencia.jpg","time":504},{"stimulus":"imagen_juego_interferencia.jpg","time":1003},{"stimulus":"imagen_juego_interferencia.jpg","time":1503},{"stimulus":"imagen_juego_interferencia.jpg","time":2005},{"stimulus":"imagen_juego_interferencia.jpg","time":2505},{"stimulus":"imagen_juego_interferencia.jpg","time":3005},{"stimulus":"imagen_juego_interferencia.jpg","time":3506},{"stimulus":"imagen_juego_interferencia.jpg","time":4008},{"stimulus":"imagen_juego_interferencia.jpg","time":4509},{"stimulus":"imagen_juego_interferencia.jpg","time":5010},{"stimulus":"imagen_juego_interferencia.jpg","time":5510},{"stimulus":"imagen_juego_interferencia.jpg","time":6012},{"stimulus":"imagen_juego_interferencia.jpg","time":6513.000000000466},{"stimulus":"imagen_juego_interferencia.jpg","time":7014},{"stimulus":"imagen_juego_interferencia.jpg","time":7515},{"stimulus":"imagen_juego_interferencia.jpg","time":8016},{"stimulus":"imagen_juego_interferencia.jpg","time":8517},{"stimulus":"imagen_juego_interferencia.jpg","time":9018},{"stimulus":"imagen_juego_interferencia.jpg","time":9519},{"stimulus":"imagen_juego_interferencia.jpg","time":10020},{"stimulus":"imagen_juego_interferencia.jpg","time":10521},{"stimulus":"imagen_juego_interferencia.jpg","time":11022.000000000466},{"stimulus":"imagen_juego_interferencia.jpg","time":11523},{"stimulus":"imagen_juego_interferencia.jpg","time":12024},{"stimulus":"imagen_juego_interferencia.jpg","time":12525},{"stimulus":"imagen_juego_interferencia.jpg","time":13025},{"stimulus":"imagen_juego_interferencia.jpg","time":13526},{"stimulus":"imagen_juego_interferencia.jpg","time":14027},{"stimulus":"imagen_juego_interferencia.jpg","time":14527},{"stimulus":"imagen_juego_interferencia.jpg","time":15028},{"stimulus":"imagen_juego_interferencia.jpg","time":15529},{"stimulus":"imagen_juego_interferencia.jpg","time":16030},{"stimulus":"imagen_juego_interferencia.jpg","time":16531.000000000466},{"stimulus":"imagen_juego_interferencia.jpg","time":17032},{"stimulus":"imagen_juego_interferencia.jpg","time":17533},{"stimulus":"imagen_juego_interferencia.jpg","time":18035},{"stimulus":"imagen_juego_interferencia.jpg","time":18536},{"stimulus":"imagen_juego_interferencia.jpg","time":19037},{"stimulus":"imagen_juego_interferencia.jpg","time":19538},{"stimulus":"imagen_juego_interferencia.jpg","time":20039}],"response":[],"trial_type":"animation","trial_index":86,"time_elapsed":2720761,"internal_node_id":"0.0-13.0"},{"rt":10233,"responses":"{\"pregunta interferencia4\":\"contador\"}","question_order":"[0]","trial_type":"survey-multi-choice-cuest","trial_index":87,"time_elapsed":2730995,"internal_node_id":"0.0-14.0-0.0"},{"rt":7453,"responses":"{\"pregunta interferencia2\":\"saltamontes\"}","question_order":"[0]","trial_type":"survey-multi-choice-cuest","trial_index":88,"time_elapsed":2738449,"internal_node_id":"0.0-14.0-1.0"},{"rt":3588,"responses":"{\"pregunta interferencia1\":\"naranja\"}","question_order":"[0]","trial_type":"survey-multi-choice-cuest","trial_index":89,"time_elapsed":2742038,"internal_node_id":"0.0-14.0-2.0"},{"rt":3645.9999999995343,"responses":"{\"pregunta interferencia3\":\"aluminio\"}","question_order":"[0]","trial_type":"survey-multi-choice-cuest","trial_index":90,"time_elapsed":2745686,"internal_node_id":"0.0-14.0-3.0"},{"success":true,"trial_type":"fullscreen","trial_index":91,"time_elapsed":2746688,"internal_node_id":"0.0-15.0"}]