[{"rt":9250.280000036582,"stimulus":"<h1 style=\"color:red; margin-top: 3%;\">¡Bienvenido(a)!</h1><p style=\"text-align:left; justify-content:space-between; margin-right: 5%; margin-left: 5%; margin-top: 5%\"> Antes de empezar el estudio, necesitamos que nos confirmes que estás de acuerdo con participar. Recuerda que tu participación es 100% voluntaria y que lo único que te pedimos es responder lo mejor que puedas. Recuerda también que el estudio incluye:</p><ol style=\"text-align:left; justify-content:space-between; margin-right: 5%; margin-left: 5%;\"><li> un ejercicio de resolución de preguntas de selección múltiple (30’),</li><li>un cuestionario breve (5’),</li><li>un juego muy breve (3’),</li></ol><p style=\"text-align:left; justify-content:space-between; margin-right: 5%; margin-left: 5%;\">Si quieres participar, haz clic en “Acepto” luego de leer lo siguiente:<br></p><p style=\"text-align:left; justify-content:space-between; margin-right: 5%; margin-left: 5%;\">Acepto participar en el estudio “Estrategias de lectura y resolución de preguntas de selección múltiple”, en los términos aquí señalados:<br></p><p style=\"text-align:left; justify-content:space-between; margin-right: 5%; margin-left: 5%;\"><a href=\"http://ciae.uchile.cl/download.php?file=noticias/Asentimiento.pdf\" target=\"_blank\">Link a la hoja de información del Consentimiento.</a></p><p style=\"text-align:left; justify-content:space-between; margin-right: 5%; margin-left: 5%;\">Declaro que he leído (o se me ha leído) y (he) comprendido, las condiciones de mi participación en este estudio. He tenido la oportunidad de hacer preguntas y éstas han sido respondidas. No tengo dudas al respecto.</p>","response":0,"condicion_MCQ":6,"condicion_INTER":6,"numero_participante":54,"numero_version":2,"dimx":1366,"dimy":768,"color_profundidad":24,"pixel_profundidad":24,"Browser":"Google Chrome","trial_type":"html-button-response","trial_index":0,"time_elapsed":9252,"internal_node_id":"0.0-0.0"},{"success":true,"trial_type":"fullscreen","trial_index":1,"time_elapsed":24558,"internal_node_id":"0.0-1.0"},{"rt":46644.27499996964,"responses":"{\"Nombres\":\"Martina Carolina \",\"Apellidos\":\"Aranda Stuardo\",\"Edad\":\"19\",\"Sexo\":\"mujer\",\"Curso\":\"egresada\",\"Colegio\":\"compañia de maria apoquindo\",\"Contacto\":\"marti.arandastuardo.22@gmail.com\"}","trial_type":"survey-text","trial_index":2,"time_elapsed":71214,"internal_node_id":"0.0-2.0"},{"success":true,"timeout":false,"failed_images":[],"failed_audio":[],"failed_video":[],"trial_type":"preload","trial_index":3,"time_elapsed":71439,"internal_node_id":"0.0-3.0"},{"rt":1975.3550000023097,"stimulus":"<h1 style:\"margin-top: 5%;\">Ejercicios de Comprensión de Lectura de la Universidad de Chile</h1><p style=\"font-size: 120%;\">En esta actividad, debes responder 30 preguntas de selección múltiple. Cada pregunta presenta 3 respuestas alternativas, pero sólo una de ellas es correcta. Por lo tanto, debes escoger una sola alternativa para cada pregunta. Además, debes reportar qué tan seguro(a) estás de la respuesta que das, con un:</p><ol style=\"font-size: 120%;text-align:left;margin-left: 40%;\"><li>No estoy seguro(a) para nada</li><li>No estoy muy seguro(a)</li><li>Estoy bastante seguro(a)</li><li>Estoy totalmente seguro(a)</li></ol><p style=\"font-size: 120%;\">Por favor lee bien los enunciados antes de responder. ¡Éxito!</p>","response":0,"trial_type":"html-button-response","trial_index":4,"time_elapsed":73415,"internal_node_id":"0.0-4.0"},{"rt":26036.685000057332,"responses":"{\"pregunta22\":\"a) Bomberos debería tener acceso a un seguro médico, al que pueda recurrir en caso de accidente. \"}","question_order":"[0]","trial_type":"survey-multi-choice","trial_index":5,"time_elapsed":99452,"internal_node_id":"0.0-5.0-0.0"},{"rt":2618.0099999764934,"response":{"pregunta22 likert":3},"question_order":[0],"trial_type":"survey-likert","trial_index":6,"time_elapsed":102071,"internal_node_id":"0.0-5.0-1.0"},{"rt":51982.345000025816,"responses":"{\"pregunta30\":\"c) para el mexicano, la muerte es cotidiana. \"}","question_order":"[0]","trial_type":"survey-multi-choice","trial_index":7,"time_elapsed":154055,"internal_node_id":"0.0-5.0-2.0"},{"rt":1510.3349999990314,"response":{"pregunta30 likert":1},"question_order":[0],"trial_type":"survey-likert","trial_index":8,"time_elapsed":155567,"internal_node_id":"0.0-5.0-3.0"},{"rt":14772.355000022799,"responses":"{\"pregunta5\":\"a) La escritura plasma los mejores momentos de los viajes. \"}","question_order":"[0]","trial_type":"survey-multi-choice","trial_index":9,"time_elapsed":170341,"internal_node_id":"0.0-5.0-4.0"},{"rt":1983.5949999978766,"response":{"pregunta5 likert":2},"question_order":[0],"trial_type":"survey-likert","trial_index":10,"time_elapsed":172325,"internal_node_id":"0.0-5.0-5.0"},{"rt":7737.280000001192,"responses":"{\"pregunta8\":\"b) Dar a conocer al ganador del premio Cervantes. \"}","question_order":"[0]","trial_type":"survey-multi-choice","trial_index":11,"time_elapsed":180064,"internal_node_id":"0.0-5.0-6.0"},{"rt":2376.579999923706,"response":{"pregunta8 likert":2},"question_order":[0],"trial_type":"survey-likert","trial_index":12,"time_elapsed":182442,"internal_node_id":"0.0-5.0-7.0"},{"rt":59628.735000034794,"responses":"{\"pregunta10\":\"b) La biónica es una disciplina que aprovecha las condiciones del entorno. \"}","question_order":"[0]","trial_type":"survey-multi-choice","trial_index":13,"time_elapsed":242072,"internal_node_id":"0.0-5.0-8.0"},{"rt":1944.1349999979138,"response":{"pregunta10 likert":2},"question_order":[0],"trial_type":"survey-likert","trial_index":14,"time_elapsed":244018,"internal_node_id":"0.0-5.0-9.0"},{"rt":51869.01999998372,"responses":"{\"pregunta20\":\"a) sólo las leyes bastan para gobernarse. \"}","question_order":"[0]","trial_type":"survey-multi-choice","trial_index":15,"time_elapsed":295888,"internal_node_id":"0.0-5.0-10.0"},{"rt":2888.6250000214204,"response":{"pregunta20 likert":2},"question_order":[0],"trial_type":"survey-likert","trial_index":16,"time_elapsed":298777,"internal_node_id":"0.0-5.0-11.0"},{"rt":22726.685000001453,"responses":"{\"pregunta2\":\"a) A la relación entre sociedad y constitución social. \"}","question_order":"[0]","trial_type":"survey-multi-choice","trial_index":17,"time_elapsed":321505,"internal_node_id":"0.0-5.0-12.0"},{"rt":1812.290000030771,"response":{"pregunta2 likert":0},"question_order":[0],"trial_type":"survey-likert","trial_index":18,"time_elapsed":323319,"internal_node_id":"0.0-5.0-13.0"},{"rt":37696.64999993984,"responses":"{\"pregunta15\":\"a) religiosos y precavidos. \"}","question_order":"[0]","trial_type":"survey-multi-choice","trial_index":19,"time_elapsed":361017,"internal_node_id":"0.0-5.0-14.0"},{"rt":2598.8550001056865,"response":{"pregunta15 likert":2},"question_order":[0],"trial_type":"survey-likert","trial_index":20,"time_elapsed":363617,"internal_node_id":"0.0-5.0-15.0"},{"rt":30674.38000009861,"responses":"{\"pregunta1\":\"a) Aportan informaciones con las que se reconstruye el personaje dentro de un relato. \"}","question_order":"[0]","trial_type":"survey-multi-choice","trial_index":21,"time_elapsed":394293,"internal_node_id":"0.0-5.0-16.0"},{"rt":3039.5849999040365,"response":{"pregunta1 likert":1},"question_order":[0],"trial_type":"survey-likert","trial_index":22,"time_elapsed":397334,"internal_node_id":"0.0-5.0-17.0"},{"rt":40294.25999999512,"responses":"{\"pregunta23\":\"b) A la influencia de grupos que rechazaban su música. \"}","question_order":"[0]","trial_type":"survey-multi-choice","trial_index":23,"time_elapsed":437630,"internal_node_id":"0.0-5.0-18.0"},{"rt":2417.2650000546128,"response":{"pregunta23 likert":2},"question_order":[0],"trial_type":"survey-likert","trial_index":24,"time_elapsed":440048,"internal_node_id":"0.0-5.0-19.0"},{"rt":41234.49499998242,"responses":"{\"pregunta3\":\"a) El inicio de la civilización china. \"}","question_order":"[0]","trial_type":"survey-multi-choice","trial_index":25,"time_elapsed":481284,"internal_node_id":"0.0-5.0-20.0"},{"rt":2406.7150000482798,"response":{"pregunta3 likert":1},"question_order":[0],"trial_type":"survey-likert","trial_index":26,"time_elapsed":483692,"internal_node_id":"0.0-5.0-21.0"},{"rt":11221.02499997709,"responses":"{\"pregunta21\":\"c) el uranio es el elemento natural con el mayor número de protones en el núcleo. \"}","question_order":"[0]","trial_type":"survey-multi-choice","trial_index":27,"time_elapsed":494915,"internal_node_id":"0.0-5.0-22.0"},{"rt":2150.6550000049174,"response":{"pregunta21 likert":3},"question_order":[0],"trial_type":"survey-likert","trial_index":28,"time_elapsed":497067,"internal_node_id":"0.0-5.0-23.0"},{"rt":48208.16499995999,"responses":"{\"pregunta11\":\"a) Presentar positivamente las diversas tendencias del diseño de interiores a través de un comentario. \"}","question_order":"[0]","trial_type":"survey-multi-choice","trial_index":29,"time_elapsed":545277,"internal_node_id":"0.0-5.0-24.0"},{"rt":2125.1049999846146,"response":{"pregunta11 likert":2},"question_order":[0],"trial_type":"survey-likert","trial_index":30,"time_elapsed":547403,"internal_node_id":"0.0-5.0-25.0"},{"rt":35517.61500001885,"responses":"{\"pregunta28\":\"b) El derecho a informar y el derecho a la privacidad son inconciliables. \"}","question_order":"[0]","trial_type":"survey-multi-choice","trial_index":31,"time_elapsed":582922,"internal_node_id":"0.0-5.0-26.0"},{"rt":4694.690000033006,"response":{"pregunta28 likert":2},"question_order":[0],"trial_type":"survey-likert","trial_index":32,"time_elapsed":587618,"internal_node_id":"0.0-5.0-27.0"},{"rt":9257.615000009537,"responses":"{\"pregunta17\":\"a) Homenajear a quienes murieron. \"}","question_order":"[0]","trial_type":"survey-multi-choice","trial_index":33,"time_elapsed":596877,"internal_node_id":"0.0-5.0-28.0"},{"rt":4006.304999929853,"response":{"pregunta17 likert":3},"question_order":[0],"trial_type":"survey-likert","trial_index":34,"time_elapsed":600884,"internal_node_id":"0.0-5.0-29.0"},{"rt":50925.4400000209,"responses":"{\"pregunta19\":\"b) Las personas que leen son más flexibles en sus ideas y autónomas en su accionar. \"}","question_order":"[0]","trial_type":"survey-multi-choice","trial_index":35,"time_elapsed":651811,"internal_node_id":"0.0-5.0-30.0"},{"rt":1700.7950000697747,"response":{"pregunta19 likert":2},"question_order":[0],"trial_type":"survey-likert","trial_index":36,"time_elapsed":653513,"internal_node_id":"0.0-5.0-31.0"},{"rt":41307.07500001881,"responses":"{\"pregunta4\":\"a) En la literatura como en la vida, todo es metáfora. \"}","question_order":"[0]","trial_type":"survey-multi-choice","trial_index":37,"time_elapsed":694821,"internal_node_id":"0.0-5.0-32.0"},{"rt":1469.4300000555813,"response":{"pregunta4 likert":2},"question_order":[0],"trial_type":"survey-likert","trial_index":38,"time_elapsed":696291,"internal_node_id":"0.0-5.0-33.0"},{"rt":54478.015000000596,"responses":"{\"pregunta18\":\"a) A la inutilidad de tanto esfuerzo si el objetivo es el reposo. \"}","question_order":"[0]","trial_type":"survey-multi-choice","trial_index":39,"time_elapsed":750771,"internal_node_id":"0.0-5.0-34.0"},{"rt":2507.285000057891,"response":{"pregunta18 likert":2},"question_order":[0],"trial_type":"survey-likert","trial_index":40,"time_elapsed":753279,"internal_node_id":"0.0-5.0-35.0"},{"rt":63816.975000081584,"responses":"{\"pregunta25\":\"c) llevan un control grupal de su embarazo. \"}","question_order":"[0]","trial_type":"survey-multi-choice","trial_index":41,"time_elapsed":817098,"internal_node_id":"0.0-5.0-36.0"},{"rt":1892.9250000510365,"response":{"pregunta25 likert":0},"question_order":[0],"trial_type":"survey-likert","trial_index":42,"time_elapsed":818992,"internal_node_id":"0.0-5.0-37.0"},{"rt":9419.284999952652,"responses":"{\"pregunta14\":\"a) la persistencia de la melancolía y la desesperanza. \"}","question_order":"[0]","trial_type":"survey-multi-choice","trial_index":43,"time_elapsed":828413,"internal_node_id":"0.0-5.0-38.0"},{"rt":2709.61499994155,"response":{"pregunta14 likert":1},"question_order":[0],"trial_type":"survey-likert","trial_index":44,"time_elapsed":831123,"internal_node_id":"0.0-5.0-39.0"},{"rt":50523.03000004031,"responses":"{\"pregunta16\":\"c) Deleitar a sus receptores por medio de la belleza y el confort. \"}","question_order":"[0]","trial_type":"survey-multi-choice","trial_index":45,"time_elapsed":881648,"internal_node_id":"0.0-5.0-40.0"},{"rt":3559.385000029579,"response":{"pregunta16 likert":3},"question_order":[0],"trial_type":"survey-likert","trial_index":46,"time_elapsed":885208,"internal_node_id":"0.0-5.0-41.0"},{"rt":96701.7249999335,"responses":"{\"pregunta29\":\"b) el jardinero estará muerto al día siguiente. \"}","question_order":"[0]","trial_type":"survey-multi-choice","trial_index":47,"time_elapsed":981911,"internal_node_id":"0.0-5.0-42.0"},{"rt":2766.3399999728426,"response":{"pregunta29 likert":1},"question_order":[0],"trial_type":"survey-likert","trial_index":48,"time_elapsed":984679,"internal_node_id":"0.0-5.0-43.0"},{"rt":94799.37000002246,"responses":"{\"pregunta13\":\"b) El ser humano se comporta de acuerdo con las circunstancias. \"}","question_order":"[0]","trial_type":"survey-multi-choice","trial_index":49,"time_elapsed":1079479,"internal_node_id":"0.0-5.0-44.0"},{"rt":2623.3050000155345,"response":{"pregunta13 likert":2},"question_order":[0],"trial_type":"survey-likert","trial_index":50,"time_elapsed":1082104,"internal_node_id":"0.0-5.0-45.0"},{"rt":45758.46500007901,"responses":"{\"pregunta6\":\"c) Las personas escandalosas constantemente critican a la Academia. \"}","question_order":"[0]","trial_type":"survey-multi-choice","trial_index":51,"time_elapsed":1127863,"internal_node_id":"0.0-5.0-46.0"},{"rt":4840.410000062548,"response":{"pregunta6 likert":0},"question_order":[0],"trial_type":"survey-likert","trial_index":52,"time_elapsed":1132705,"internal_node_id":"0.0-5.0-47.0"},{"rt":23666.105000069365,"responses":"{\"pregunta27\":\"b) El TLC causará una completa transformación de la economía chilena. \"}","question_order":"[0]","trial_type":"survey-multi-choice","trial_index":53,"time_elapsed":1156373,"internal_node_id":"0.0-5.0-48.0"},{"rt":2204.899999895133,"response":{"pregunta27 likert":2},"question_order":[0],"trial_type":"survey-likert","trial_index":54,"time_elapsed":1158579,"internal_node_id":"0.0-5.0-49.0"},{"rt":51113.89999999665,"responses":"{\"pregunta24\":\"a) El receptor es habitualmente pasivo frente a la publicidad. \"}","question_order":"[0]","trial_type":"survey-multi-choice","trial_index":55,"time_elapsed":1209694,"internal_node_id":"0.0-5.0-50.0"},{"rt":3069.065000046976,"response":{"pregunta24 likert":2},"question_order":[0],"trial_type":"survey-likert","trial_index":56,"time_elapsed":1212764,"internal_node_id":"0.0-5.0-51.0"},{"rt":89927.43999999948,"responses":"{\"pregunta12\":\"a) se da como existente, y sólo se discute su relación con el cuerpo. \"}","question_order":"[0]","trial_type":"survey-multi-choice","trial_index":57,"time_elapsed":1302692,"internal_node_id":"0.0-5.0-52.0"},{"rt":2806.6699999617413,"response":{"pregunta12 likert":2},"question_order":[0],"trial_type":"survey-likert","trial_index":58,"time_elapsed":1305500,"internal_node_id":"0.0-5.0-53.0"},{"rt":58562.10500001907,"responses":"{\"pregunta7\":\"a) La imprenta y el papel han permitido el desarrollo de la civilización y la conservación de su cultura, y ambos son inventos chinos. \"}","question_order":"[0]","trial_type":"survey-multi-choice","trial_index":59,"time_elapsed":1364065,"internal_node_id":"0.0-5.0-54.0"},{"rt":2406.6449999809265,"response":{"pregunta7 likert":3},"question_order":[0],"trial_type":"survey-likert","trial_index":60,"time_elapsed":1366473,"internal_node_id":"0.0-5.0-55.0"},{"rt":235709.0400001034,"responses":"{\"pregunta26\":\"c) para Aristóteles la virtud estaba en el justo equilibrio. \"}","question_order":"[0]","trial_type":"survey-multi-choice","trial_index":61,"time_elapsed":1602183,"internal_node_id":"0.0-5.0-56.0"},{"rt":2955.364999943413,"response":{"pregunta26 likert":1},"question_order":[0],"trial_type":"survey-likert","trial_index":62,"time_elapsed":1605140,"internal_node_id":"0.0-5.0-57.0"},{"rt":39477.04500006512,"responses":"{\"pregunta9\":\"c) pueden rendir exámenes para optar y obtener títulos profesionales igual que los hombres. \"}","question_order":"[0]","trial_type":"survey-multi-choice","trial_index":63,"time_elapsed":1644619,"internal_node_id":"0.0-5.0-58.0"},{"rt":1317.5150000024587,"response":{"pregunta9 likert":2},"question_order":[0],"trial_type":"survey-likert","trial_index":64,"time_elapsed":1645938,"internal_node_id":"0.0-5.0-59.0"}]