[{"rt":51881.400000303984,"stimulus":"<h1 style=\"color:red; margin-top: 3%;\">¡Bienvenido(a)!</h1><p style=\"text-align:left; justify-content:space-between; margin-right: 5%; margin-left: 5%; margin-top: 5%\"> Antes de empezar el estudio, necesitamos que nos confirmes que estás de acuerdo con participar. Recuerda que tu participación es 100% voluntaria y que lo único que te pedimos es responder lo mejor que puedas. Recuerda también que el estudio incluye:</p><ol style=\"text-align:left; justify-content:space-between; margin-right: 5%; margin-left: 5%;\"><li> un ejercicio de resolución de preguntas de selección múltiple (30’),</li><li>un cuestionario breve (5’),</li><li>un juego muy breve (3’),</li></ol><p style=\"text-align:left; justify-content:space-between; margin-right: 5%; margin-left: 5%;\">Si quieres participar, haz clic en “Acepto” luego de leer lo siguiente:<br></p><p style=\"text-align:left; justify-content:space-between; margin-right: 5%; margin-left: 5%;\">Acepto participar en el estudio “Estrategias de lectura y resolución de preguntas de selección múltiple”, en los términos aquí señalados:<br></p><p style=\"text-align:left; justify-content:space-between; margin-right: 5%; margin-left: 5%;\"><a href=\"http://ciae.uchile.cl/download.php?file=noticias/Asentimiento.pdf\" target=\"_blank\">Link a la hoja de información del Consentimiento.</a></p><p style=\"text-align:left; justify-content:space-between; margin-right: 5%; margin-left: 5%;\">Declaro que he leído (o se me ha leído) y (he) comprendido, las condiciones de mi participación en este estudio. He tenido la oportunidad de hacer preguntas y éstas han sido respondidas. No tengo dudas al respecto.</p>","response":0,"condicion_MCQ":3,"condicion_INTER":9,"numero_participante":33,"numero_version":1,"dimx":1366,"dimy":768,"color_profundidad":24,"pixel_profundidad":24,"Browser":"Google Chrome","trial_type":"html-button-response","trial_index":0,"time_elapsed":51890,"internal_node_id":"0.0-0.0"},{"success":true,"trial_type":"fullscreen","trial_index":1,"time_elapsed":63266,"internal_node_id":"0.0-1.0"},{"rt":104496.78999977186,"responses":"{\"Nombres\":\"javiera valentina\",\"Apellidos\":\"molina bustos\",\"Edad\":\"19\",\"Sexo\":\"mujer\",\"Curso\":\"primer año de psicología\",\"Colegio\":\"universidad andres bello\",\"Contacto\":\"javierax71@gmail.com\"}","trial_type":"survey-text","trial_index":2,"time_elapsed":167776,"internal_node_id":"0.0-2.0"},{"success":true,"timeout":false,"failed_images":[],"failed_audio":[],"failed_video":[],"trial_type":"preload","trial_index":3,"time_elapsed":172169,"internal_node_id":"0.0-3.0"},{"rt":39611.0299997963,"stimulus":"<h1 style:\"margin-top: 5%;\">Ejercicios de Comprensión de Lectura de la Universidad de Chile</h1><p style=\"font-size: 120%;\">En esta actividad, debes responder 30 preguntas de selección múltiple. Cada pregunta presenta 3 respuestas alternativas, pero sólo una de ellas es correcta. Por lo tanto, debes escoger una sola alternativa para cada pregunta. Además, debes reportar qué tan seguro(a) estás de la respuesta que das, con un:</p><ol style=\"font-size: 120%;text-align:left;margin-left: 40%;\"><li>No estoy seguro(a) para nada</li><li>No estoy muy seguro(a)</li><li>Estoy bastante seguro(a)</li><li>Estoy totalmente seguro(a)</li></ol><p style=\"font-size: 120%;\">Por favor lee bien los enunciados antes de responder. ¡Éxito!</p>","response":0,"trial_type":"html-button-response","trial_index":4,"time_elapsed":211781,"internal_node_id":"0.0-4.0"},{"rt":205979.735000059,"responses":"{\"pregunta16\":\"b) Provocar el deseo de la adquisición vertiginosa. \"}","question_order":"[0]","trial_type":"survey-multi-choice","trial_index":5,"time_elapsed":417764,"internal_node_id":"0.0-5.0-0.0"},{"rt":6501.244999933988,"response":{"pregunta16 likert":1},"question_order":[0],"trial_type":"survey-likert","trial_index":6,"time_elapsed":424267,"internal_node_id":"0.0-5.0-1.0"},{"rt":127116.26499984413,"responses":"{\"pregunta27\":\"a) El TLC causará una completa transformación de la economía chilena. \"}","question_order":"[0]","trial_type":"survey-multi-choice","trial_index":7,"time_elapsed":551384,"internal_node_id":"0.0-5.0-2.0"},{"rt":2950.7900001481175,"response":{"pregunta27 likert":2},"question_order":[0],"trial_type":"survey-likert","trial_index":8,"time_elapsed":554337,"internal_node_id":"0.0-5.0-3.0"},{"rt":103412.00000001118,"responses":"{\"pregunta23\":\"b) A la influencia de grupos que rechazaban su música. \"}","question_order":"[0]","trial_type":"survey-multi-choice","trial_index":9,"time_elapsed":657753,"internal_node_id":"0.0-5.0-4.0"},{"rt":3597.800000105053,"response":{"pregunta23 likert":2},"question_order":[0],"trial_type":"survey-likert","trial_index":10,"time_elapsed":661353,"internal_node_id":"0.0-5.0-5.0"},{"rt":174060.1549996063,"responses":"{\"pregunta3\":\"a) El inicio de la civilización china. \"}","question_order":"[0]","trial_type":"survey-multi-choice","trial_index":11,"time_elapsed":835414,"internal_node_id":"0.0-5.0-6.0"},{"rt":2814.089999999851,"response":{"pregunta3 likert":1},"question_order":[0],"trial_type":"survey-likert","trial_index":12,"time_elapsed":838230,"internal_node_id":"0.0-5.0-7.0"},{"rt":206163.82999997586,"responses":"{\"pregunta8\":\"b) Dar a conocer al ganador del premio Cervantes. \"}","question_order":"[0]","trial_type":"survey-multi-choice","trial_index":13,"time_elapsed":1044396,"internal_node_id":"0.0-5.0-8.0"},{"rt":3357.944999821484,"response":{"pregunta8 likert":1},"question_order":[0],"trial_type":"survey-likert","trial_index":14,"time_elapsed":1047756,"internal_node_id":"0.0-5.0-9.0"},{"rt":97364.9600003846,"responses":"{\"pregunta2\":\"c) A la relación entre pensamiento y estructura social. \"}","question_order":"[0]","trial_type":"survey-multi-choice","trial_index":15,"time_elapsed":1145123,"internal_node_id":"0.0-5.0-10.0"},{"rt":3501.9449996761978,"response":{"pregunta2 likert":2},"question_order":[0],"trial_type":"survey-likert","trial_index":16,"time_elapsed":1148626,"internal_node_id":"0.0-5.0-11.0"},{"rt":98966.31499985233,"responses":"{\"pregunta14\":\"c) preparar los recuerdos del mañana. \"}","question_order":"[0]","trial_type":"survey-multi-choice","trial_index":17,"time_elapsed":1247595,"internal_node_id":"0.0-5.0-12.0"},{"rt":6996.565000154078,"response":{"pregunta14 likert":2},"question_order":[0],"trial_type":"survey-likert","trial_index":18,"time_elapsed":1254594,"internal_node_id":"0.0-5.0-13.0"},{"rt":173003.78999998793,"responses":"{\"pregunta10\":\"a) La biónica puede asegurar nuestra existencia mediante la aplicación de técnicas copiadas de la naturaleza. \"}","question_order":"[0]","trial_type":"survey-multi-choice","trial_index":19,"time_elapsed":1427599,"internal_node_id":"0.0-5.0-14.0"},{"rt":14334.050000179559,"response":{"pregunta10 likert":1},"question_order":[0],"trial_type":"survey-likert","trial_index":20,"time_elapsed":1441935,"internal_node_id":"0.0-5.0-15.0"},{"rt":231179.49000000954,"responses":"{\"pregunta4\":\"b) En la literatura como en la vida, lo importante son las preguntas. \"}","question_order":"[0]","trial_type":"survey-multi-choice","trial_index":21,"time_elapsed":1673117,"internal_node_id":"0.0-5.0-16.0"},{"rt":2830.1849998533726,"response":{"pregunta4 likert":1},"question_order":[0],"trial_type":"survey-likert","trial_index":22,"time_elapsed":1675949,"internal_node_id":"0.0-5.0-17.0"},{"rt":115364.54499978572,"responses":"{\"pregunta20\":\"b) el mejor emperador es el que está muerto. \"}","question_order":"[0]","trial_type":"survey-multi-choice","trial_index":23,"time_elapsed":1791315,"internal_node_id":"0.0-5.0-18.0"},{"rt":5437.999999616295,"response":{"pregunta20 likert":2},"question_order":[0],"trial_type":"survey-likert","trial_index":24,"time_elapsed":1796755,"internal_node_id":"0.0-5.0-19.0"},{"rt":95029.49000010267,"responses":"{\"pregunta28\":\"a) Se necesita un marco legal para delimitar lo público y lo privado en materia informativa. \"}","question_order":"[0]","trial_type":"survey-multi-choice","trial_index":25,"time_elapsed":1891786,"internal_node_id":"0.0-5.0-20.0"},{"rt":2526.039999909699,"response":{"pregunta28 likert":2},"question_order":[0],"trial_type":"survey-likert","trial_index":26,"time_elapsed":1894315,"internal_node_id":"0.0-5.0-21.0"},{"rt":128395.41500015184,"responses":"{\"pregunta22\":\"b) Por el riesgo que corren diariamente, los bomberos deberían tener mejores condiciones de seguridad. \"}","question_order":"[0]","trial_type":"survey-multi-choice","trial_index":27,"time_elapsed":2022713,"internal_node_id":"0.0-5.0-22.0"},{"rt":2982.185000088066,"response":{"pregunta22 likert":1},"question_order":[0],"trial_type":"survey-likert","trial_index":28,"time_elapsed":2025697,"internal_node_id":"0.0-5.0-23.0"},{"rt":259675.30500004068,"responses":"{\"pregunta9\":\"a) deben ser capaces de mantenerse económicamente de la misma forma que los hombres. \"}","question_order":"[0]","trial_type":"survey-multi-choice","trial_index":29,"time_elapsed":2285374,"internal_node_id":"0.0-5.0-24.0"},{"rt":2477.734999731183,"response":{"pregunta9 likert":1},"question_order":[0],"trial_type":"survey-likert","trial_index":30,"time_elapsed":2287854,"internal_node_id":"0.0-5.0-25.0"},{"rt":62645.375000312924,"responses":"{\"pregunta30\":\"a) la muerte es distinta en las grandes ciudades. \"}","question_order":"[0]","trial_type":"survey-multi-choice","trial_index":31,"time_elapsed":2350501,"internal_node_id":"0.0-5.0-26.0"},{"rt":3382.239999715239,"response":{"pregunta30 likert":2},"question_order":[0],"trial_type":"survey-likert","trial_index":32,"time_elapsed":2353885,"internal_node_id":"0.0-5.0-27.0"},{"rt":101501.33999995887,"responses":"{\"pregunta29\":\"b) el jardinero estará muerto al día siguiente. \"}","question_order":"[0]","trial_type":"survey-multi-choice","trial_index":33,"time_elapsed":2455388,"internal_node_id":"0.0-5.0-28.0"},{"rt":2733.93000010401,"response":{"pregunta29 likert":1},"question_order":[0],"trial_type":"survey-likert","trial_index":34,"time_elapsed":2458124,"internal_node_id":"0.0-5.0-29.0"},{"rt":121293.00499986857,"responses":"{\"pregunta21\":\"b) a partir de la manipulación del núcleo se han creado elementos químicos naturales. \"}","question_order":"[0]","trial_type":"survey-multi-choice","trial_index":35,"time_elapsed":2579419,"internal_node_id":"0.0-5.0-30.0"},{"rt":5453.825000207871,"response":{"pregunta21 likert":1},"question_order":[0],"trial_type":"survey-likert","trial_index":36,"time_elapsed":2584874,"internal_node_id":"0.0-5.0-31.0"},{"rt":165380.32500026748,"responses":"{\"pregunta15\":\"b) religiosos y precavidos. \"}","question_order":"[0]","trial_type":"survey-multi-choice","trial_index":37,"time_elapsed":2750256,"internal_node_id":"0.0-5.0-32.0"},{"rt":2253.710000310093,"response":{"pregunta15 likert":1},"question_order":[0],"trial_type":"survey-likert","trial_index":38,"time_elapsed":2752512,"internal_node_id":"0.0-5.0-33.0"},{"rt":170332.23000029102,"responses":"{\"pregunta25\":\"a) sufren dolores de espalda. \"}","question_order":"[0]","trial_type":"survey-multi-choice","trial_index":39,"time_elapsed":2922846,"internal_node_id":"0.0-5.0-34.0"},{"rt":2102.399999741465,"response":{"pregunta25 likert":2},"question_order":[0],"trial_type":"survey-likert","trial_index":40,"time_elapsed":2924951,"internal_node_id":"0.0-5.0-35.0"},{"rt":268395.070000086,"responses":"{\"pregunta11\":\"c) Promover la asistencia a un evento específico de decoración a través de una atractiva descripción. \"}","question_order":"[0]","trial_type":"survey-multi-choice","trial_index":41,"time_elapsed":3193347,"internal_node_id":"0.0-5.0-36.0"},{"rt":5526.1950003914535,"response":{"pregunta11 likert":1},"question_order":[0],"trial_type":"survey-likert","trial_index":42,"time_elapsed":3198875,"internal_node_id":"0.0-5.0-37.0"},{"rt":160132.41500034928,"responses":"{\"pregunta24\":\"a) El receptor es habitualmente pasivo frente a la publicidad. \"}","question_order":"[0]","trial_type":"survey-multi-choice","trial_index":43,"time_elapsed":3359009,"internal_node_id":"0.0-5.0-38.0"},{"rt":2837.729999795556,"response":{"pregunta24 likert":1},"question_order":[0],"trial_type":"survey-likert","trial_index":44,"time_elapsed":3361849,"internal_node_id":"0.0-5.0-39.0"},{"rt":233123.82500013337,"responses":"{\"pregunta26\":\"a) el sujeto sufre con su modo de vida. \"}","question_order":"[0]","trial_type":"survey-multi-choice","trial_index":45,"time_elapsed":3594975,"internal_node_id":"0.0-5.0-40.0"},{"rt":2493.7100000679493,"response":{"pregunta26 likert":1},"question_order":[0],"trial_type":"survey-likert","trial_index":46,"time_elapsed":3597470,"internal_node_id":"0.0-5.0-41.0"},{"rt":178980.42999999598,"responses":"{\"pregunta18\":\"c) Al premio merecido después de tantos esfuerzos. \"}","question_order":"[0]","trial_type":"survey-multi-choice","trial_index":47,"time_elapsed":3776453,"internal_node_id":"0.0-5.0-42.0"},{"rt":2758.1750000827014,"response":{"pregunta18 likert":1},"question_order":[0],"trial_type":"survey-likert","trial_index":48,"time_elapsed":3779213,"internal_node_id":"0.0-5.0-43.0"},{"rt":246930.8650000021,"responses":"{\"pregunta7\":\"a) La imprenta y el papel han permitido el desarrollo de la civilización y la conservación de su cultura, y ambos son inventos chinos. \"}","question_order":"[0]","trial_type":"survey-multi-choice","trial_index":49,"time_elapsed":4026146,"internal_node_id":"0.0-5.0-44.0"},{"rt":2757.865000050515,"response":{"pregunta7 likert":1},"question_order":[0],"trial_type":"survey-likert","trial_index":50,"time_elapsed":4028906,"internal_node_id":"0.0-5.0-45.0"},{"rt":112325.04000002518,"responses":"{\"pregunta13\":\"b) El ser humano se comporta de acuerdo con las circunstancias. \"}","question_order":"[0]","trial_type":"survey-multi-choice","trial_index":51,"time_elapsed":4141232,"internal_node_id":"0.0-5.0-46.0"},{"rt":3101.8849997781217,"response":{"pregunta13 likert":2},"question_order":[0],"trial_type":"survey-likert","trial_index":52,"time_elapsed":4144336,"internal_node_id":"0.0-5.0-47.0"},{"rt":175380.06500015035,"responses":"{\"pregunta1\":\"a) Aportan informaciones con las que se reconstruye el personaje dentro de un relato. \"}","question_order":"[0]","trial_type":"survey-multi-choice","trial_index":53,"time_elapsed":4319719,"internal_node_id":"0.0-5.0-48.0"},{"rt":2396.794999949634,"response":{"pregunta1 likert":2},"question_order":[0],"trial_type":"survey-likert","trial_index":54,"time_elapsed":4322118,"internal_node_id":"0.0-5.0-49.0"},{"rt":164956.25500008464,"responses":"{\"pregunta12\":\"a) se da como existente, y sólo se discute su relación con el cuerpo. \"}","question_order":"[0]","trial_type":"survey-multi-choice","trial_index":55,"time_elapsed":4487076,"internal_node_id":"0.0-5.0-50.0"},{"rt":3230.135000310838,"response":{"pregunta12 likert":2},"question_order":[0],"trial_type":"survey-likert","trial_index":56,"time_elapsed":4490308,"internal_node_id":"0.0-5.0-51.0"},{"rt":248682.66499973834,"responses":"{\"pregunta17\":\"c) Atraer a los turistas. \"}","question_order":"[0]","trial_type":"survey-multi-choice","trial_index":57,"time_elapsed":4738993,"internal_node_id":"0.0-5.0-52.0"},{"rt":3038.335000164807,"response":{"pregunta17 likert":1},"question_order":[0],"trial_type":"survey-likert","trial_index":58,"time_elapsed":4742034,"internal_node_id":"0.0-5.0-53.0"},{"rt":208969.6249999106,"responses":"{\"pregunta6\":\"b) Las voces extranjeras viven una tensión entre la aceptación y el rechazo. \"}","question_order":"[0]","trial_type":"survey-multi-choice","trial_index":59,"time_elapsed":4951007,"internal_node_id":"0.0-5.0-54.0"},{"rt":3086.1200001090765,"response":{"pregunta6 likert":1},"question_order":[0],"trial_type":"survey-likert","trial_index":60,"time_elapsed":4954095,"internal_node_id":"0.0-5.0-55.0"},{"rt":72389.13500029594,"responses":"{\"pregunta19\":\"b) Las personas que leen son más flexibles en sus ideas y autónomas en su accionar. \"}","question_order":"[0]","trial_type":"survey-multi-choice","trial_index":61,"time_elapsed":5026486,"internal_node_id":"0.0-5.0-56.0"},{"rt":1997.6900001056492,"response":{"pregunta19 likert":2},"question_order":[0],"trial_type":"survey-likert","trial_index":62,"time_elapsed":5028486,"internal_node_id":"0.0-5.0-57.0"},{"rt":218707.84000027925,"responses":"{\"pregunta5\":\"a) En los viajes es esencial el momento mismo de la escritura. \"}","question_order":"[0]","trial_type":"survey-multi-choice","trial_index":63,"time_elapsed":5247196,"internal_node_id":"0.0-5.0-58.0"},{"rt":2765.980000142008,"response":{"pregunta5 likert":1},"question_order":[0],"trial_type":"survey-likert","trial_index":64,"time_elapsed":5249963,"internal_node_id":"0.0-5.0-59.0"},{"rt":3451.3050001114607,"stimulus":"<p style=\"font-size: 120%\">Gracias por completar esta etapa del estudio. Ahora te invitamos a responder el cuestionario.<br><br></p>","response":0,"trial_type":"html-button-response","trial_index":65,"time_elapsed":5253420,"internal_node_id":"0.0-6.0"},{"rt":25485.925000160933,"stimulus":"<h1 style=\"margin-top: 5%\">Cuestionario para la Evaluación de Metas Académicas</h1><p style=\"font-size: 120%; margin-left: 3%; margin-top: 5%\">Este es un cuestionario que permite conocer cuáles son los principales motivos por los que los estudiantes se esfuerzan en su trabajo académico. A continuación, se te presentarán una serie de afirmaciones acerca de los motivos que puedes tener para estudiar.<br>Te pedimos que contestes a dichas afirmaciones reflexionando sobre el contenido de cada una de ellas, que, aunque te parezcan semejantes, en realidad, no lo son.<br>NO HAY RESPUESTAS CORRECTAS o INCORRECTAS, sólo queremos que respondas con la mayor precisión y sinceridad posible a las preguntas que se plantean.","response":0,"trial_type":"html-button-response","trial_index":66,"time_elapsed":5278907,"internal_node_id":"0.0-7.0"},{"rt":394577.1550000645,"response":{"Metas cuestionario pregunta1":1,"Metas cuestionario pregunta2":4,"Metas cuestionario pregunta3":4,"Metas cuestionario pregunta4":3,"Metas cuestionario pregunta5":3,"Metas cuestionario pregunta6":3,"Metas cuestionario pregunta7":3,"Metas cuestionario pregunta8":2,"Metas cuestionario pregunta9":1,"Metas cuestionario pregunta10":0,"Metas cuestionario pregunta11":0,"Metas cuestionario pregunta12":0,"Metas cuestionario pregunta13":0,"Metas cuestionario pregunta14":0,"Metas cuestionario pregunta15":2,"Metas cuestionario pregunta16":2,"Metas cuestionario pregunta17":3,"Metas cuestionario pregunta18":3,"Metas cuestionario pregunta19":3,"Metas cuestionario pregunta20":2},"question_order":[0,1,2,3,4,5,6,7,8,9,10,11,12,13,14,15,16,17,18,19],"trial_type":"survey-likert","trial_index":67,"time_elapsed":5673491,"internal_node_id":"0.0-8.0"},{"rt":2742.8200002759695,"stimulus":"<p style=\"font-size: 120%\">Gracias por responder el cuestionario. Ahora te invitamos a seguir con el juego, que es muy breve.<br><br></p>","response":0,"trial_type":"html-button-response","trial_index":68,"time_elapsed":5676239,"internal_node_id":"0.0-9.0"},{"rt":47381.234999746084,"stimulus":"<h1>Juego</h1><p style=\"font-size: 120%;\">A continuación se te presentarán 16 pequeñas historias.<br>Por favor lee el texto presentado en cada una de ellas y luego haz click en el objeto de tu elección.<br>Si estás listo(a),<span style=\"color:red;\"> haz click en \"comenzar\"</span>.</p>","response":0,"trial_type":"html-button-response","trial_index":69,"time_elapsed":5723622,"internal_node_id":"0.0-10.0"},{"rt":29094.095000065863,"grid":[[1,1,1]],"target":[0,0],"response":[0,2],"correct":false,"juego":12,"trial_type":"serial-reaction-time-mouse","trial_index":70,"time_elapsed":5752718,"internal_node_id":"0.0-11.0-0.0"},{"rt":63605.70499999449,"grid":[[1,1,1]],"target":[0,2],"response":[0,1],"correct":false,"juego":2,"trial_type":"serial-reaction-time-mouse","trial_index":71,"time_elapsed":5816325,"internal_node_id":"0.0-11.0-1.0"},{"rt":10982.265000231564,"grid":[[1,1,1]],"target":[0,2],"response":[0,0],"correct":false,"juego":1,"trial_type":"serial-reaction-time-mouse","trial_index":72,"time_elapsed":5827309,"internal_node_id":"0.0-11.0-2.0"},{"rt":23302.33999993652,"grid":[[1,1,1],[1,1,1],[1,1,1]],"target":[0,0],"response":[0,0],"correct":true,"juego":10,"trial_type":"serial-reaction-time-mouse","trial_index":73,"time_elapsed":5850613,"internal_node_id":"0.0-11.0-3.0"},{"rt":12470.155000220984,"grid":[[1,1,1]],"target":[0,2],"response":[0,1],"correct":false,"juego":7,"trial_type":"serial-reaction-time-mouse","trial_index":74,"time_elapsed":5863085,"internal_node_id":"0.0-11.0-4.0"},{"rt":11054.529999848455,"grid":[[1,1,1]],"target":[0,0],"response":[0,0],"correct":true,"juego":9,"trial_type":"serial-reaction-time-mouse","trial_index":75,"time_elapsed":5874141,"internal_node_id":"0.0-11.0-5.0"},{"rt":40885.20499970764,"grid":[[1,1],[1,1],[1,1],[1,1],[1,1],[1,1],[1,1]],"target":[0,0],"response":[1,1],"correct":false,"juego":15,"trial_type":"serial-reaction-time-mouse","trial_index":76,"time_elapsed":5915028,"internal_node_id":"0.0-11.0-6.0"},{"rt":22526.049999985844,"grid":[[1],[1],[1],[1],[1],[1]],"target":[0,0],"response":[2,0],"correct":false,"juego":5,"trial_type":"serial-reaction-time-mouse","trial_index":77,"time_elapsed":5937556,"internal_node_id":"0.0-11.0-7.0"},{"rt":12782.609999645501,"grid":[[1,1,1]],"target":[0,2],"response":[0,0],"correct":false,"juego":3,"trial_type":"serial-reaction-time-mouse","trial_index":78,"time_elapsed":5950340,"internal_node_id":"0.0-11.0-8.0"},{"rt":6286.069999914616,"grid":[[1],[1],[1]],"target":[0,2],"response":[2,0],"correct":false,"juego":4,"trial_type":"serial-reaction-time-mouse","trial_index":79,"time_elapsed":5956627,"internal_node_id":"0.0-11.0-9.0"},{"rt":21974.835000000894,"grid":[[1,1,1]],"target":[0,2],"response":[0,1],"correct":false,"juego":8,"trial_type":"serial-reaction-time-mouse","trial_index":80,"time_elapsed":5978603,"internal_node_id":"0.0-11.0-10.0"},{"rt":17597.90499974042,"grid":[[1,1],[1,1],[1,1],[1,1],[1,1],[1,1],[1,1]],"target":[0,0],"response":[1,1],"correct":false,"juego":14,"trial_type":"serial-reaction-time-mouse","trial_index":81,"time_elapsed":5996203,"internal_node_id":"0.0-11.0-11.0"},{"rt":7565.945000387728,"grid":[[1,1,1],[1,1,1],[1,1,1],[1,1,1],[1,1,1],[1,1,1],[1,1,1]],"target":[0,0],"response":[3,1],"correct":false,"juego":6,"trial_type":"serial-reaction-time-mouse","trial_index":82,"time_elapsed":6003771,"internal_node_id":"0.0-11.0-12.0"},{"rt":19398.620000109076,"grid":[[1,1,1]],"target":[0,0],"response":[0,1],"correct":false,"juego":11,"trial_type":"serial-reaction-time-mouse","trial_index":83,"time_elapsed":6023171,"internal_node_id":"0.0-11.0-13.0"},{"rt":69541.47000005469,"grid":[[1,1,1],[1,1,1],[1,1,1],[1,1,1],[1,1,1],[1,1,1],[1,1,1]],"target":[0,0],"response":[1,1],"correct":false,"juego":13,"trial_type":"serial-reaction-time-mouse","trial_index":84,"time_elapsed":6092714,"internal_node_id":"0.0-11.0-14.0"},{"rt":8707.919999957085,"stimulus":"<h1>Último juego</h1><p style=\"font-size: 130%;\">Tienes <span style=\"color:red\">20</span> segundos para recordar los pares de palabras que aparecerán a continuación. <br></p>","response":0,"trial_type":"html-button-response","trial_index":85,"time_elapsed":6101426,"internal_node_id":"0.0-12.0"},{"animation_sequence":[{"stimulus":"imagen_juego_interferencia.jpg","time":514.8550001904368},{"stimulus":"imagen_juego_interferencia.jpg","time":1003.1599998474121},{"stimulus":"imagen_juego_interferencia.jpg","time":1503.1500002369285},{"stimulus":"imagen_juego_interferencia.jpg","time":2001.2750001624227},{"stimulus":"imagen_juego_interferencia.jpg","time":2501.5650000423193},{"stimulus":"imagen_juego_interferencia.jpg","time":3001.325000077486},{"stimulus":"imagen_juego_interferencia.jpg","time":3501.5600002370775},{"stimulus":"imagen_juego_interferencia.jpg","time":4001.244999933988},{"stimulus":"imagen_juego_interferencia.jpg","time":4501.480000093579},{"stimulus":"imagen_juego_interferencia.jpg","time":5001.420000102371},{"stimulus":"imagen_juego_interferencia.jpg","time":5501.525000203401},{"stimulus":"imagen_juego_interferencia.jpg","time":6001.705000177026},{"stimulus":"imagen_juego_interferencia.jpg","time":6502.635000273585},{"stimulus":"imagen_juego_interferencia.jpg","time":7002.189999911934},{"stimulus":"imagen_juego_interferencia.jpg","time":7502.379999961704},{"stimulus":"imagen_juego_interferencia.jpg","time":8001.610000152141},{"stimulus":"imagen_juego_interferencia.jpg","time":8507.110000122339},{"stimulus":"imagen_juego_interferencia.jpg","time":9015.939999837428},{"stimulus":"imagen_juego_interferencia.jpg","time":9509.29500022903},{"stimulus":"imagen_juego_interferencia.jpg","time":10003.120000008494},{"stimulus":"imagen_juego_interferencia.jpg","time":10505.110000260174},{"stimulus":"imagen_juego_interferencia.jpg","time":11004.174999892712},{"stimulus":"imagen_juego_interferencia.jpg","time":11510.360000189394},{"stimulus":"imagen_juego_interferencia.jpg","time":12007.625000085682},{"stimulus":"imagen_juego_interferencia.jpg","time":12510.590000078082},{"stimulus":"imagen_juego_interferencia.jpg","time":13009.899999946356},{"stimulus":"imagen_juego_interferencia.jpg","time":13512.105000205338},{"stimulus":"imagen_juego_interferencia.jpg","time":14013.935000170022},{"stimulus":"imagen_juego_interferencia.jpg","time":14514.595000073314},{"stimulus":"imagen_juego_interferencia.jpg","time":15015.039999969304},{"stimulus":"imagen_juego_interferencia.jpg","time":15515.575000084937},{"stimulus":"imagen_juego_interferencia.jpg","time":16001.995000056922},{"stimulus":"imagen_juego_interferencia.jpg","time":16502.025000285357},{"stimulus":"imagen_juego_interferencia.jpg","time":17002.55999993533},{"stimulus":"imagen_juego_interferencia.jpg","time":17503.525000065565},{"stimulus":"imagen_juego_interferencia.jpg","time":18006.070000119507},{"stimulus":"imagen_juego_interferencia.jpg","time":18512.974999845028},{"stimulus":"imagen_juego_interferencia.jpg","time":19008.325000293553},{"stimulus":"imagen_juego_interferencia.jpg","time":19509.055000264198},{"stimulus":"imagen_juego_interferencia.jpg","time":20009.330000262707}],"response":[],"trial_type":"animation","trial_index":86,"time_elapsed":6121938,"internal_node_id":"0.0-13.0"},{"rt":13822.374999988824,"responses":"{\"pregunta interferencia1\":\"plátano\"}","question_order":"[0]","trial_type":"survey-multi-choice-cuest","trial_index":87,"time_elapsed":6135763,"internal_node_id":"0.0-14.0-0.0"},{"rt":14060.180000029504,"responses":"{\"pregunta interferencia3\":\"plata\"}","question_order":"[0]","trial_type":"survey-multi-choice-cuest","trial_index":88,"time_elapsed":6149826,"internal_node_id":"0.0-14.0-1.0"},{"rt":4293.850000016391,"responses":"{\"pregunta interferencia4\":\"contador\"}","question_order":"[0]","trial_type":"survey-multi-choice-cuest","trial_index":89,"time_elapsed":6154122,"internal_node_id":"0.0-14.0-2.0"},{"rt":5478.3350001089275,"responses":"{\"pregunta interferencia2\":\"cucaracha\"}","question_order":"[0]","trial_type":"survey-multi-choice-cuest","trial_index":90,"time_elapsed":6159602,"internal_node_id":"0.0-14.0-3.0"},{"success":true,"trial_type":"fullscreen","trial_index":91,"time_elapsed":6160607,"internal_node_id":"0.0-15.0"},{"rt":55050.74999993667,"responses":"{\"Telefono\":\"+56959826805\"}","trial_type":"survey-text","trial_index":92,"time_elapsed":6215665,"internal_node_id":"0.0-16.0"}]