[{"rt":38684.5500000054,"stimulus":"<h1 style=\"color:red; margin-top: 3%;\">¡Bienvenido(a)!</h1><p style=\"text-align:left; justify-content:space-between; margin-right: 5%; margin-left: 5%; margin-top: 5%\"> Antes de empezar el estudio, necesitamos que nos confirmes que estás de acuerdo con participar. Recuerda que tu participación es 100% voluntaria y que lo único que te pedimos es responder lo mejor que puedas. Recuerda también que el estudio incluye:</p><ol style=\"text-align:left; justify-content:space-between; margin-right: 5%; margin-left: 5%;\"><li> un ejercicio de resolución de preguntas de selección múltiple (30’),</li><li>un cuestionario breve (5’),</li><li>un juego muy breve (3’),</li></ol><p style=\"text-align:left; justify-content:space-between; margin-right: 5%; margin-left: 5%;\">Si quieres participar, haz clic en “Acepto” luego de leer lo siguiente:<br></p><p style=\"text-align:left; justify-content:space-between; margin-right: 5%; margin-left: 5%;\">Acepto participar en el estudio “Estrategias de lectura y resolución de preguntas de selección múltiple”, en los términos aquí señalados:<br></p><p style=\"text-align:left; justify-content:space-between; margin-right: 5%; margin-left: 5%;\"><a href=\"http://ciae.uchile.cl/download.php?file=noticias/Asentimiento.pdf\" target=\"_blank\">Link a la hoja de información del Consentimiento.</a></p><p style=\"text-align:left; justify-content:space-between; margin-right: 5%; margin-left: 5%;\">Declaro que he leído (o se me ha leído) y (he) comprendido, las condiciones de mi participación en este estudio. He tenido la oportunidad de hacer preguntas y éstas han sido respondidas. No tengo dudas al respecto.</p>","response":0,"condicion_MCQ":4,"condicion_INTER":4,"numero_participante":4,"numero_version":1,"dimx":1366,"dimy":768,"color_profundidad":24,"pixel_profundidad":24,"Browser":"Google Chrome","trial_type":"html-button-response","trial_index":0,"time_elapsed":38693,"internal_node_id":"0.0-0.0"},{"success":true,"trial_type":"fullscreen","trial_index":1,"time_elapsed":48652,"internal_node_id":"0.0-1.0"},{"rt":142571.00499999797,"responses":"{\"Nombres\":\"Benjamin Ariel\",\"Apellidos\":\"Riveros Torres\",\"Edad\":\"18\",\"Sexo\":\"Hombre\",\"Curso\":\"1er año\",\"Colegio\":\"Unab\",\"Contacto\":\"benjaminart10@gmail.com\"}","trial_type":"survey-text","trial_index":2,"time_elapsed":191246,"internal_node_id":"0.0-2.0"},{"success":true,"timeout":false,"failed_images":[],"failed_audio":[],"failed_video":[],"trial_type":"preload","trial_index":3,"time_elapsed":195508,"internal_node_id":"0.0-3.0"},{"rt":12798.030000005383,"stimulus":"<h1 style:\"margin-top: 5%;\">Ejercicios de Comprensión de Lectura de la Universidad de Chile</h1><p style=\"font-size: 120%;\">En esta actividad, debes responder 30 preguntas de selección múltiple. Cada pregunta presenta 3 respuestas alternativas, pero sólo una de ellas es correcta. Por lo tanto, debes escoger una sola alternativa para cada pregunta. Además, debes reportar qué tan seguro(a) estás de la respuesta que das, con un:</p><ol style=\"font-size: 120%;text-align:left;margin-left: 40%;\"><li>No estoy seguro(a) para nada</li><li>No estoy muy seguro(a)</li><li>Estoy bastante seguro(a)</li><li>Estoy totalmente seguro(a)</li></ol><p style=\"font-size: 120%;\">Por favor lee bien los enunciados antes de responder. ¡Éxito!</p>","response":0,"trial_type":"html-button-response","trial_index":4,"time_elapsed":208309,"internal_node_id":"0.0-4.0"},{"rt":175316.14500000433,"responses":"{\"pregunta26\":\"b) el hombre excesivo es inmoral. \"}","question_order":"[0]","trial_type":"survey-multi-choice","trial_index":5,"time_elapsed":383642,"internal_node_id":"0.0-5.0-0.0"},{"rt":8564.539999999397,"response":{"pregunta26 likert":2},"question_order":[0],"trial_type":"survey-likert","trial_index":6,"time_elapsed":392210,"internal_node_id":"0.0-5.0-1.0"},{"rt":63284.19500000018,"responses":"{\"pregunta1\":\"c) Entregan una característica detallada del personaje, a través de la voz narrativa. \"}","question_order":"[0]","trial_type":"survey-multi-choice","trial_index":7,"time_elapsed":455497,"internal_node_id":"0.0-5.0-2.0"},{"rt":2081.209999996645,"response":{"pregunta1 likert":2},"question_order":[0],"trial_type":"survey-likert","trial_index":8,"time_elapsed":457581,"internal_node_id":"0.0-5.0-3.0"},{"rt":180360.90500000137,"responses":"{\"pregunta19\":\"c) Las personas que leen son más flexibles en sus ideas y autónomas en su accionar. \"}","question_order":"[0]","trial_type":"survey-multi-choice","trial_index":9,"time_elapsed":637946,"internal_node_id":"0.0-5.0-4.0"},{"rt":4485.520000001881,"response":{"pregunta19 likert":1},"question_order":[0],"trial_type":"survey-likert","trial_index":10,"time_elapsed":642435,"internal_node_id":"0.0-5.0-5.0"},{"rt":53691.51499999873,"responses":"{\"pregunta22\":\"b) Bomberos debería tener acceso a un seguro médico, al que pueda recurrir en caso de accidente. \"}","question_order":"[0]","trial_type":"survey-multi-choice","trial_index":11,"time_elapsed":696130,"internal_node_id":"0.0-5.0-6.0"},{"rt":1637.4999999970896,"response":{"pregunta22 likert":2},"question_order":[0],"trial_type":"survey-likert","trial_index":12,"time_elapsed":697770,"internal_node_id":"0.0-5.0-7.0"},{"rt":57821.15999999957,"responses":"{\"pregunta27\":\"a) Nuestra economía vivirá un proceso de ajuste a la nueva realidad. \"}","question_order":"[0]","trial_type":"survey-multi-choice","trial_index":13,"time_elapsed":755594,"internal_node_id":"0.0-5.0-8.0"},{"rt":17484.375,"response":{"pregunta27 likert":2},"question_order":[0],"trial_type":"survey-likert","trial_index":14,"time_elapsed":773082,"internal_node_id":"0.0-5.0-9.0"},{"rt":270797.35500000254,"responses":"{\"pregunta7\":\"b) La imprenta y el papel han permitido el desarrollo de la civilización y la conservación de su cultura, y ambos son inventos chinos. \"}","question_order":"[0]","trial_type":"survey-multi-choice","trial_index":15,"time_elapsed":1043882,"internal_node_id":"0.0-5.0-10.0"},{"rt":2836.7050000014715,"response":{"pregunta7 likert":2},"question_order":[0],"trial_type":"survey-likert","trial_index":16,"time_elapsed":1046722,"internal_node_id":"0.0-5.0-11.0"},{"rt":252385.47000000114,"responses":"{\"pregunta10\":\"b) La biónica puede asegurar nuestra existencia mediante la aplicación de técnicas copiadas de la naturaleza. \"}","question_order":"[0]","trial_type":"survey-multi-choice","trial_index":17,"time_elapsed":1299111,"internal_node_id":"0.0-5.0-12.0"},{"rt":2341.53000000515,"response":{"pregunta10 likert":1},"question_order":[0],"trial_type":"survey-likert","trial_index":18,"time_elapsed":1301455,"internal_node_id":"0.0-5.0-13.0"},{"rt":95476.96500000148,"responses":"{\"pregunta5\":\"c) Los momentos triviales de los viajes, en la escritura se vuelven significativos. \"}","question_order":"[0]","trial_type":"survey-multi-choice","trial_index":19,"time_elapsed":1396935,"internal_node_id":"0.0-5.0-14.0"},{"rt":2376.2999999963213,"response":{"pregunta5 likert":2},"question_order":[0],"trial_type":"survey-likert","trial_index":20,"time_elapsed":1399314,"internal_node_id":"0.0-5.0-15.0"},{"rt":387622.4149999982,"responses":"{\"pregunta25\":\"a) llevan un control grupal de su embarazo. \"}","question_order":"[0]","trial_type":"survey-multi-choice","trial_index":21,"time_elapsed":1786940,"internal_node_id":"0.0-5.0-16.0"},{"rt":1636.4049999974668,"response":{"pregunta25 likert":2},"question_order":[0],"trial_type":"survey-likert","trial_index":22,"time_elapsed":1788580,"internal_node_id":"0.0-5.0-17.0"},{"rt":137419.75499999523,"responses":"{\"pregunta17\":\"b) Homenajear a quienes murieron. \"}","question_order":"[0]","trial_type":"survey-multi-choice","trial_index":23,"time_elapsed":1926004,"internal_node_id":"0.0-5.0-18.0"},{"rt":2201.195000001462,"response":{"pregunta17 likert":2},"question_order":[0],"trial_type":"survey-likert","trial_index":24,"time_elapsed":1928208,"internal_node_id":"0.0-5.0-19.0"},{"rt":70821.38999999734,"responses":"{\"pregunta15\":\"a) ritualistas y obsesivos. \"}","question_order":"[0]","trial_type":"survey-multi-choice","trial_index":25,"time_elapsed":1999032,"internal_node_id":"0.0-5.0-20.0"},{"rt":3081.024999999441,"response":{"pregunta15 likert":2},"question_order":[0],"trial_type":"survey-likert","trial_index":26,"time_elapsed":2002117,"internal_node_id":"0.0-5.0-21.0"},{"rt":64736.085000004154,"responses":"{\"pregunta13\":\"c) El ser humano se comporta de acuerdo con las circunstancias. \"}","question_order":"[0]","trial_type":"survey-multi-choice","trial_index":27,"time_elapsed":2066856,"internal_node_id":"0.0-5.0-22.0"},{"rt":4333.659999996657,"response":{"pregunta13 likert":2},"question_order":[0],"trial_type":"survey-likert","trial_index":28,"time_elapsed":2071192,"internal_node_id":"0.0-5.0-23.0"},{"rt":71993.21500000241,"responses":"{\"pregunta20\":\"b) sólo las leyes bastan para gobernarse. \"}","question_order":"[0]","trial_type":"survey-multi-choice","trial_index":29,"time_elapsed":2143188,"internal_node_id":"0.0-5.0-24.0"},{"rt":2684.6399999996647,"response":{"pregunta20 likert":2},"question_order":[0],"trial_type":"survey-likert","trial_index":30,"time_elapsed":2145878,"internal_node_id":"0.0-5.0-25.0"},{"rt":67587.85999999987,"responses":"{\"pregunta30\":\"b) para el mexicano, la muerte es como una mujer. \"}","question_order":"[0]","trial_type":"survey-multi-choice","trial_index":31,"time_elapsed":2213468,"internal_node_id":"0.0-5.0-26.0"},{"rt":4557.359999998938,"response":{"pregunta30 likert":2},"question_order":[0],"trial_type":"survey-likert","trial_index":32,"time_elapsed":2218028,"internal_node_id":"0.0-5.0-27.0"},{"rt":111413.16000000387,"responses":"{\"pregunta29\":\"c) el jardinero estará muerto al día siguiente. \"}","question_order":"[0]","trial_type":"survey-multi-choice","trial_index":33,"time_elapsed":2329444,"internal_node_id":"0.0-5.0-28.0"},{"rt":2913.1800000029616,"response":{"pregunta29 likert":2},"question_order":[0],"trial_type":"survey-likert","trial_index":34,"time_elapsed":2332361,"internal_node_id":"0.0-5.0-29.0"},{"rt":80605.24499999871,"responses":"{\"pregunta2\":\"b) A la relación entre sociedad y constitución social. \"}","question_order":"[0]","trial_type":"survey-multi-choice","trial_index":35,"time_elapsed":2412968,"internal_node_id":"0.0-5.0-30.0"},{"rt":1629.460000003688,"response":{"pregunta2 likert":2},"question_order":[0],"trial_type":"survey-likert","trial_index":36,"time_elapsed":2414601,"internal_node_id":"0.0-5.0-31.0"},{"rt":75188.96500000125,"responses":"{\"pregunta16\":\"c) Provocar el deseo de la adquisición vertiginosa. \"}","question_order":"[0]","trial_type":"survey-multi-choice","trial_index":37,"time_elapsed":2489793,"internal_node_id":"0.0-5.0-32.0"},{"rt":3284.404999998398,"response":{"pregunta16 likert":2},"question_order":[0],"trial_type":"survey-likert","trial_index":38,"time_elapsed":2493081,"internal_node_id":"0.0-5.0-33.0"},{"rt":67673.56000000285,"responses":"{\"pregunta24\":\"b) El receptor es habitualmente pasivo frente a la publicidad. \"}","question_order":"[0]","trial_type":"survey-multi-choice","trial_index":39,"time_elapsed":2560757,"internal_node_id":"0.0-5.0-34.0"},{"rt":2597.214999994263,"response":{"pregunta24 likert":2},"question_order":[0],"trial_type":"survey-likert","trial_index":40,"time_elapsed":2563357,"internal_node_id":"0.0-5.0-35.0"},{"rt":94988.9750000001,"responses":"{\"pregunta11\":\"a) Promover la asistencia a un evento específico de decoración a través de una atractiva descripción. \"}","question_order":"[0]","trial_type":"survey-multi-choice","trial_index":41,"time_elapsed":2658342,"internal_node_id":"0.0-5.0-36.0"},{"rt":2444.8249999983236,"response":{"pregunta11 likert":2},"question_order":[0],"trial_type":"survey-likert","trial_index":42,"time_elapsed":2660790,"internal_node_id":"0.0-5.0-37.0"},{"rt":97369.46000000136,"responses":"{\"pregunta14\":\"a) preparar los recuerdos del mañana. \"}","question_order":"[0]","trial_type":"survey-multi-choice","trial_index":43,"time_elapsed":2758169,"internal_node_id":"0.0-5.0-38.0"},{"rt":3893.445000001695,"response":{"pregunta14 likert":2},"question_order":[0],"trial_type":"survey-likert","trial_index":44,"time_elapsed":2762065,"internal_node_id":"0.0-5.0-39.0"},{"rt":75681.1799999997,"responses":"{\"pregunta6\":\"a) Las personas escandalosas constantemente critican a la Academia. \"}","question_order":"[0]","trial_type":"survey-multi-choice","trial_index":45,"time_elapsed":2837749,"internal_node_id":"0.0-5.0-40.0"},{"rt":3193.2349999984726,"response":{"pregunta6 likert":1},"question_order":[0],"trial_type":"survey-likert","trial_index":46,"time_elapsed":2840945,"internal_node_id":"0.0-5.0-41.0"},{"rt":68237.11500000348,"responses":"{\"pregunta8\":\"c) Dar a conocer al ganador del premio Cervantes. \"}","question_order":"[0]","trial_type":"survey-multi-choice","trial_index":47,"time_elapsed":2909185,"internal_node_id":"0.0-5.0-42.0"},{"rt":2257.3199999970384,"response":{"pregunta8 likert":2},"question_order":[0],"trial_type":"survey-likert","trial_index":48,"time_elapsed":2911445,"internal_node_id":"0.0-5.0-43.0"},{"rt":105125.37999999756,"responses":"{\"pregunta12\":\"b) se da como existente, y sólo se discute su relación con el cuerpo. \"}","question_order":"[0]","trial_type":"survey-multi-choice","trial_index":49,"time_elapsed":3016573,"internal_node_id":"0.0-5.0-44.0"},{"rt":2525.339999999851,"response":{"pregunta12 likert":2},"question_order":[0],"trial_type":"survey-likert","trial_index":50,"time_elapsed":3019102,"internal_node_id":"0.0-5.0-45.0"},{"rt":73532.53499999829,"responses":"{\"pregunta9\":\"a) pueden rendir exámenes para optar y obtener títulos profesionales igual que los hombres. \"}","question_order":"[0]","trial_type":"survey-multi-choice","trial_index":51,"time_elapsed":3092638,"internal_node_id":"0.0-5.0-46.0"},{"rt":3749.649999998044,"response":{"pregunta9 likert":2},"question_order":[0],"trial_type":"survey-likert","trial_index":52,"time_elapsed":3096390,"internal_node_id":"0.0-5.0-47.0"},{"rt":85401.78000000026,"responses":"{\"pregunta4\":\"c) En la literatura como en la vida, lo importante son las preguntas. \"}","question_order":"[0]","trial_type":"survey-multi-choice","trial_index":53,"time_elapsed":3181794,"internal_node_id":"0.0-5.0-48.0"},{"rt":2677.224999999162,"response":{"pregunta4 likert":2},"question_order":[0],"trial_type":"survey-likert","trial_index":54,"time_elapsed":3184474,"internal_node_id":"0.0-5.0-49.0"},{"rt":41652.8850000035,"responses":"{\"pregunta21\":\"a) el uranio es el elemento natural con el mayor número de protones en el núcleo. \"}","question_order":"[0]","trial_type":"survey-multi-choice","trial_index":55,"time_elapsed":3226130,"internal_node_id":"0.0-5.0-50.0"},{"rt":2121.2449999949895,"response":{"pregunta21 likert":2},"question_order":[0],"trial_type":"survey-likert","trial_index":56,"time_elapsed":3228254,"internal_node_id":"0.0-5.0-51.0"},{"rt":34741.394999997225,"responses":"{\"pregunta28\":\"b) Se necesita un marco legal para delimitar lo público y lo privado en materia informativa. \"}","question_order":"[0]","trial_type":"survey-multi-choice","trial_index":57,"time_elapsed":3262998,"internal_node_id":"0.0-5.0-52.0"},{"rt":3765.2849999940954,"response":{"pregunta28 likert":2},"question_order":[0],"trial_type":"survey-likert","trial_index":58,"time_elapsed":3266766,"internal_node_id":"0.0-5.0-53.0"},{"rt":52637.09999999963,"responses":"{\"pregunta18\":\"b) A la inutilidad de tanto esfuerzo si el objetivo es el reposo. \"}","question_order":"[0]","trial_type":"survey-multi-choice","trial_index":59,"time_elapsed":3319406,"internal_node_id":"0.0-5.0-54.0"},{"rt":2100.6350000025705,"response":{"pregunta18 likert":2},"question_order":[0],"trial_type":"survey-likert","trial_index":60,"time_elapsed":3321510,"internal_node_id":"0.0-5.0-55.0"},{"rt":72129.7750000013,"responses":"{\"pregunta3\":\"b) El inicio de la civilización china. \"}","question_order":"[0]","trial_type":"survey-multi-choice","trial_index":61,"time_elapsed":3393643,"internal_node_id":"0.0-5.0-56.0"},{"rt":1519.7249999986961,"response":{"pregunta3 likert":2},"question_order":[0],"trial_type":"survey-likert","trial_index":62,"time_elapsed":3395166,"internal_node_id":"0.0-5.0-57.0"},{"rt":46449.46499999752,"responses":"{\"pregunta23\":\"c) A la influencia de grupos que rechazaban su música. \"}","question_order":"[0]","trial_type":"survey-multi-choice","trial_index":63,"time_elapsed":3441617,"internal_node_id":"0.0-5.0-58.0"},{"rt":3172.25499999756,"response":{"pregunta23 likert":2},"question_order":[0],"trial_type":"survey-likert","trial_index":64,"time_elapsed":3444792,"internal_node_id":"0.0-5.0-59.0"},{"rt":2482.3849999955855,"stimulus":"<p style=\"font-size: 120%\">Gracias por completar esta etapa del estudio. Ahora te invitamos a responder el cuestionario.<br><br></p>","response":0,"trial_type":"html-button-response","trial_index":65,"time_elapsed":3447296,"internal_node_id":"0.0-6.0"},{"rt":27165.614999997895,"stimulus":"<h1 style=\"margin-top: 5%\">Cuestionario para la Evaluación de Metas Académicas</h1><p style=\"font-size: 120%; margin-left: 3%; margin-top: 5%\">Este es un cuestionario que permite conocer cuáles son los principales motivos por los que los estudiantes se esfuerzan en su trabajo académico. A continuación, se te presentarán una serie de afirmaciones acerca de los motivos que puedes tener para estudiar.<br>Te pedimos que contestes a dichas afirmaciones reflexionando sobre el contenido de cada una de ellas, que, aunque te parezcan semejantes, en realidad, no lo son.<br>NO HAY RESPUESTAS CORRECTAS o INCORRECTAS, sólo queremos que respondas con la mayor precisión y sinceridad posible a las preguntas que se plantean.","response":0,"trial_type":"html-button-response","trial_index":66,"time_elapsed":3474464,"internal_node_id":"0.0-7.0"},{"rt":123064.39500000142,"response":{"Metas cuestionario pregunta1":3,"Metas cuestionario pregunta2":3,"Metas cuestionario pregunta3":4,"Metas cuestionario pregunta4":3,"Metas cuestionario pregunta5":4,"Metas cuestionario pregunta6":4,"Metas cuestionario pregunta7":4,"Metas cuestionario pregunta8":4,"Metas cuestionario pregunta9":2,"Metas cuestionario pregunta10":2,"Metas cuestionario pregunta11":0,"Metas cuestionario pregunta12":2,"Metas cuestionario pregunta13":4,"Metas cuestionario pregunta14":2,"Metas cuestionario pregunta15":3,"Metas cuestionario pregunta16":3,"Metas cuestionario pregunta17":3,"Metas cuestionario pregunta18":4,"Metas cuestionario pregunta19":4,"Metas cuestionario pregunta20":4},"question_order":[0,1,2,3,4,5,6,7,8,9,10,11,12,13,14,15,16,17,18,19],"trial_type":"survey-likert","trial_index":67,"time_elapsed":3597548,"internal_node_id":"0.0-8.0"},{"rt":2421.695000004489,"stimulus":"<p style=\"font-size: 120%\">Gracias por responder el cuestionario. Ahora te invitamos a seguir con el juego, que es muy breve.<br><br></p>","response":0,"trial_type":"html-button-response","trial_index":68,"time_elapsed":3599977,"internal_node_id":"0.0-9.0"},{"rt":8308.40999999782,"stimulus":"<h1>Juego</h1><p style=\"font-size: 120%;\">A continuación se te presentarán 16 pequeñas historias.<br>Por favor lee el texto presentado en cada una de ellas y luego haz click en el objeto de tu elección.<br>Si estás listo(a),<span style=\"color:red;\"> haz click en \"comenzar\"</span>.</p>","response":0,"trial_type":"html-button-response","trial_index":69,"time_elapsed":3608288,"internal_node_id":"0.0-10.0"},{"rt":24106.37499999581,"grid":[[1,1,1]],"target":[0,2],"response":[0,2],"correct":true,"juego":2,"trial_type":"serial-reaction-time-mouse","trial_index":70,"time_elapsed":3632399,"internal_node_id":"0.0-11.0-0.0"},{"rt":18320.079999997746,"grid":[[1,1],[1,1],[1,1],[1,1],[1,1],[1,1],[1,1]],"target":[0,0],"response":[3,1],"correct":false,"juego":15,"trial_type":"serial-reaction-time-mouse","trial_index":71,"time_elapsed":3650723,"internal_node_id":"0.0-11.0-1.0"},{"rt":7628.514999996871,"grid":[[1,1,1]],"target":[0,2],"response":[0,1],"correct":false,"juego":7,"trial_type":"serial-reaction-time-mouse","trial_index":72,"time_elapsed":3658354,"internal_node_id":"0.0-11.0-2.0"},{"rt":4840.9900000044145,"grid":[[1,1,1]],"target":[0,2],"response":[0,0],"correct":false,"juego":1,"trial_type":"serial-reaction-time-mouse","trial_index":73,"time_elapsed":3663197,"internal_node_id":"0.0-11.0-3.0"},{"rt":12943.574999997392,"grid":[[1],[1],[1],[1],[1],[1]],"target":[0,0],"response":[2,0],"correct":false,"juego":5,"trial_type":"serial-reaction-time-mouse","trial_index":74,"time_elapsed":3676143,"internal_node_id":"0.0-11.0-4.0"},{"rt":6367.7900000037625,"grid":[[1,1,1]],"target":[0,2],"response":[0,1],"correct":false,"juego":3,"trial_type":"serial-reaction-time-mouse","trial_index":75,"time_elapsed":3682514,"internal_node_id":"0.0-11.0-5.0"},{"rt":5743.675000004936,"grid":[[1,1,1]],"target":[0,0],"response":[0,0],"correct":true,"juego":9,"trial_type":"serial-reaction-time-mouse","trial_index":76,"time_elapsed":3688263,"internal_node_id":"0.0-11.0-6.0"},{"rt":11539.744999994524,"grid":[[1,1,1]],"target":[0,0],"response":[0,2],"correct":false,"juego":12,"trial_type":"serial-reaction-time-mouse","trial_index":77,"time_elapsed":3699806,"internal_node_id":"0.0-11.0-7.0"},{"rt":10825.044999998063,"grid":[[1,1,1],[1,1,1],[1,1,1]],"target":[0,0],"response":[0,2],"correct":false,"juego":10,"trial_type":"serial-reaction-time-mouse","trial_index":78,"time_elapsed":3710639,"internal_node_id":"0.0-11.0-8.0"},{"rt":5976.214999995194,"grid":[[1,1],[1,1],[1,1],[1,1],[1,1],[1,1],[1,1]],"target":[0,0],"response":[1,1],"correct":false,"juego":14,"trial_type":"serial-reaction-time-mouse","trial_index":79,"time_elapsed":3716619,"internal_node_id":"0.0-11.0-9.0"},{"rt":9753.125000002794,"grid":[[1,1,1]],"target":[0,0],"response":[0,1],"correct":false,"juego":11,"trial_type":"serial-reaction-time-mouse","trial_index":80,"time_elapsed":3726374,"internal_node_id":"0.0-11.0-10.0"},{"rt":10822.090000001248,"grid":[[1,1,1],[1,1,1],[1,1,1],[1,1,1],[1,1,1],[1,1,1],[1,1,1]],"target":[0,0],"response":[1,1],"correct":false,"juego":13,"trial_type":"serial-reaction-time-mouse","trial_index":81,"time_elapsed":3737201,"internal_node_id":"0.0-11.0-11.0"},{"rt":2753.8249999997206,"grid":[[1,1,1],[1,1,1],[1,1,1],[1,1,1],[1,1,1],[1,1,1],[1,1,1]],"target":[0,0],"response":[3,1],"correct":false,"juego":6,"trial_type":"serial-reaction-time-mouse","trial_index":82,"time_elapsed":3739958,"internal_node_id":"0.0-11.0-12.0"},{"rt":2546.799999996554,"grid":[[1,1,1]],"target":[0,2],"response":[0,2],"correct":true,"juego":8,"trial_type":"serial-reaction-time-mouse","trial_index":83,"time_elapsed":3742507,"internal_node_id":"0.0-11.0-13.0"},{"rt":4586.770000001881,"grid":[[1],[1],[1]],"target":[0,2],"response":[0,0],"correct":false,"juego":4,"trial_type":"serial-reaction-time-mouse","trial_index":84,"time_elapsed":3747099,"internal_node_id":"0.0-11.0-14.0"},{"rt":5856.984999998473,"stimulus":"<h1>Último juego</h1><p style=\"font-size: 130%;\">Tienes <span style=\"color:red\">20</span> segundos para recordar los pares de palabras que aparecerán a continuación. <br></p>","response":0,"trial_type":"html-button-response","trial_index":85,"time_elapsed":3752965,"internal_node_id":"0.0-12.0"},{"animation_sequence":[{"stimulus":"imagen_juego_interferencia.jpg","time":527.7300000013784},{"stimulus":"imagen_juego_interferencia.jpg","time":1011.5999999977648},{"stimulus":"imagen_juego_interferencia.jpg","time":1513.7049999977462},{"stimulus":"imagen_juego_interferencia.jpg","time":2008.4849999984726},{"stimulus":"imagen_juego_interferencia.jpg","time":2510.7900000000373},{"stimulus":"imagen_juego_interferencia.jpg","time":3013.865000000689},{"stimulus":"imagen_juego_interferencia.jpg","time":3504.605000001844},{"stimulus":"imagen_juego_interferencia.jpg","time":4003.9849999956787},{"stimulus":"imagen_juego_interferencia.jpg","time":4508.045000002254},{"stimulus":"imagen_juego_interferencia.jpg","time":5004.220000002533},{"stimulus":"imagen_juego_interferencia.jpg","time":5515.719999995548},{"stimulus":"imagen_juego_interferencia.jpg","time":6007.53999999864},{"stimulus":"imagen_juego_interferencia.jpg","time":6510.379999999423},{"stimulus":"imagen_juego_interferencia.jpg","time":7013.254999998026},{"stimulus":"imagen_juego_interferencia.jpg","time":7503.604999998119},{"stimulus":"imagen_juego_interferencia.jpg","time":8008.529999998864},{"stimulus":"imagen_juego_interferencia.jpg","time":8510.864999996498},{"stimulus":"imagen_juego_interferencia.jpg","time":9013.780000001192},{"stimulus":"imagen_juego_interferencia.jpg","time":9507.734999998938},{"stimulus":"imagen_juego_interferencia.jpg","time":10010.374999998137},{"stimulus":"imagen_juego_interferencia.jpg","time":10503.319999996107},{"stimulus":"imagen_juego_interferencia.jpg","time":11008.304999995511},{"stimulus":"imagen_juego_interferencia.jpg","time":11510.659999999683},{"stimulus":"imagen_juego_interferencia.jpg","time":12013.80500000203},{"stimulus":"imagen_juego_interferencia.jpg","time":12513.984999997541},{"stimulus":"imagen_juego_interferencia.jpg","time":13006.999999997672},{"stimulus":"imagen_juego_interferencia.jpg","time":13509.364999997895},{"stimulus":"imagen_juego_interferencia.jpg","time":14011.995000000577},{"stimulus":"imagen_juego_interferencia.jpg","time":14514.579999995418},{"stimulus":"imagen_juego_interferencia.jpg","time":15003.72000000067},{"stimulus":"imagen_juego_interferencia.jpg","time":15514.35499999905},{"stimulus":"imagen_juego_interferencia.jpg","time":16006.824999996927},{"stimulus":"imagen_juego_interferencia.jpg","time":16509.485000002198},{"stimulus":"imagen_juego_interferencia.jpg","time":17005.745000001974},{"stimulus":"imagen_juego_interferencia.jpg","time":17502.829999997746},{"stimulus":"imagen_juego_interferencia.jpg","time":18013.059999997262},{"stimulus":"imagen_juego_interferencia.jpg","time":18507.069999999832},{"stimulus":"imagen_juego_interferencia.jpg","time":19009.594999996014},{"stimulus":"imagen_juego_interferencia.jpg","time":19511.959999996237},{"stimulus":"imagen_juego_interferencia.jpg","time":20014.889999998268}],"response":[],"trial_type":"animation","trial_index":86,"time_elapsed":3773474,"internal_node_id":"0.0-13.0"},{"rt":6295.949999999721,"responses":"{\"pregunta interferencia3\":\"aluminio\"}","question_order":"[0]","trial_type":"survey-multi-choice-cuest","trial_index":87,"time_elapsed":3779773,"internal_node_id":"0.0-14.0-0.0"},{"rt":6412.30999999959,"responses":"{\"pregunta interferencia1\":\"naranja\"}","question_order":"[0]","trial_type":"survey-multi-choice-cuest","trial_index":88,"time_elapsed":3786189,"internal_node_id":"0.0-14.0-1.0"},{"rt":2849.4800000041723,"responses":"{\"pregunta interferencia2\":\"saltamontes\"}","question_order":"[0]","trial_type":"survey-multi-choice-cuest","trial_index":89,"time_elapsed":3789042,"internal_node_id":"0.0-14.0-2.0"},{"rt":4648.020000000484,"responses":"{\"pregunta interferencia4\":\"contador\"}","question_order":"[0]","trial_type":"survey-multi-choice-cuest","trial_index":90,"time_elapsed":3793693,"internal_node_id":"0.0-14.0-3.0"},{"success":true,"trial_type":"fullscreen","trial_index":91,"time_elapsed":3794702,"internal_node_id":"0.0-15.0"},{"rt":10630.704999995884,"responses":"{\"Telefono\":\"\"}","trial_type":"survey-text","trial_index":92,"time_elapsed":3805347,"internal_node_id":"0.0-16.0"}]