[{"rt":92370.30000000959,"stimulus":"<h1 style=\"color:red; margin-top: 3%;\">¡Bienvenido(a)!</h1><p style=\"text-align:left; justify-content:space-between; margin-right: 5%; margin-left: 5%; margin-top: 5%\"> Antes de empezar el estudio, necesitamos que nos confirmes que estás de acuerdo con participar. Recuerda que tu participación es 100% voluntaria y que lo único que te pedimos es responder lo mejor que puedas. Recuerda también que el estudio incluye:</p><ol style=\"text-align:left; justify-content:space-between; margin-right: 5%; margin-left: 5%;\"><li> un ejercicio de resolución de preguntas de selección múltiple (30’),</li><li>un cuestionario breve (5’),</li><li>un juego muy breve (3’),</li></ol><p style=\"text-align:left; justify-content:space-between; margin-right: 5%; margin-left: 5%;\">Si quieres participar, haz clic en “Acepto” luego de leer lo siguiente:<br></p><p style=\"text-align:left; justify-content:space-between; margin-right: 5%; margin-left: 5%;\">Acepto participar en el estudio “Estrategias de lectura y resolución de preguntas de selección múltiple”, en los términos aquí señalados:<br></p><p style=\"text-align:left; justify-content:space-between; margin-right: 5%; margin-left: 5%;\"><a href=\"http://ciae.uchile.cl/download.php?file=noticias/Asentimiento.pdf\" target=\"_blank\">Link a la hoja de información del Consentimiento.</a></p><p style=\"text-align:left; justify-content:space-between; margin-right: 5%; margin-left: 5%;\">Declaro que he leído (o se me ha leído) y (he) comprendido, las condiciones de mi participación en este estudio. He tenido la oportunidad de hacer preguntas y éstas han sido respondidas. No tengo dudas al respecto.</p>","response":0,"condicion_MCQ":6,"condicion_INTER":12,"numero_participante":12,"numero_version":1,"dimx":1366,"dimy":768,"color_profundidad":24,"pixel_profundidad":24,"Browser":"Google Chrome","trial_type":"html-button-response","trial_index":0,"time_elapsed":92383,"internal_node_id":"0.0-0.0"},{"success":true,"trial_type":"fullscreen","trial_index":1,"time_elapsed":127803,"internal_node_id":"0.0-1.0"},{"rt":320057.63500000467,"responses":"{\"Nombres\":\"maria jose\",\"Apellidos\":\"quiroz velozo\",\"Edad\":\"19\",\"Sexo\":\"mujer\",\"Curso\":\"egresada\",\"Colegio\":\"unab\",\"Contacto\":\"m.quirozvelozo@uandresbello.edu\"}","trial_type":"survey-text","trial_index":2,"time_elapsed":447879,"internal_node_id":"0.0-2.0"},{"success":true,"timeout":false,"failed_images":[],"failed_audio":[],"failed_video":[],"trial_type":"preload","trial_index":3,"time_elapsed":449206,"internal_node_id":"0.0-3.0"},{"rt":21547.019999998156,"stimulus":"<h1 style:\"margin-top: 5%;\">Ejercicios de Comprensión de Lectura de la Universidad de Chile</h1><p style=\"font-size: 120%;\">En esta actividad, debes responder 30 preguntas de selección múltiple. Cada pregunta presenta 3 respuestas alternativas, pero sólo una de ellas es correcta. Por lo tanto, debes escoger una sola alternativa para cada pregunta. Además, debes reportar qué tan seguro(a) estás de la respuesta que das, con un:</p><ol style=\"font-size: 120%;text-align:left;margin-left: 40%;\"><li>No estoy seguro(a) para nada</li><li>No estoy muy seguro(a)</li><li>Estoy bastante seguro(a)</li><li>Estoy totalmente seguro(a)</li></ol><p style=\"font-size: 120%;\">Por favor lee bien los enunciados antes de responder. ¡Éxito!</p>","response":0,"trial_type":"html-button-response","trial_index":4,"time_elapsed":470755,"internal_node_id":"0.0-4.0"},{"rt":92262.99499999732,"responses":"{\"pregunta25\":\"a) sufren dolores de espalda. \"}","question_order":"[0]","trial_type":"survey-multi-choice","trial_index":5,"time_elapsed":563023,"internal_node_id":"0.0-5.0-0.0"},{"rt":8731.23500001384,"response":{"pregunta25 likert":1},"question_order":[0],"trial_type":"survey-likert","trial_index":6,"time_elapsed":571761,"internal_node_id":"0.0-5.0-1.0"},{"rt":102043.5249999864,"responses":"{\"pregunta19\":\"b) Las personas que leen son más flexibles en sus ideas y autónomas en su accionar. \"}","question_order":"[0]","trial_type":"survey-multi-choice","trial_index":7,"time_elapsed":673810,"internal_node_id":"0.0-5.0-2.0"},{"rt":4071.2900000216905,"response":{"pregunta19 likert":2},"question_order":[0],"trial_type":"survey-likert","trial_index":8,"time_elapsed":677886,"internal_node_id":"0.0-5.0-3.0"},{"rt":279471.0550000018,"responses":"{\"pregunta15\":\"c) ritualistas y obsesivos. \"}","question_order":"[0]","trial_type":"survey-multi-choice","trial_index":9,"time_elapsed":957361,"internal_node_id":"0.0-5.0-4.0"},{"rt":2807.5649999955203,"response":{"pregunta15 likert":1},"question_order":[0],"trial_type":"survey-likert","trial_index":10,"time_elapsed":960174,"internal_node_id":"0.0-5.0-5.0"},{"rt":179911.02000002866,"responses":"{\"pregunta13\":\"c) El concepto de normalidad es diferente para un psiquiatra que para nosotros. \"}","question_order":"[0]","trial_type":"survey-multi-choice","trial_index":11,"time_elapsed":1140086,"internal_node_id":"0.0-5.0-6.0"},{"rt":2354.795000021113,"response":{"pregunta13 likert":2},"question_order":[0],"trial_type":"survey-likert","trial_index":12,"time_elapsed":1142445,"internal_node_id":"0.0-5.0-7.0"},{"rt":52373.74500001897,"responses":"{\"pregunta23\":\"b) A la influencia de grupos que rechazaban su música. \"}","question_order":"[0]","trial_type":"survey-multi-choice","trial_index":13,"time_elapsed":1194824,"internal_node_id":"0.0-5.0-8.0"},{"rt":2170.2649999933783,"response":{"pregunta23 likert":2},"question_order":[0],"trial_type":"survey-likert","trial_index":14,"time_elapsed":1196999,"internal_node_id":"0.0-5.0-9.0"},{"rt":140450.3899999836,"responses":"{\"pregunta1\":\"a) Aportan informaciones con las que se reconstruye el personaje dentro de un relato. \"}","question_order":"[0]","trial_type":"survey-multi-choice","trial_index":15,"time_elapsed":1337454,"internal_node_id":"0.0-5.0-10.0"},{"rt":2675.7999999972526,"response":{"pregunta1 likert":1},"question_order":[0],"trial_type":"survey-likert","trial_index":16,"time_elapsed":1340135,"internal_node_id":"0.0-5.0-11.0"},{"rt":96604.090000008,"responses":"{\"pregunta17\":\"a) Homenajear a quienes murieron. \"}","question_order":"[0]","trial_type":"survey-multi-choice","trial_index":17,"time_elapsed":1436748,"internal_node_id":"0.0-5.0-12.0"},{"rt":3006.889999989653,"response":{"pregunta17 likert":2},"question_order":[0],"trial_type":"survey-likert","trial_index":18,"time_elapsed":1439760,"internal_node_id":"0.0-5.0-13.0"},{"rt":124168.59000001568,"responses":"{\"pregunta18\":\"c) Al premio merecido después de tantos esfuerzos. \"}","question_order":"[0]","trial_type":"survey-multi-choice","trial_index":19,"time_elapsed":1563932,"internal_node_id":"0.0-5.0-14.0"},{"rt":2268.914999993285,"response":{"pregunta18 likert":2},"question_order":[0],"trial_type":"survey-likert","trial_index":20,"time_elapsed":1566206,"internal_node_id":"0.0-5.0-15.0"},{"rt":171829.9699999916,"responses":"{\"pregunta21\":\"c) el uranio es el elemento natural con el mayor número de protones en el núcleo. \"}","question_order":"[0]","trial_type":"survey-multi-choice","trial_index":21,"time_elapsed":1738039,"internal_node_id":"0.0-5.0-16.0"},{"rt":2611.4850000012666,"response":{"pregunta21 likert":1},"question_order":[0],"trial_type":"survey-likert","trial_index":22,"time_elapsed":1740655,"internal_node_id":"0.0-5.0-17.0"},{"rt":108654.29000000586,"responses":"{\"pregunta11\":\"c) Promover la asistencia a un evento específico de decoración a través de una atractiva descripción. \"}","question_order":"[0]","trial_type":"survey-multi-choice","trial_index":23,"time_elapsed":1849316,"internal_node_id":"0.0-5.0-18.0"},{"rt":2151.305000006687,"response":{"pregunta11 likert":2},"question_order":[0],"trial_type":"survey-likert","trial_index":24,"time_elapsed":1851472,"internal_node_id":"0.0-5.0-19.0"},{"rt":67743.01999999443,"responses":"{\"pregunta5\":\"b) Los momentos triviales de los viajes, en la escritura se vuelven significativos. \"}","question_order":"[0]","trial_type":"survey-multi-choice","trial_index":25,"time_elapsed":1919218,"internal_node_id":"0.0-5.0-20.0"},{"rt":2157.5900000170805,"response":{"pregunta5 likert":2},"question_order":[0],"trial_type":"survey-likert","trial_index":26,"time_elapsed":1921383,"internal_node_id":"0.0-5.0-21.0"},{"rt":108645.38999999058,"responses":"{\"pregunta7\":\"c) Si desaparecieran el papel y la imprenta, se produciría un gran retraso en nuestra civilización. \"}","question_order":"[0]","trial_type":"survey-multi-choice","trial_index":27,"time_elapsed":2030033,"internal_node_id":"0.0-5.0-22.0"},{"rt":3517.46999999159,"response":{"pregunta7 likert":1},"question_order":[0],"trial_type":"survey-likert","trial_index":28,"time_elapsed":2033555,"internal_node_id":"0.0-5.0-23.0"},{"rt":98806.31000001472,"responses":"{\"pregunta2\":\"c) A la relación entre pensamiento y estructura social. \"}","question_order":"[0]","trial_type":"survey-multi-choice","trial_index":29,"time_elapsed":2132367,"internal_node_id":"0.0-5.0-24.0"},{"rt":4200.504999985918,"response":{"pregunta2 likert":2},"question_order":[0],"trial_type":"survey-likert","trial_index":30,"time_elapsed":2136573,"internal_node_id":"0.0-5.0-25.0"},{"rt":39259.22000000719,"responses":"{\"pregunta30\":\"c) para el mexicano, la muerte es cotidiana. \"}","question_order":"[0]","trial_type":"survey-multi-choice","trial_index":31,"time_elapsed":2175837,"internal_node_id":"0.0-5.0-26.0"},{"rt":2607.6400000015274,"response":{"pregunta30 likert":2},"question_order":[0],"trial_type":"survey-likert","trial_index":32,"time_elapsed":2178449,"internal_node_id":"0.0-5.0-27.0"},{"rt":81487.11000001663,"responses":"{\"pregunta24\":\"a) El receptor es habitualmente pasivo frente a la publicidad. \"}","question_order":"[0]","trial_type":"survey-multi-choice","trial_index":33,"time_elapsed":2259936,"internal_node_id":"0.0-5.0-28.0"},{"rt":2701.4999999953434,"response":{"pregunta24 likert":2},"question_order":[0],"trial_type":"survey-likert","trial_index":34,"time_elapsed":2262642,"internal_node_id":"0.0-5.0-29.0"},{"rt":32192.1450000084,"responses":"{\"pregunta3\":\"a) El inicio de la civilización china. \"}","question_order":"[0]","trial_type":"survey-multi-choice","trial_index":35,"time_elapsed":2294838,"internal_node_id":"0.0-5.0-30.0"},{"rt":3107.014999987092,"response":{"pregunta3 likert":2},"question_order":[0],"trial_type":"survey-likert","trial_index":36,"time_elapsed":2297950,"internal_node_id":"0.0-5.0-31.0"},{"rt":75793.2900000019,"responses":"{\"pregunta14\":\"c) preparar los recuerdos del mañana. \"}","question_order":"[0]","trial_type":"survey-multi-choice","trial_index":37,"time_elapsed":2373752,"internal_node_id":"0.0-5.0-32.0"},{"rt":3122.285000019707,"response":{"pregunta14 likert":2},"question_order":[0],"trial_type":"survey-likert","trial_index":38,"time_elapsed":2376878,"internal_node_id":"0.0-5.0-33.0"},{"rt":64455.950000003446,"responses":"{\"pregunta22\":\"a) Bomberos debería tener acceso a un seguro médico, al que pueda recurrir en caso de accidente. \"}","question_order":"[0]","trial_type":"survey-multi-choice","trial_index":39,"time_elapsed":2441333,"internal_node_id":"0.0-5.0-34.0"},{"rt":3992.3849999904633,"response":{"pregunta22 likert":2},"question_order":[0],"trial_type":"survey-likert","trial_index":40,"time_elapsed":2445330,"internal_node_id":"0.0-5.0-35.0"},{"rt":146955.16499999212,"responses":"{\"pregunta8\":\"b) Dar a conocer al ganador del premio Cervantes. \"}","question_order":"[0]","trial_type":"survey-multi-choice","trial_index":41,"time_elapsed":2592290,"internal_node_id":"0.0-5.0-36.0"},{"rt":3182.234999985434,"response":{"pregunta8 likert":1},"question_order":[0],"trial_type":"survey-likert","trial_index":42,"time_elapsed":2595477,"internal_node_id":"0.0-5.0-37.0"},{"rt":194513.4649999966,"responses":"{\"pregunta10\":\"c) La biónica es una disciplina que tiene su origen en la ecología. \"}","question_order":"[0]","trial_type":"survey-multi-choice","trial_index":43,"time_elapsed":2789998,"internal_node_id":"0.0-5.0-38.0"},{"rt":2745.7500000018626,"response":{"pregunta10 likert":1},"question_order":[0],"trial_type":"survey-likert","trial_index":44,"time_elapsed":2792749,"internal_node_id":"0.0-5.0-39.0"},{"rt":88901.85500000324,"responses":"{\"pregunta16\":\"b) Provocar el deseo de la adquisición vertiginosa. \"}","question_order":"[0]","trial_type":"survey-multi-choice","trial_index":45,"time_elapsed":2881653,"internal_node_id":"0.0-5.0-40.0"},{"rt":2396.435000002384,"response":{"pregunta16 likert":2},"question_order":[0],"trial_type":"survey-likert","trial_index":46,"time_elapsed":2884054,"internal_node_id":"0.0-5.0-41.0"},{"rt":115454.93000000715,"responses":"{\"pregunta28\":\"a) Se necesita un marco legal para delimitar lo público y lo privado en materia informativa. \"}","question_order":"[0]","trial_type":"survey-multi-choice","trial_index":47,"time_elapsed":2999518,"internal_node_id":"0.0-5.0-42.0"},{"rt":4084.00500001153,"response":{"pregunta28 likert":1},"question_order":[0],"trial_type":"survey-likert","trial_index":48,"time_elapsed":3003606,"internal_node_id":"0.0-5.0-43.0"},{"rt":111344.69500000682,"responses":"{\"pregunta6\":\"b) Las voces extranjeras viven una tensión entre la aceptación y el rechazo. \"}","question_order":"[0]","trial_type":"survey-multi-choice","trial_index":49,"time_elapsed":3114952,"internal_node_id":"0.0-5.0-44.0"},{"rt":4270.145000016317,"response":{"pregunta6 likert":2},"question_order":[0],"trial_type":"survey-likert","trial_index":50,"time_elapsed":3119227,"internal_node_id":"0.0-5.0-45.0"},{"rt":151770.69000000507,"responses":"{\"pregunta9\":\"a) pueden ejercer profesiones científicas de la misma forma en que lo hacen los hombres. \"}","question_order":"[0]","trial_type":"survey-multi-choice","trial_index":51,"time_elapsed":3271003,"internal_node_id":"0.0-5.0-46.0"},{"rt":4407.860000006389,"response":{"pregunta9 likert":1},"question_order":[0],"trial_type":"survey-likert","trial_index":52,"time_elapsed":3275416,"internal_node_id":"0.0-5.0-47.0"},{"rt":80111.67000001296,"responses":"{\"pregunta20\":\"b) el mejor emperador es el que está muerto. \"}","question_order":"[0]","trial_type":"survey-multi-choice","trial_index":53,"time_elapsed":3355533,"internal_node_id":"0.0-5.0-48.0"},{"rt":3400.4600000046194,"response":{"pregunta20 likert":2},"question_order":[0],"trial_type":"survey-likert","trial_index":54,"time_elapsed":3358938,"internal_node_id":"0.0-5.0-49.0"},{"rt":87294.09499998996,"responses":"{\"pregunta4\":\"b) En la literatura como en la vida, lo importante son las preguntas. \"}","question_order":"[0]","trial_type":"survey-multi-choice","trial_index":55,"time_elapsed":3446232,"internal_node_id":"0.0-5.0-50.0"},{"rt":2958.90500000678,"response":{"pregunta4 likert":1},"question_order":[0],"trial_type":"survey-likert","trial_index":56,"time_elapsed":3449195,"internal_node_id":"0.0-5.0-51.0"},{"rt":89809.1150000114,"responses":"{\"pregunta29\":\"a) la Muerte vaticina el futuro mediante gestos. \"}","question_order":"[0]","trial_type":"survey-multi-choice","trial_index":57,"time_elapsed":3539010,"internal_node_id":"0.0-5.0-52.0"},{"rt":4904.845000011846,"response":{"pregunta29 likert":2},"question_order":[0],"trial_type":"survey-likert","trial_index":58,"time_elapsed":3543919,"internal_node_id":"0.0-5.0-53.0"},{"rt":78218.5499999905,"responses":"{\"pregunta12\":\"a) se da como existente, y sólo se discute su relación con el cuerpo. \"}","question_order":"[0]","trial_type":"survey-multi-choice","trial_index":59,"time_elapsed":3622145,"internal_node_id":"0.0-5.0-54.0"},{"rt":2071.3249999973923,"response":{"pregunta12 likert":1},"question_order":[0],"trial_type":"survey-likert","trial_index":60,"time_elapsed":3624221,"internal_node_id":"0.0-5.0-55.0"},{"rt":151982.5950000086,"responses":"{\"pregunta26\":\"c) para Aristóteles la virtud estaba en el justo equilibrio. \"}","question_order":"[0]","trial_type":"survey-multi-choice","trial_index":61,"time_elapsed":3776208,"internal_node_id":"0.0-5.0-56.0"},{"rt":2767.084999999497,"response":{"pregunta26 likert":1},"question_order":[0],"trial_type":"survey-likert","trial_index":62,"time_elapsed":3778980,"internal_node_id":"0.0-5.0-57.0"},{"rt":71778.45499999216,"responses":"{\"pregunta27\":\"b) El TLC causará una completa transformación de la economía chilena. \"}","question_order":"[0]","trial_type":"survey-multi-choice","trial_index":63,"time_elapsed":3850761,"internal_node_id":"0.0-5.0-58.0"},{"rt":3803.1900000059977,"response":{"pregunta27 likert":1},"question_order":[0],"trial_type":"survey-likert","trial_index":64,"time_elapsed":3854569,"internal_node_id":"0.0-5.0-59.0"},{"rt":3498.5699999956414,"stimulus":"<p style=\"font-size: 120%\">Gracias por completar esta etapa del estudio. Ahora te invitamos a responder el cuestionario.<br><br></p>","response":0,"trial_type":"html-button-response","trial_index":65,"time_elapsed":3858080,"internal_node_id":"0.0-6.0"},{"rt":25176.259999978356,"stimulus":"<h1 style=\"margin-top: 5%\">Cuestionario para la Evaluación de Metas Académicas</h1><p style=\"font-size: 120%; margin-left: 3%; margin-top: 5%\">Este es un cuestionario que permite conocer cuáles son los principales motivos por los que los estudiantes se esfuerzan en su trabajo académico. A continuación, se te presentarán una serie de afirmaciones acerca de los motivos que puedes tener para estudiar.<br>Te pedimos que contestes a dichas afirmaciones reflexionando sobre el contenido de cada una de ellas, que, aunque te parezcan semejantes, en realidad, no lo son.<br>NO HAY RESPUESTAS CORRECTAS o INCORRECTAS, sólo queremos que respondas con la mayor precisión y sinceridad posible a las preguntas que se plantean.","response":0,"trial_type":"html-button-response","trial_index":66,"time_elapsed":3883259,"internal_node_id":"0.0-7.0"},{"rt":172851.44999998715,"response":{"Metas cuestionario pregunta1":2,"Metas cuestionario pregunta2":2,"Metas cuestionario pregunta3":2,"Metas cuestionario pregunta4":2,"Metas cuestionario pregunta5":3,"Metas cuestionario pregunta6":2,"Metas cuestionario pregunta7":3,"Metas cuestionario pregunta8":3,"Metas cuestionario pregunta9":1,"Metas cuestionario pregunta10":0,"Metas cuestionario pregunta11":0,"Metas cuestionario pregunta12":0,"Metas cuestionario pregunta13":0,"Metas cuestionario pregunta14":2,"Metas cuestionario pregunta15":3,"Metas cuestionario pregunta16":4,"Metas cuestionario pregunta17":4,"Metas cuestionario pregunta18":4,"Metas cuestionario pregunta19":4,"Metas cuestionario pregunta20":3},"question_order":[0,1,2,3,4,5,6,7,8,9,10,11,12,13,14,15,16,17,18,19],"trial_type":"survey-likert","trial_index":67,"time_elapsed":4056133,"internal_node_id":"0.0-8.0"},{"rt":3088.679999986198,"stimulus":"<p style=\"font-size: 120%\">Gracias por responder el cuestionario. Ahora te invitamos a seguir con el juego, que es muy breve.<br><br></p>","response":0,"trial_type":"html-button-response","trial_index":68,"time_elapsed":4059235,"internal_node_id":"0.0-9.0"},{"rt":61047.809999989346,"stimulus":"<h1>Juego</h1><p style=\"font-size: 120%;\">A continuación se te presentarán 16 pequeñas historias.<br>Por favor lee el texto presentado en cada una de ellas y luego haz click en el objeto de tu elección.<br>Si estás listo(a),<span style=\"color:red;\"> haz click en \"comenzar\"</span>.</p>","response":0,"trial_type":"html-button-response","trial_index":69,"time_elapsed":4120290,"internal_node_id":"0.0-10.0"},{"rt":12975.420000002254,"grid":[[1],[1],[1],[1],[1],[1]],"target":[0,0],"response":[2,0],"correct":false,"juego":5,"trial_type":"serial-reaction-time-mouse","trial_index":70,"time_elapsed":4133271,"internal_node_id":"0.0-11.0-0.0"},{"rt":15782.469999976456,"grid":[[1,1],[1,1],[1,1],[1,1],[1,1],[1,1],[1,1]],"target":[0,0],"response":[3,1],"correct":false,"juego":14,"trial_type":"serial-reaction-time-mouse","trial_index":71,"time_elapsed":4149057,"internal_node_id":"0.0-11.0-1.0"},{"rt":5473.269999987911,"grid":[[1,1,1]],"target":[0,2],"response":[0,1],"correct":false,"juego":2,"trial_type":"serial-reaction-time-mouse","trial_index":72,"time_elapsed":4154534,"internal_node_id":"0.0-11.0-2.0"},{"rt":15142.454999993555,"grid":[[1,1,1]],"target":[0,2],"response":[0,2],"correct":true,"juego":3,"trial_type":"serial-reaction-time-mouse","trial_index":73,"time_elapsed":4169680,"internal_node_id":"0.0-11.0-3.0"},{"rt":12154.879999987315,"grid":[[1,1,1]],"target":[0,0],"response":[0,1],"correct":false,"juego":9,"trial_type":"serial-reaction-time-mouse","trial_index":74,"time_elapsed":4181835,"internal_node_id":"0.0-11.0-4.0"},{"rt":13480.38500000257,"grid":[[1,1,1],[1,1,1],[1,1,1]],"target":[0,0],"response":[1,2],"correct":false,"juego":10,"trial_type":"serial-reaction-time-mouse","trial_index":75,"time_elapsed":4195318,"internal_node_id":"0.0-11.0-5.0"},{"rt":14225.054999988526,"grid":[[1,1,1]],"target":[0,0],"response":[0,1],"correct":false,"juego":11,"trial_type":"serial-reaction-time-mouse","trial_index":76,"time_elapsed":4209546,"internal_node_id":"0.0-11.0-6.0"},{"rt":9278.045000013895,"grid":[[1,1,1],[1,1,1],[1,1,1],[1,1,1],[1,1,1],[1,1,1],[1,1,1]],"target":[0,0],"response":[1,1],"correct":false,"juego":6,"trial_type":"serial-reaction-time-mouse","trial_index":77,"time_elapsed":4218830,"internal_node_id":"0.0-11.0-7.0"},{"rt":17212.874999998137,"grid":[[1,1,1]],"target":[0,0],"response":[0,1],"correct":false,"juego":12,"trial_type":"serial-reaction-time-mouse","trial_index":78,"time_elapsed":4236045,"internal_node_id":"0.0-11.0-8.0"},{"rt":7014.085000001825,"grid":[[1,1,1]],"target":[0,2],"response":[0,1],"correct":false,"juego":8,"trial_type":"serial-reaction-time-mouse","trial_index":79,"time_elapsed":4243063,"internal_node_id":"0.0-11.0-9.0"},{"rt":4282.019999984652,"grid":[[1],[1],[1]],"target":[0,2],"response":[2,0],"correct":false,"juego":4,"trial_type":"serial-reaction-time-mouse","trial_index":80,"time_elapsed":4247348,"internal_node_id":"0.0-11.0-10.0"},{"rt":7771.6899999938905,"grid":[[1,1,1]],"target":[0,2],"response":[0,1],"correct":false,"juego":7,"trial_type":"serial-reaction-time-mouse","trial_index":81,"time_elapsed":4255123,"internal_node_id":"0.0-11.0-11.0"},{"rt":4464.054999989457,"grid":[[1,1,1]],"target":[0,2],"response":[0,0],"correct":false,"juego":1,"trial_type":"serial-reaction-time-mouse","trial_index":82,"time_elapsed":4259589,"internal_node_id":"0.0-11.0-12.0"},{"rt":6979.180000023916,"grid":[[1,1,1],[1,1,1],[1,1,1],[1,1,1],[1,1,1],[1,1,1],[1,1,1]],"target":[0,0],"response":[1,1],"correct":false,"juego":13,"trial_type":"serial-reaction-time-mouse","trial_index":83,"time_elapsed":4266574,"internal_node_id":"0.0-11.0-13.0"},{"rt":16997.294999979436,"grid":[[1,1],[1,1],[1,1],[1,1],[1,1],[1,1],[1,1]],"target":[0,0],"response":[3,1],"correct":false,"juego":15,"trial_type":"serial-reaction-time-mouse","trial_index":84,"time_elapsed":4283576,"internal_node_id":"0.0-11.0-14.0"},{"rt":8815.52000000421,"stimulus":"<h1>Último juego</h1><p style=\"font-size: 130%;\">Tienes <span style=\"color:red\">20</span> segundos para recordar los pares de palabras que aparecerán a continuación. <br></p>","response":0,"trial_type":"html-button-response","trial_index":85,"time_elapsed":4292400,"internal_node_id":"0.0-12.0"},{"animation_sequence":[{"stimulus":"imagen_juego_interferencia.jpg","time":543.5249999864027},{"stimulus":"imagen_juego_interferencia.jpg","time":1004.4000000050291},{"stimulus":"imagen_juego_interferencia.jpg","time":1505.2499999878928},{"stimulus":"imagen_juego_interferencia.jpg","time":2006.4349999884143},{"stimulus":"imagen_juego_interferencia.jpg","time":2503.2800000049174},{"stimulus":"imagen_juego_interferencia.jpg","time":3004.119999998249},{"stimulus":"imagen_juego_interferencia.jpg","time":3506.094999990426},{"stimulus":"imagen_juego_interferencia.jpg","time":4009.404999990016},{"stimulus":"imagen_juego_interferencia.jpg","time":4502.574999991804},{"stimulus":"imagen_juego_interferencia.jpg","time":5003.2849999843165},{"stimulus":"imagen_juego_interferencia.jpg","time":5507.199999992736},{"stimulus":"imagen_juego_interferencia.jpg","time":6012.984999979846},{"stimulus":"imagen_juego_interferencia.jpg","time":6508.289999998175},{"stimulus":"imagen_juego_interferencia.jpg","time":7004.54999998305},{"stimulus":"imagen_juego_interferencia.jpg","time":7505.559999990277},{"stimulus":"imagen_juego_interferencia.jpg","time":8013.514999998733},{"stimulus":"imagen_juego_interferencia.jpg","time":8513.69999998156},{"stimulus":"imagen_juego_interferencia.jpg","time":9016.134999983944},{"stimulus":"imagen_juego_interferencia.jpg","time":9510.584999982268},{"stimulus":"imagen_juego_interferencia.jpg","time":10003.594999987632},{"stimulus":"imagen_juego_interferencia.jpg","time":10506.029999990016},{"stimulus":"imagen_juego_interferencia.jpg","time":11003.375000000931},{"stimulus":"imagen_juego_interferencia.jpg","time":11506.594999984838},{"stimulus":"imagen_juego_interferencia.jpg","time":12004.989999987185},{"stimulus":"imagen_juego_interferencia.jpg","time":12503.059999988414},{"stimulus":"imagen_juego_interferencia.jpg","time":13006.319999986328},{"stimulus":"imagen_juego_interferencia.jpg","time":13505.564999999478},{"stimulus":"imagen_juego_interferencia.jpg","time":14013.84499997925},{"stimulus":"imagen_juego_interferencia.jpg","time":14505.904999998398},{"stimulus":"imagen_juego_interferencia.jpg","time":15010.454999981448},{"stimulus":"imagen_juego_interferencia.jpg","time":15508.224999997765},{"stimulus":"imagen_juego_interferencia.jpg","time":16003.16999998223},{"stimulus":"imagen_juego_interferencia.jpg","time":16507.71499998588},{"stimulus":"imagen_juego_interferencia.jpg","time":17004.12499997765},{"stimulus":"imagen_juego_interferencia.jpg","time":17504.53499998618},{"stimulus":"imagen_juego_interferencia.jpg","time":18011.945000005886},{"stimulus":"imagen_juego_interferencia.jpg","time":18506.039999978617},{"stimulus":"imagen_juego_interferencia.jpg","time":19006.029999990016},{"stimulus":"imagen_juego_interferencia.jpg","time":19507.419999980368},{"stimulus":"imagen_juego_interferencia.jpg","time":20007.77999998536}],"response":[],"trial_type":"animation","trial_index":86,"time_elapsed":4312914,"internal_node_id":"0.0-13.0"},{"rt":16434.095000004396,"responses":"{\"pregunta interferencia2\":\"cucaracha\"}","question_order":"[0]","trial_type":"survey-multi-choice-cuest","trial_index":87,"time_elapsed":4329353,"internal_node_id":"0.0-14.0-0.0"},{"rt":6475.090000021271,"responses":"{\"pregunta interferencia1\":\"naranja\"}","question_order":"[0]","trial_type":"survey-multi-choice-cuest","trial_index":88,"time_elapsed":4335832,"internal_node_id":"0.0-14.0-1.0"},{"rt":5168.000000005588,"responses":"{\"pregunta interferencia4\":\"contador\"}","question_order":"[0]","trial_type":"survey-multi-choice-cuest","trial_index":89,"time_elapsed":4341005,"internal_node_id":"0.0-14.0-2.0"},{"rt":46500.39499998093,"responses":"{\"pregunta interferencia3\":\"aluminio\"}","question_order":"[0]","trial_type":"survey-multi-choice-cuest","trial_index":90,"time_elapsed":4387509,"internal_node_id":"0.0-14.0-3.0"},{"success":true,"trial_type":"fullscreen","trial_index":91,"time_elapsed":4388526,"internal_node_id":"0.0-15.0"},{"rt":115590.51999999862,"responses":"{\"Telefono\":\"+56949639389\"}","trial_type":"survey-text","trial_index":92,"time_elapsed":4504134,"internal_node_id":"0.0-16.0"}]