[{"rt":15562.765000009676,"stimulus":"<h1 style=\"color:red; margin-top: 3%;\">¡Bienvenido(a)!</h1><p style=\"text-align:left; justify-content:space-between; margin-right: 5%; margin-left: 5%; margin-top: 5%\"> Antes de empezar el estudio, necesitamos que nos confirmes que estás de acuerdo con participar. Recuerda que tu participación es 100% voluntaria y que lo único que te pedimos es responder lo mejor que puedas. Recuerda también que el estudio incluye:</p><ol style=\"text-align:left; justify-content:space-between; margin-right: 5%; margin-left: 5%;\"><li> un ejercicio de resolución de preguntas de selección múltiple (30’),</li><li>un cuestionario breve (5’),</li><li>un juego muy breve (3’),</li></ol><p style=\"text-align:left; justify-content:space-between; margin-right: 5%; margin-left: 5%;\">Si quieres participar, haz clic en “Acepto” luego de leer lo siguiente:<br></p><p style=\"text-align:left; justify-content:space-between; margin-right: 5%; margin-left: 5%;\">Acepto participar en el estudio “Estrategias de lectura y resolución de preguntas de selección múltiple”, en los términos aquí señalados:<br></p><p style=\"text-align:left; justify-content:space-between; margin-right: 5%; margin-left: 5%;\"><a href=\"http://ciae.uchile.cl/download.php?file=noticias/Asentimiento.pdf\" target=\"_blank\">Link a la hoja de información del Consentimiento.</a></p><p style=\"text-align:left; justify-content:space-between; margin-right: 5%; margin-left: 5%;\">Declaro que he leído (o se me ha leído) y (he) comprendido, las condiciones de mi participación en este estudio. He tenido la oportunidad de hacer preguntas y éstas han sido respondidas. No tengo dudas al respecto.</p>","response":0,"condicion_MCQ":3,"condicion_INTER":15,"numero_participante":63,"numero_version":2,"dimx":1366,"dimy":768,"color_profundidad":24,"pixel_profundidad":24,"Browser":"Google Chrome","trial_type":"html-button-response","trial_index":0,"time_elapsed":15566,"internal_node_id":"0.0-0.0"},{"success":true,"trial_type":"fullscreen","trial_index":1,"time_elapsed":17998,"internal_node_id":"0.0-1.0"},{"rt":167699.32499999413,"responses":"{\"Nombres\":\"Juan Pablo\",\"Apellidos\":\"Acevedo Bugueño\",\"Edad\":\"19\",\"Sexo\":\"Hombre\",\"Curso\":\"Primer año universitario sección 202\",\"Colegio\":\"Universidad Andrés Bello\",\"Contacto\":\"jpacevedo115@gmail.com\"}","trial_type":"survey-text","trial_index":2,"time_elapsed":185748,"internal_node_id":"0.0-2.0"},{"success":true,"timeout":false,"failed_images":[],"failed_audio":[],"failed_video":[],"trial_type":"preload","trial_index":3,"time_elapsed":186912,"internal_node_id":"0.0-3.0"},{"rt":10461.530000000494,"stimulus":"<h1 style:\"margin-top: 5%;\">Ejercicios de Comprensión de Lectura de la Universidad de Chile</h1><p style=\"font-size: 120%;\">En esta actividad, debes responder 30 preguntas de selección múltiple. Cada pregunta presenta 3 respuestas alternativas, pero sólo una de ellas es correcta. Por lo tanto, debes escoger una sola alternativa para cada pregunta. Además, debes reportar qué tan seguro(a) estás de la respuesta que das, con un:</p><ol style=\"font-size: 120%;text-align:left;margin-left: 40%;\"><li>No estoy seguro(a) para nada</li><li>No estoy muy seguro(a)</li><li>Estoy bastante seguro(a)</li><li>Estoy totalmente seguro(a)</li></ol><p style=\"font-size: 120%;\">Por favor lee bien los enunciados antes de responder. ¡Éxito!</p>","response":0,"trial_type":"html-button-response","trial_index":4,"time_elapsed":197376,"internal_node_id":"0.0-4.0"},{"rt":31718.80999999121,"responses":"{\"pregunta10\":\"c) La biónica es una disciplina que aprovecha las condiciones del entorno. \"}","question_order":"[0]","trial_type":"survey-multi-choice","trial_index":5,"time_elapsed":229097,"internal_node_id":"0.0-5.0-0.0"},{"rt":4228.430000002845,"response":{"pregunta10 likert":3},"question_order":[0],"trial_type":"survey-likert","trial_index":6,"time_elapsed":233331,"internal_node_id":"0.0-5.0-1.0"},{"rt":28192.66499999503,"responses":"{\"pregunta18\":\"b) A la inutilidad de tanto esfuerzo si el objetivo es el reposo. \"}","question_order":"[0]","trial_type":"survey-multi-choice","trial_index":7,"time_elapsed":261529,"internal_node_id":"0.0-5.0-2.0"},{"rt":5202.810000002501,"response":{"pregunta18 likert":2},"question_order":[0],"trial_type":"survey-likert","trial_index":8,"time_elapsed":266736,"internal_node_id":"0.0-5.0-3.0"},{"rt":19954.275000010966,"responses":"{\"pregunta8\":\"a) Comparar a Cervantes con Quevedo. \"}","question_order":"[0]","trial_type":"survey-multi-choice","trial_index":9,"time_elapsed":286696,"internal_node_id":"0.0-5.0-4.0"},{"rt":2816.609999994398,"response":{"pregunta8 likert":2},"question_order":[0],"trial_type":"survey-likert","trial_index":10,"time_elapsed":289517,"internal_node_id":"0.0-5.0-5.0"},{"rt":16415.475000001607,"responses":"{\"pregunta21\":\"c) el uranio es el elemento natural con el mayor número de protones en el núcleo. \"}","question_order":"[0]","trial_type":"survey-multi-choice","trial_index":11,"time_elapsed":305936,"internal_node_id":"0.0-5.0-6.0"},{"rt":2521.1850000050617,"response":{"pregunta21 likert":3},"question_order":[0],"trial_type":"survey-likert","trial_index":12,"time_elapsed":308463,"internal_node_id":"0.0-5.0-7.0"},{"rt":34973.46500000276,"responses":"{\"pregunta7\":\"a) La imprenta y el papel han permitido el desarrollo de la civilización y la conservación de su cultura, y ambos son inventos chinos. \"}","question_order":"[0]","trial_type":"survey-multi-choice","trial_index":13,"time_elapsed":343441,"internal_node_id":"0.0-5.0-8.0"},{"rt":3140.129999999772,"response":{"pregunta7 likert":3},"question_order":[0],"trial_type":"survey-likert","trial_index":14,"time_elapsed":346586,"internal_node_id":"0.0-5.0-9.0"},{"rt":36207.259999995586,"responses":"{\"pregunta6\":\"b) Las voces extranjeras viven una tensión entre la aceptación y el rechazo. \"}","question_order":"[0]","trial_type":"survey-multi-choice","trial_index":15,"time_elapsed":382798,"internal_node_id":"0.0-5.0-10.0"},{"rt":4274.629999999888,"response":{"pregunta6 likert":1},"question_order":[0],"trial_type":"survey-likert","trial_index":16,"time_elapsed":387078,"internal_node_id":"0.0-5.0-11.0"},{"rt":33108.894999997574,"responses":"{\"pregunta25\":\"a) sufren dolores de espalda. \"}","question_order":"[0]","trial_type":"survey-multi-choice","trial_index":17,"time_elapsed":420191,"internal_node_id":"0.0-5.0-12.0"},{"rt":2814.0200000052573,"response":{"pregunta25 likert":2},"question_order":[0],"trial_type":"survey-likert","trial_index":18,"time_elapsed":423010,"internal_node_id":"0.0-5.0-13.0"},{"rt":31242.379999996047,"responses":"{\"pregunta9\":\"b) pueden ejercer profesiones científicas de la misma forma en que lo hacen los hombres. \"}","question_order":"[0]","trial_type":"survey-multi-choice","trial_index":19,"time_elapsed":454257,"internal_node_id":"0.0-5.0-14.0"},{"rt":3928.8800000067567,"response":{"pregunta9 likert":1},"question_order":[0],"trial_type":"survey-likert","trial_index":20,"time_elapsed":458191,"internal_node_id":"0.0-5.0-15.0"},{"rt":19432.070000009844,"responses":"{\"pregunta30\":\"c) para el mexicano, la muerte es cotidiana. \"}","question_order":"[0]","trial_type":"survey-multi-choice","trial_index":21,"time_elapsed":477628,"internal_node_id":"0.0-5.0-16.0"},{"rt":2611.495000004652,"response":{"pregunta30 likert":2},"question_order":[0],"trial_type":"survey-likert","trial_index":22,"time_elapsed":480244,"internal_node_id":"0.0-5.0-17.0"},{"rt":28503.240000005462,"responses":"{\"pregunta29\":\"b) el jardinero estará muerto al día siguiente. \"}","question_order":"[0]","trial_type":"survey-multi-choice","trial_index":23,"time_elapsed":508751,"internal_node_id":"0.0-5.0-18.0"},{"rt":3563.5999999940395,"response":{"pregunta29 likert":2},"question_order":[0],"trial_type":"survey-likert","trial_index":24,"time_elapsed":512320,"internal_node_id":"0.0-5.0-19.0"},{"rt":22888.355000002775,"responses":"{\"pregunta28\":\"a) Se necesita un marco legal para delimitar lo público y lo privado en materia informativa. \"}","question_order":"[0]","trial_type":"survey-multi-choice","trial_index":25,"time_elapsed":535213,"internal_node_id":"0.0-5.0-20.0"},{"rt":5448.635000007926,"response":{"pregunta28 likert":2},"question_order":[0],"trial_type":"survey-likert","trial_index":26,"time_elapsed":540666,"internal_node_id":"0.0-5.0-21.0"},{"rt":23192.45000000228,"responses":"{\"pregunta11\":\"c) Promover la asistencia a un evento específico de decoración a través de una atractiva descripción. \"}","question_order":"[0]","trial_type":"survey-multi-choice","trial_index":27,"time_elapsed":563863,"internal_node_id":"0.0-5.0-22.0"},{"rt":4132.324999998673,"response":{"pregunta11 likert":3},"question_order":[0],"trial_type":"survey-likert","trial_index":28,"time_elapsed":568001,"internal_node_id":"0.0-5.0-23.0"},{"rt":29802.345000003697,"responses":"{\"pregunta5\":\"c) La escritura plasma los mejores momentos de los viajes. \"}","question_order":"[0]","trial_type":"survey-multi-choice","trial_index":29,"time_elapsed":597807,"internal_node_id":"0.0-5.0-24.0"},{"rt":2793.1249999965075,"response":{"pregunta5 likert":2},"question_order":[0],"trial_type":"survey-likert","trial_index":30,"time_elapsed":600605,"internal_node_id":"0.0-5.0-25.0"},{"rt":38292.8799999936,"responses":"{\"pregunta16\":\"b) Provocar el deseo de la adquisición vertiginosa. \"}","question_order":"[0]","trial_type":"survey-multi-choice","trial_index":31,"time_elapsed":638902,"internal_node_id":"0.0-5.0-26.0"},{"rt":2904.485000006389,"response":{"pregunta16 likert":2},"question_order":[0],"trial_type":"survey-likert","trial_index":32,"time_elapsed":641811,"internal_node_id":"0.0-5.0-27.0"},{"rt":27246.234999998705,"responses":"{\"pregunta23\":\"b) A la influencia de grupos que rechazaban su música. \"}","question_order":"[0]","trial_type":"survey-multi-choice","trial_index":33,"time_elapsed":669062,"internal_node_id":"0.0-5.0-28.0"},{"rt":2377.2049999970477,"response":{"pregunta23 likert":2},"question_order":[0],"trial_type":"survey-likert","trial_index":34,"time_elapsed":671444,"internal_node_id":"0.0-5.0-29.0"},{"rt":21075.069999991683,"responses":"{\"pregunta2\":\"c) A la relación entre pensamiento y estructura social. \"}","question_order":"[0]","trial_type":"survey-multi-choice","trial_index":35,"time_elapsed":692524,"internal_node_id":"0.0-5.0-30.0"},{"rt":4940.434999996796,"response":{"pregunta2 likert":2},"question_order":[0],"trial_type":"survey-likert","trial_index":36,"time_elapsed":697469,"internal_node_id":"0.0-5.0-31.0"},{"rt":15746.159999995143,"responses":"{\"pregunta22\":\"a) Bomberos debería tener acceso a un seguro médico, al que pueda recurrir en caso de accidente. \"}","question_order":"[0]","trial_type":"survey-multi-choice","trial_index":37,"time_elapsed":713220,"internal_node_id":"0.0-5.0-32.0"},{"rt":2863.199999992503,"response":{"pregunta22 likert":2},"question_order":[0],"trial_type":"survey-likert","trial_index":38,"time_elapsed":716088,"internal_node_id":"0.0-5.0-33.0"},{"rt":36282.6400000049,"responses":"{\"pregunta1\":\"a) Aportan informaciones con las que se reconstruye el personaje dentro de un relato. \"}","question_order":"[0]","trial_type":"survey-multi-choice","trial_index":39,"time_elapsed":752376,"internal_node_id":"0.0-5.0-34.0"},{"rt":4019.0050000092015,"response":{"pregunta1 likert":3},"question_order":[0],"trial_type":"survey-likert","trial_index":40,"time_elapsed":756400,"internal_node_id":"0.0-5.0-35.0"},{"rt":34896.9700000016,"responses":"{\"pregunta17\":\"c) Atraer a los turistas. \"}","question_order":"[0]","trial_type":"survey-multi-choice","trial_index":41,"time_elapsed":791300,"internal_node_id":"0.0-5.0-36.0"},{"rt":4333.505000002333,"response":{"pregunta17 likert":2},"question_order":[0],"trial_type":"survey-likert","trial_index":42,"time_elapsed":795639,"internal_node_id":"0.0-5.0-37.0"},{"rt":25965.205000000424,"responses":"{\"pregunta4\":\"b) En la literatura como en la vida, lo importante son las preguntas. \"}","question_order":"[0]","trial_type":"survey-multi-choice","trial_index":43,"time_elapsed":821608,"internal_node_id":"0.0-5.0-38.0"},{"rt":4950.479999999516,"response":{"pregunta4 likert":2},"question_order":[0],"trial_type":"survey-likert","trial_index":44,"time_elapsed":826564,"internal_node_id":"0.0-5.0-39.0"},{"rt":17111.48000000685,"responses":"{\"pregunta27\":\"c) Nuestra economía vivirá un proceso de ajuste a la nueva realidad. \"}","question_order":"[0]","trial_type":"survey-multi-choice","trial_index":45,"time_elapsed":843680,"internal_node_id":"0.0-5.0-40.0"},{"rt":4282.039999990957,"response":{"pregunta27 likert":2},"question_order":[0],"trial_type":"survey-likert","trial_index":46,"time_elapsed":847966,"internal_node_id":"0.0-5.0-41.0"},{"rt":26031.254999994417,"responses":"{\"pregunta14\":\"a) un recuerdo nostálgico. \"}","question_order":"[0]","trial_type":"survey-multi-choice","trial_index":47,"time_elapsed":874004,"internal_node_id":"0.0-5.0-42.0"},{"rt":4991.179999997257,"response":{"pregunta14 likert":2},"question_order":[0],"trial_type":"survey-likert","trial_index":48,"time_elapsed":879000,"internal_node_id":"0.0-5.0-43.0"},{"rt":31471.850000001723,"responses":"{\"pregunta20\":\"a) la muerte de Wu Ti fue una bendición. \"}","question_order":"[0]","trial_type":"survey-multi-choice","trial_index":49,"time_elapsed":910476,"internal_node_id":"0.0-5.0-44.0"},{"rt":3166.8299999873852,"response":{"pregunta20 likert":2},"question_order":[0],"trial_type":"survey-likert","trial_index":50,"time_elapsed":913648,"internal_node_id":"0.0-5.0-45.0"},{"rt":17978.22499999893,"responses":"{\"pregunta3\":\"a) El inicio de la civilización china. \"}","question_order":"[0]","trial_type":"survey-multi-choice","trial_index":51,"time_elapsed":931631,"internal_node_id":"0.0-5.0-46.0"},{"rt":5790.455000009388,"response":{"pregunta3 likert":2},"question_order":[0],"trial_type":"survey-likert","trial_index":52,"time_elapsed":937426,"internal_node_id":"0.0-5.0-47.0"},{"rt":30821.45999999193,"responses":"{\"pregunta19\":\"b) Las personas que leen son más flexibles en sus ideas y autónomas en su accionar. \"}","question_order":"[0]","trial_type":"survey-multi-choice","trial_index":53,"time_elapsed":968251,"internal_node_id":"0.0-5.0-48.0"},{"rt":2730.6749999988824,"response":{"pregunta19 likert":2},"question_order":[0],"trial_type":"survey-likert","trial_index":54,"time_elapsed":970986,"internal_node_id":"0.0-5.0-49.0"},{"rt":25004.784999997355,"responses":"{\"pregunta15\":\"c) ritualistas y obsesivos. \"}","question_order":"[0]","trial_type":"survey-multi-choice","trial_index":55,"time_elapsed":995996,"internal_node_id":"0.0-5.0-50.0"},{"rt":3723.725000003469,"response":{"pregunta15 likert":2},"question_order":[0],"trial_type":"survey-likert","trial_index":56,"time_elapsed":999724,"internal_node_id":"0.0-5.0-51.0"},{"rt":29974.754999988363,"responses":"{\"pregunta12\":\"a) se da como existente, y sólo se discute su relación con el cuerpo. \"}","question_order":"[0]","trial_type":"survey-multi-choice","trial_index":57,"time_elapsed":1029704,"internal_node_id":"0.0-5.0-52.0"},{"rt":2497.974999991129,"response":{"pregunta12 likert":2},"question_order":[0],"trial_type":"survey-likert","trial_index":58,"time_elapsed":1032206,"internal_node_id":"0.0-5.0-53.0"},{"rt":32141.08499999577,"responses":"{\"pregunta13\":\"b) El ser humano se comporta de acuerdo con las circunstancias. \"}","question_order":"[0]","trial_type":"survey-multi-choice","trial_index":59,"time_elapsed":1064352,"internal_node_id":"0.0-5.0-54.0"},{"rt":3186.3000000012107,"response":{"pregunta13 likert":2},"question_order":[0],"trial_type":"survey-likert","trial_index":60,"time_elapsed":1067543,"internal_node_id":"0.0-5.0-55.0"},{"rt":34126.619999995455,"responses":"{\"pregunta26\":\"a) el sujeto sufre con su modo de vida. \"}","question_order":"[0]","trial_type":"survey-multi-choice","trial_index":61,"time_elapsed":1101674,"internal_node_id":"0.0-5.0-56.0"},{"rt":2588.665000002831,"response":{"pregunta26 likert":1},"question_order":[0],"trial_type":"survey-likert","trial_index":62,"time_elapsed":1104267,"internal_node_id":"0.0-5.0-57.0"},{"rt":35143.36000000173,"responses":"{\"pregunta24\":\"a) El receptor es habitualmente pasivo frente a la publicidad. \"}","question_order":"[0]","trial_type":"survey-multi-choice","trial_index":63,"time_elapsed":1139416,"internal_node_id":"0.0-5.0-58.0"},{"rt":2658.6149999930058,"response":{"pregunta24 likert":2},"question_order":[0],"trial_type":"survey-likert","trial_index":64,"time_elapsed":1142080,"internal_node_id":"0.0-5.0-59.0"},{"rt":2098.2749999966472,"stimulus":"<p style=\"font-size: 120%\">Gracias por completar esta etapa del estudio. Ahora te invitamos a responder el cuestionario.<br><br></p>","response":0,"trial_type":"html-button-response","trial_index":65,"time_elapsed":1144186,"internal_node_id":"0.0-6.0"},{"rt":14221.33000000054,"stimulus":"<h1 style=\"margin-top: 5%\">Cuestionario para la Evaluación de Metas Académicas</h1><p style=\"font-size: 120%; margin-left: 3%; margin-top: 5%\">Este es un cuestionario que permite conocer cuáles son los principales motivos por los que los estudiantes se esfuerzan en su trabajo académico. A continuación, se te presentarán una serie de afirmaciones acerca de los motivos que puedes tener para estudiar.<br>Te pedimos que contestes a dichas afirmaciones reflexionando sobre el contenido de cada una de ellas, que, aunque te parezcan semejantes, en realidad, no lo son.<br>NO HAY RESPUESTAS CORRECTAS o INCORRECTAS, sólo queremos que respondas con la mayor precisión y sinceridad posible a las preguntas que se plantean.","response":0,"trial_type":"html-button-response","trial_index":66,"time_elapsed":1158409,"internal_node_id":"0.0-7.0"},{"rt":97713.0099999921,"response":{"Metas cuestionario pregunta1":1,"Metas cuestionario pregunta2":2,"Metas cuestionario pregunta3":2,"Metas cuestionario pregunta4":0,"Metas cuestionario pregunta5":3,"Metas cuestionario pregunta6":3,"Metas cuestionario pregunta7":2,"Metas cuestionario pregunta8":1,"Metas cuestionario pregunta9":4,"Metas cuestionario pregunta10":2,"Metas cuestionario pregunta11":0,"Metas cuestionario pregunta12":3,"Metas cuestionario pregunta13":4,"Metas cuestionario pregunta14":3,"Metas cuestionario pregunta15":4,"Metas cuestionario pregunta16":4,"Metas cuestionario pregunta17":4,"Metas cuestionario pregunta18":4,"Metas cuestionario pregunta19":4,"Metas cuestionario pregunta20":4},"question_order":[0,1,2,3,4,5,6,7,8,9,10,11,12,13,14,15,16,17,18,19],"trial_type":"survey-likert","trial_index":67,"time_elapsed":1256127,"internal_node_id":"0.0-8.0"},{"rt":2277.2850000038743,"stimulus":"<p style=\"font-size: 120%\">Gracias por responder el cuestionario. Ahora te invitamos a seguir con el juego, que es muy breve.<br><br></p>","response":0,"trial_type":"html-button-response","trial_index":68,"time_elapsed":1258411,"internal_node_id":"0.0-9.0"},{"rt":4857.915000000503,"stimulus":"<h1>Juego</h1><p style=\"font-size: 120%;\">A continuación se te presentarán 16 pequeñas historias.<br>Por favor lee el texto presentado en cada una de ellas y luego haz click en el objeto de tu elección.<br>Si estás listo(a),<span style=\"color:red;\"> haz click en \"comenzar\"</span>.</p>","response":0,"trial_type":"html-button-response","trial_index":69,"time_elapsed":1263270,"internal_node_id":"0.0-10.0"},{"rt":11939.129999998957,"grid":[[1,1,1],[1,1,1],[1,1,1],[1,1,1],[1,1,1],[1,1,1],[1,1,1]],"target":[0,0],"response":[3,1],"correct":false,"juego":13,"trial_type":"serial-reaction-time-mouse","trial_index":70,"time_elapsed":1275213,"internal_node_id":"0.0-11.0-0.0"},{"rt":12338.63500000746,"grid":[[1],[1],[1],[1],[1],[1]],"target":[0,0],"response":[0,0],"correct":true,"juego":5,"trial_type":"serial-reaction-time-mouse","trial_index":71,"time_elapsed":1287555,"internal_node_id":"0.0-11.0-1.0"},{"rt":10900.37999999174,"grid":[[1,1,1]],"target":[0,2],"response":[0,1],"correct":false,"juego":7,"trial_type":"serial-reaction-time-mouse","trial_index":72,"time_elapsed":1298458,"internal_node_id":"0.0-11.0-2.0"},{"rt":7538.1950000009965,"grid":[[1,1,1],[1,1,1],[1,1,1]],"target":[0,0],"response":[0,0],"correct":true,"juego":10,"trial_type":"serial-reaction-time-mouse","trial_index":73,"time_elapsed":1306000,"internal_node_id":"0.0-11.0-3.0"},{"rt":4820.355000003241,"grid":[[1,1,1]],"target":[0,2],"response":[0,0],"correct":false,"juego":2,"trial_type":"serial-reaction-time-mouse","trial_index":74,"time_elapsed":1310824,"internal_node_id":"0.0-11.0-4.0"},{"rt":4246.550000010757,"grid":[[1,1,1],[1,1,1],[1,1,1],[1,1,1],[1,1,1],[1,1,1],[1,1,1]],"target":[0,0],"response":[1,1],"correct":false,"juego":6,"trial_type":"serial-reaction-time-mouse","trial_index":75,"time_elapsed":1315076,"internal_node_id":"0.0-11.0-5.0"},{"rt":7295.500000007451,"grid":[[1,1,1]],"target":[0,2],"response":[0,0],"correct":false,"juego":3,"trial_type":"serial-reaction-time-mouse","trial_index":76,"time_elapsed":1322375,"internal_node_id":"0.0-11.0-6.0"},{"rt":9259.130000005942,"grid":[[1,1],[1,1],[1,1],[1,1],[1,1],[1,1],[1,1]],"target":[0,0],"response":[1,1],"correct":false,"juego":15,"trial_type":"serial-reaction-time-mouse","trial_index":77,"time_elapsed":1331639,"internal_node_id":"0.0-11.0-7.0"},{"rt":6504.205000004731,"grid":[[1,1],[1,1],[1,1],[1,1],[1,1],[1,1],[1,1]],"target":[0,0],"response":[1,1],"correct":false,"juego":14,"trial_type":"serial-reaction-time-mouse","trial_index":78,"time_elapsed":1338148,"internal_node_id":"0.0-11.0-8.0"},{"rt":5935.670000006212,"grid":[[1,1,1]],"target":[0,2],"response":[0,2],"correct":true,"juego":8,"trial_type":"serial-reaction-time-mouse","trial_index":79,"time_elapsed":1344087,"internal_node_id":"0.0-11.0-9.0"},{"rt":8260.865000003716,"grid":[[1,1,1]],"target":[0,0],"response":[0,0],"correct":true,"juego":11,"trial_type":"serial-reaction-time-mouse","trial_index":80,"time_elapsed":1352351,"internal_node_id":"0.0-11.0-10.0"},{"rt":7519.845000002533,"grid":[[1,1,1]],"target":[0,0],"response":[0,0],"correct":true,"juego":12,"trial_type":"serial-reaction-time-mouse","trial_index":81,"time_elapsed":1359874,"internal_node_id":"0.0-11.0-11.0"},{"rt":6095.660000006203,"grid":[[1,1,1]],"target":[0,0],"response":[0,1],"correct":false,"juego":9,"trial_type":"serial-reaction-time-mouse","trial_index":82,"time_elapsed":1365973,"internal_node_id":"0.0-11.0-12.0"},{"rt":2648.105000000447,"grid":[[1],[1],[1]],"target":[0,2],"response":[0,0],"correct":false,"juego":4,"trial_type":"serial-reaction-time-mouse","trial_index":83,"time_elapsed":1368626,"internal_node_id":"0.0-11.0-13.0"},{"rt":2689.404999997467,"grid":[[1,1,1]],"target":[0,2],"response":[0,1],"correct":false,"juego":1,"trial_type":"serial-reaction-time-mouse","trial_index":84,"time_elapsed":1371318,"internal_node_id":"0.0-11.0-14.0"}]