[{"rt":1009.4999999999743,"stimulus":"<h1 style=\"color:red; margin-top: 3%;\">¡Bienvenido(a)!</h1><p style=\"text-align:left; justify-content:space-between; margin-right: 5%; margin-left: 5%; margin-top: 5%\"> Antes de empezar el estudio, necesitamos que nos confirmes que estás de acuerdo con participar. Recuerda que tu participación es 100% voluntaria y que lo único que te pedimos es responder lo mejor que puedas. Recuerda también que el estudio incluye:</p><ol style=\"text-align:left; justify-content:space-between; margin-right: 5%; margin-left: 5%;\"><li> un ejercicio de resolución de preguntas de selección múltiple (30’),</li><li>un cuestionario breve (5’),</li><li>un juego muy breve (3’),</li></ol><p style=\"text-align:left; justify-content:space-between; margin-right: 5%; margin-left: 5%;\">Si quieres participar, haz clic en “Acepto” luego de leer lo siguiente:<br></p><p style=\"text-align:left; justify-content:space-between; margin-right: 5%; margin-left: 5%;\">Acepto participar en el estudio “Estrategias de lectura y resolución de preguntas de selección múltiple”, en los términos aquí señalados:<br></p><p style=\"text-align:left; justify-content:space-between; margin-right: 5%; margin-left: 5%;\"><a href=\"http://ciae.uchile.cl/download.php?file=noticias/Asentimiento.pdf\" target=\"_blank\">Link a la hoja de información del Consentimiento.</a></p><p style=\"text-align:left; justify-content:space-between; margin-right: 5%; margin-left: 5%;\">Declaro que he leído (o se me ha leído) y (he) comprendido, las condiciones de mi participación en este estudio. He tenido la oportunidad de hacer preguntas y éstas han sido respondidas. No tengo dudas al respecto.</p>","response":0,"condicion_MCQ":4,"condicion_INTER":16,"numero_participante":40,"numero_version":3,"dimx":800,"dimy":1334,"color_profundidad":24,"pixel_profundidad":24,"Browser":"Google Chrome","trial_type":"html-button-response","trial_index":0,"time_elapsed":1016,"internal_node_id":"0.0-0.0"},{"success":true,"trial_type":"fullscreen","trial_index":1,"time_elapsed":3791,"internal_node_id":"0.0-1.0"},{"rt":85345.9,"responses":"{\"Nombres\":\"Antonia Belen\",\"Apellidos\":\"Rojas Benavides \",\"Edad\":\"19\",\"Sexo\":\"mujer\",\"Curso\":\"1 año de universidad \",\"Colegio\":\"Universidad Andres Bello\",\"Contacto\":\"antorojasbenavides@gmail.com \"}","trial_type":"survey-text","trial_index":2,"time_elapsed":89216,"internal_node_id":"0.0-2.0"},{"success":true,"timeout":false,"failed_images":[],"failed_audio":[],"failed_video":[],"trial_type":"preload","trial_index":3,"time_elapsed":90993,"internal_node_id":"0.0-3.0"},{"rt":16203.400000000038,"stimulus":"<h1 style:\"margin-top: 5%;\">Ejercicios de Comprensión de Lectura de la Universidad de Chile</h1><p style=\"font-size: 120%;\">En esta actividad, debes responder 30 preguntas de selección múltiple. Cada pregunta presenta 3 respuestas alternativas, pero sólo una de ellas es correcta. Por lo tanto, debes escoger una sola alternativa para cada pregunta. Además, debes reportar qué tan seguro(a) estás de la respuesta que das, con un:</p><ol style=\"font-size: 120%;text-align:left;margin-left: 40%;\"><li>No estoy seguro(a) para nada</li><li>No estoy muy seguro(a)</li><li>Estoy bastante seguro(a)</li><li>Estoy totalmente seguro(a)</li></ol><p style=\"font-size: 120%;\">Por favor lee bien los enunciados antes de responder. ¡Éxito!</p>","response":0,"trial_type":"html-button-response","trial_index":4,"time_elapsed":107203,"internal_node_id":"0.0-4.0"},{"rt":171377.2,"responses":"{\"pregunta26\":\"a) para Aristóteles la virtud estaba en el justo equilibrio. \"}","question_order":"[0]","trial_type":"survey-multi-choice","trial_index":5,"time_elapsed":278591,"internal_node_id":"0.0-5.0-0.0"},{"rt":9194.399999999965,"response":{"pregunta26 likert":2},"question_order":[0],"trial_type":"survey-likert","trial_index":6,"time_elapsed":287800,"internal_node_id":"0.0-5.0-1.0"},{"rt":58273,"responses":"{\"pregunta29\":\"c) el jardinero estará muerto al día siguiente. \"}","question_order":"[0]","trial_type":"survey-multi-choice","trial_index":7,"time_elapsed":346078,"internal_node_id":"0.0-5.0-2.0"},{"rt":2632.8000000000466,"response":{"pregunta29 likert":3},"question_order":[0],"trial_type":"survey-likert","trial_index":8,"time_elapsed":348715,"internal_node_id":"0.0-5.0-3.0"},{"rt":103102.40000000008,"responses":"{\"pregunta16\":\"c) Provocar el deseo de la adquisición vertiginosa. \"}","question_order":"[0]","trial_type":"survey-multi-choice","trial_index":9,"time_elapsed":451823,"internal_node_id":"0.0-5.0-4.0"},{"rt":3015,"response":{"pregunta16 likert":3},"question_order":[0],"trial_type":"survey-likert","trial_index":10,"time_elapsed":454847,"internal_node_id":"0.0-5.0-5.0"},{"rt":70482.70000000001,"responses":"{\"pregunta11\":\"a) Promover la asistencia a un evento específico de decoración a través de una atractiva descripción. \"}","question_order":"[0]","trial_type":"survey-multi-choice","trial_index":11,"time_elapsed":525337,"internal_node_id":"0.0-5.0-6.0"},{"rt":2965.5999999999767,"response":{"pregunta11 likert":3},"question_order":[0],"trial_type":"survey-likert","trial_index":12,"time_elapsed":528308,"internal_node_id":"0.0-5.0-7.0"},{"rt":175482.5,"responses":"{\"pregunta10\":\"a) La biónica es una disciplina que tiene su origen en la ecología. \"}","question_order":"[0]","trial_type":"survey-multi-choice","trial_index":13,"time_elapsed":703795,"internal_node_id":"0.0-5.0-8.0"},{"rt":4915.300000000047,"response":{"pregunta10 likert":1},"question_order":[0],"trial_type":"survey-likert","trial_index":14,"time_elapsed":708717,"internal_node_id":"0.0-5.0-9.0"},{"rt":257362.7999999998,"responses":"{\"pregunta12\":\"b) se da como existente, y sólo se discute su relación con el cuerpo. \"}","question_order":"[0]","trial_type":"survey-multi-choice","trial_index":15,"time_elapsed":966085,"internal_node_id":"0.0-5.0-10.0"},{"rt":3317.399999999907,"response":{"pregunta12 likert":1},"question_order":[0],"trial_type":"survey-likert","trial_index":16,"time_elapsed":969409,"internal_node_id":"0.0-5.0-11.0"},{"rt":81713.1000000001,"responses":"{\"pregunta27\":\"c) El TLC causará una completa transformación de la economía chilena. \"}","question_order":"[0]","trial_type":"survey-multi-choice","trial_index":17,"time_elapsed":1051129,"internal_node_id":"0.0-5.0-12.0"},{"rt":2655.500000000233,"response":{"pregunta27 likert":2},"question_order":[0],"trial_type":"survey-likert","trial_index":18,"time_elapsed":1053791,"internal_node_id":"0.0-5.0-13.0"},{"rt":106771.39999999967,"responses":"{\"pregunta25\":\"a) llevan un control grupal de su embarazo. \"}","question_order":"[0]","trial_type":"survey-multi-choice","trial_index":19,"time_elapsed":1160570,"internal_node_id":"0.0-5.0-14.0"},{"rt":3055.5,"response":{"pregunta25 likert":1},"question_order":[0],"trial_type":"survey-likert","trial_index":20,"time_elapsed":1163633,"internal_node_id":"0.0-5.0-15.0"},{"rt":50611.799999999814,"responses":"{\"pregunta23\":\"a) A la inexistencia de un recinto adecuado para el recital. \"}","question_order":"[0]","trial_type":"survey-multi-choice","trial_index":21,"time_elapsed":1214252,"internal_node_id":"0.0-5.0-16.0"},{"rt":2905.0999999998603,"response":{"pregunta23 likert":2},"question_order":[0],"trial_type":"survey-likert","trial_index":22,"time_elapsed":1217164,"internal_node_id":"0.0-5.0-17.0"},{"rt":425376.69999999995,"responses":"{\"pregunta7\":\"b) La imprenta y el papel han permitido el desarrollo de la civilización y la conservación de su cultura, y ambos son inventos chinos. \"}","question_order":"[0]","trial_type":"survey-multi-choice","trial_index":23,"time_elapsed":1642548,"internal_node_id":"0.0-5.0-18.0"},{"rt":1869.9000000001397,"response":{"pregunta7 likert":3},"question_order":[0],"trial_type":"survey-likert","trial_index":24,"time_elapsed":1644424,"internal_node_id":"0.0-5.0-19.0"},{"rt":80905.30000000005,"responses":"{\"pregunta2\":\"b) A la relación entre sociedad y constitución social. \"}","question_order":"[0]","trial_type":"survey-multi-choice","trial_index":25,"time_elapsed":1725344,"internal_node_id":"0.0-5.0-20.0"},{"rt":1786,"response":{"pregunta2 likert":2},"question_order":[0],"trial_type":"survey-likert","trial_index":26,"time_elapsed":1727135,"internal_node_id":"0.0-5.0-21.0"},{"rt":154461.40000000014,"responses":"{\"pregunta5\":\"c) Los momentos triviales de los viajes, en la escritura se vuelven significativos. \"}","question_order":"[0]","trial_type":"survey-multi-choice","trial_index":27,"time_elapsed":1881602,"internal_node_id":"0.0-5.0-22.0"},{"rt":5881.399999999674,"response":{"pregunta5 likert":3},"question_order":[0],"trial_type":"survey-likert","trial_index":28,"time_elapsed":1887490,"internal_node_id":"0.0-5.0-23.0"},{"rt":143225.3999999999,"responses":"{\"pregunta18\":\"b) A la inutilidad de tanto esfuerzo si el objetivo es el reposo. \"}","question_order":"[0]","trial_type":"survey-multi-choice","trial_index":29,"time_elapsed":2030721,"internal_node_id":"0.0-5.0-24.0"},{"rt":3047.1999999999534,"response":{"pregunta18 likert":0},"question_order":[0],"trial_type":"survey-likert","trial_index":30,"time_elapsed":2033773,"internal_node_id":"0.0-5.0-25.0"},{"rt":34761.10000000056,"responses":"{\"pregunta30\":\"a) para el mexicano, la muerte es cotidiana. \"}","question_order":"[0]","trial_type":"survey-multi-choice","trial_index":31,"time_elapsed":2068537,"internal_node_id":"0.0-5.0-26.0"},{"rt":1946.5,"response":{"pregunta30 likert":2},"question_order":[0],"trial_type":"survey-likert","trial_index":32,"time_elapsed":2070489,"internal_node_id":"0.0-5.0-27.0"},{"rt":102233.3999999999,"responses":"{\"pregunta14\":\"a) preparar los recuerdos del mañana. \"}","question_order":"[0]","trial_type":"survey-multi-choice","trial_index":33,"time_elapsed":2172728,"internal_node_id":"0.0-5.0-28.0"},{"rt":1906.7999999998137,"response":{"pregunta14 likert":1},"question_order":[0],"trial_type":"survey-likert","trial_index":34,"time_elapsed":2174641,"internal_node_id":"0.0-5.0-29.0"},{"rt":140606.09999999963,"responses":"{\"pregunta15\":\"a) ritualistas y obsesivos. \"}","question_order":"[0]","trial_type":"survey-multi-choice","trial_index":35,"time_elapsed":2315253,"internal_node_id":"0.0-5.0-30.0"},{"rt":2334.899999999907,"response":{"pregunta15 likert":0},"question_order":[0],"trial_type":"survey-likert","trial_index":36,"time_elapsed":2317593,"internal_node_id":"0.0-5.0-31.0"},{"rt":50515.70000000112,"responses":"{\"pregunta1\":\"b) Aportan informaciones con las que se reconstruye el personaje dentro de un relato. \"}","question_order":"[0]","trial_type":"survey-multi-choice","trial_index":37,"time_elapsed":2368114,"internal_node_id":"0.0-5.0-32.0"},{"rt":1475.299999999348,"response":{"pregunta1 likert":1},"question_order":[0],"trial_type":"survey-likert","trial_index":38,"time_elapsed":2369595,"internal_node_id":"0.0-5.0-33.0"},{"rt":31995.299999999348,"responses":"{\"pregunta3\":\"b) El inicio de la civilización china. \"}","question_order":"[0]","trial_type":"survey-multi-choice","trial_index":39,"time_elapsed":2401596,"internal_node_id":"0.0-5.0-34.0"},{"rt":4238.0999999996275,"response":{"pregunta3 likert":2},"question_order":[0],"trial_type":"survey-likert","trial_index":40,"time_elapsed":2405840,"internal_node_id":"0.0-5.0-35.0"},{"rt":56677.10000000009,"responses":"{\"pregunta21\":\"a) el uranio es el elemento natural con el mayor número de protones en el núcleo. \"}","question_order":"[0]","trial_type":"survey-multi-choice","trial_index":41,"time_elapsed":2462522,"internal_node_id":"0.0-5.0-36.0"},{"rt":1449.2000000001863,"response":{"pregunta21 likert":2},"question_order":[0],"trial_type":"survey-likert","trial_index":42,"time_elapsed":2463977,"internal_node_id":"0.0-5.0-37.0"},{"rt":76904.29999999981,"responses":"{\"pregunta28\":\"c) El derecho a informar y el derecho a la privacidad son inconciliables. \"}","question_order":"[0]","trial_type":"survey-multi-choice","trial_index":43,"time_elapsed":2540887,"internal_node_id":"0.0-5.0-38.0"},{"rt":2129.399999999907,"response":{"pregunta28 likert":1},"question_order":[0],"trial_type":"survey-likert","trial_index":44,"time_elapsed":2543022,"internal_node_id":"0.0-5.0-39.0"},{"rt":50814.500000000466,"responses":"{\"pregunta9\":\"a) pueden rendir exámenes para optar y obtener títulos profesionales igual que los hombres. \"}","question_order":"[0]","trial_type":"survey-multi-choice","trial_index":45,"time_elapsed":2593842,"internal_node_id":"0.0-5.0-40.0"},{"rt":1271.5000000009313,"response":{"pregunta9 likert":1},"question_order":[0],"trial_type":"survey-likert","trial_index":46,"time_elapsed":2595120,"internal_node_id":"0.0-5.0-41.0"},{"rt":682089.3000000007,"responses":"{\"pregunta20\":\"a) la muerte de Wu Ti fue una bendición. \"}","question_order":"[0]","trial_type":"survey-multi-choice","trial_index":47,"time_elapsed":3361550,"internal_node_id":"0.0-5.0-42.0"},{"rt":2096.5000000004657,"response":{"pregunta20 likert":0},"question_order":[0],"trial_type":"survey-likert","trial_index":48,"time_elapsed":3363654,"internal_node_id":"0.0-5.0-43.0"},{"rt":86333.50000000047,"responses":"{\"pregunta22\":\"b) Bomberos debería tener acceso a un seguro médico, al que pueda recurrir en caso de accidente. \"}","question_order":"[0]","trial_type":"survey-multi-choice","trial_index":49,"time_elapsed":3449994,"internal_node_id":"0.0-5.0-44.0"},{"rt":2194.0999999996275,"response":{"pregunta22 likert":1},"question_order":[0],"trial_type":"survey-likert","trial_index":50,"time_elapsed":3452194,"internal_node_id":"0.0-5.0-45.0"},{"rt":249365.00000000093,"responses":"{\"pregunta17\":\"b) Homenajear a quienes murieron. \"}","question_order":"[0]","trial_type":"survey-multi-choice","trial_index":51,"time_elapsed":3701565,"internal_node_id":"0.0-5.0-46.0"},{"rt":2096.7000000001863,"response":{"pregunta17 likert":2},"question_order":[0],"trial_type":"survey-likert","trial_index":52,"time_elapsed":3703668,"internal_node_id":"0.0-5.0-47.0"},{"rt":72839.99999999953,"responses":"{\"pregunta8\":\"c) Dar a conocer al ganador del premio Cervantes. \"}","question_order":"[0]","trial_type":"survey-multi-choice","trial_index":53,"time_elapsed":3776514,"internal_node_id":"0.0-5.0-48.0"},{"rt":4490.399999999907,"response":{"pregunta8 likert":0},"question_order":[0],"trial_type":"survey-likert","trial_index":54,"time_elapsed":3781014,"internal_node_id":"0.0-5.0-49.0"},{"rt":604864.5000000009,"responses":"{\"pregunta19\":\"c) Las personas que leen son más flexibles en sus ideas y autónomas en su accionar. \"}","question_order":"[0]","trial_type":"survey-multi-choice","trial_index":55,"time_elapsed":4385884,"internal_node_id":"0.0-5.0-50.0"},{"rt":3150.2000000001863,"response":{"pregunta19 likert":0},"question_order":[0],"trial_type":"survey-likert","trial_index":56,"time_elapsed":4389041,"internal_node_id":"0.0-5.0-51.0"},{"rt":317354.7999999998,"responses":"{\"pregunta4\":\"c) En la literatura como en la vida, lo importante son las preguntas. \"}","question_order":"[0]","trial_type":"survey-multi-choice","trial_index":57,"time_elapsed":4706401,"internal_node_id":"0.0-5.0-52.0"},{"rt":1577.2999999998137,"response":{"pregunta4 likert":0},"question_order":[0],"trial_type":"survey-likert","trial_index":58,"time_elapsed":4707985,"internal_node_id":"0.0-5.0-53.0"},{"rt":45302.800000000745,"responses":"{\"pregunta13\":\"a) El concepto de normalidad es diferente para un psiquiatra que para nosotros. \"}","question_order":"[0]","trial_type":"survey-multi-choice","trial_index":59,"time_elapsed":4753294,"internal_node_id":"0.0-5.0-54.0"},{"rt":1509.7999999998137,"response":{"pregunta13 likert":0},"question_order":[0],"trial_type":"survey-likert","trial_index":60,"time_elapsed":4754809,"internal_node_id":"0.0-5.0-55.0"},{"rt":387410.19999999925,"responses":"{\"pregunta24\":\"b) El receptor es habitualmente pasivo frente a la publicidad. \"}","question_order":"[0]","trial_type":"survey-multi-choice","trial_index":61,"time_elapsed":5142225,"internal_node_id":"0.0-5.0-56.0"},{"rt":2475.600000000559,"response":{"pregunta24 likert":1},"question_order":[0],"trial_type":"survey-likert","trial_index":62,"time_elapsed":5144707,"internal_node_id":"0.0-5.0-57.0"},{"rt":307440.7999999998,"responses":"{\"pregunta6\":\"b) La aparición del Diccionario Académico ha sido polémica. \"}","question_order":"[0]","trial_type":"survey-multi-choice","trial_index":63,"time_elapsed":5452153,"internal_node_id":"0.0-5.0-58.0"},{"rt":2465.7999999998137,"response":{"pregunta6 likert":0},"question_order":[0],"trial_type":"survey-likert","trial_index":64,"time_elapsed":5454625,"internal_node_id":"0.0-5.0-59.0"}]