[{"rt":23280.120000010356,"stimulus":"<h1 style=\"color:red; margin-top: 3%;\">¡Bienvenido(a)!</h1><p style=\"text-align:left; justify-content:space-between; margin-right: 5%; margin-left: 5%; margin-top: 5%\"> Antes de empezar el estudio, necesitamos que nos confirmes que estás de acuerdo con participar. Recuerda que tu participación es 100% voluntaria y que lo único que te pedimos es responder lo mejor que puedas. Recuerda también que el estudio incluye:</p><ol style=\"text-align:left; justify-content:space-between; margin-right: 5%; margin-left: 5%;\"><li> un ejercicio de resolución de preguntas de selección múltiple (30’),</li><li>un cuestionario breve (5’),</li><li>un juego muy breve (3’),</li></ol><p style=\"text-align:left; justify-content:space-between; margin-right: 5%; margin-left: 5%;\">Si quieres participar, haz clic en “Acepto” luego de leer lo siguiente:<br></p><p style=\"text-align:left; justify-content:space-between; margin-right: 5%; margin-left: 5%;\">Acepto participar en el estudio “Estrategias de lectura y resolución de preguntas de selección múltiple”, en los términos aquí señalados:<br></p><p style=\"text-align:left; justify-content:space-between; margin-right: 5%; margin-left: 5%;\"><a href=\"http://ciae.uchile.cl/download.php?file=noticias/Asentimiento.pdf\" target=\"_blank\">Link a la hoja de información del Consentimiento.</a></p><p style=\"text-align:left; justify-content:space-between; margin-right: 5%; margin-left: 5%;\">Declaro que he leído (o se me ha leído) y (he) comprendido, las condiciones de mi participación en este estudio. He tenido la oportunidad de hacer preguntas y éstas han sido respondidas. No tengo dudas al respecto.</p>","response":0,"condicion_MCQ":3,"condicion_INTER":9,"numero_participante":9,"numero_version":1,"dimx":1280,"dimy":720,"color_profundidad":24,"pixel_profundidad":24,"Browser":"Google Chrome","trial_type":"html-button-response","trial_index":0,"time_elapsed":23288,"internal_node_id":"0.0-0.0"},{"success":true,"trial_type":"fullscreen","trial_index":1,"time_elapsed":40395,"internal_node_id":"0.0-1.0"},{"rt":102931.40500003938,"responses":"{\"Nombres\":\"Valentina\",\"Apellidos\":\"Painemil Vargas\",\"Edad\":\"19\",\"Sexo\":\"mujer\",\"Curso\":\"Primer año psicología \",\"Colegio\":\"Universidad Andrés bello\",\"Contacto\":\"v.painemilvargas@uandresbello.edu\"}","trial_type":"survey-text","trial_index":2,"time_elapsed":143360,"internal_node_id":"0.0-2.0"},{"success":true,"timeout":false,"failed_images":[],"failed_audio":[],"failed_video":[],"trial_type":"preload","trial_index":3,"time_elapsed":144573,"internal_node_id":"0.0-3.0"},{"rt":34643.43000005465,"stimulus":"<h1 style:\"margin-top: 5%;\">Ejercicios de Comprensión de Lectura de la Universidad de Chile</h1><p style=\"font-size: 120%;\">En esta actividad, debes responder 30 preguntas de selección múltiple. Cada pregunta presenta 3 respuestas alternativas, pero sólo una de ellas es correcta. Por lo tanto, debes escoger una sola alternativa para cada pregunta. Además, debes reportar qué tan seguro(a) estás de la respuesta que das, con un:</p><ol style=\"font-size: 120%;text-align:left;margin-left: 40%;\"><li>No estoy seguro(a) para nada</li><li>No estoy muy seguro(a)</li><li>Estoy bastante seguro(a)</li><li>Estoy totalmente seguro(a)</li></ol><p style=\"font-size: 120%;\">Por favor lee bien los enunciados antes de responder. ¡Éxito!</p>","response":0,"trial_type":"html-button-response","trial_index":4,"time_elapsed":179219,"internal_node_id":"0.0-4.0"},{"rt":52035.450000083074,"responses":"{\"pregunta27\":\"a) El TLC causará una completa transformación de la economía chilena. \"}","question_order":"[0]","trial_type":"survey-multi-choice","trial_index":5,"time_elapsed":231270,"internal_node_id":"0.0-5.0-0.0"},{"rt":8262.400000006892,"response":{"pregunta27 likert":2},"question_order":[0],"trial_type":"survey-likert","trial_index":6,"time_elapsed":239538,"internal_node_id":"0.0-5.0-1.0"},{"rt":64159.76000006776,"responses":"{\"pregunta18\":\"c) Al premio merecido después de tantos esfuerzos. \"}","question_order":"[0]","trial_type":"survey-multi-choice","trial_index":7,"time_elapsed":303704,"internal_node_id":"0.0-5.0-2.0"},{"rt":5002.710000029765,"response":{"pregunta18 likert":1},"question_order":[0],"trial_type":"survey-likert","trial_index":8,"time_elapsed":308713,"internal_node_id":"0.0-5.0-3.0"},{"rt":71704.66500008479,"responses":"{\"pregunta23\":\"a) A la inexistencia de un recinto adecuado para el recital. \"}","question_order":"[0]","trial_type":"survey-multi-choice","trial_index":9,"time_elapsed":380422,"internal_node_id":"0.0-5.0-4.0"},{"rt":4026.6950000077486,"response":{"pregunta23 likert":2},"question_order":[0],"trial_type":"survey-likert","trial_index":10,"time_elapsed":384453,"internal_node_id":"0.0-5.0-5.0"},{"rt":93402.23500004504,"responses":"{\"pregunta21\":\"a) la creación de elementos químicos artificiales ha resultado de la manipulación del uranio. \"}","question_order":"[0]","trial_type":"survey-multi-choice","trial_index":11,"time_elapsed":477858,"internal_node_id":"0.0-5.0-6.0"},{"rt":3820.854999939911,"response":{"pregunta21 likert":0},"question_order":[0],"trial_type":"survey-likert","trial_index":12,"time_elapsed":481683,"internal_node_id":"0.0-5.0-7.0"},{"rt":63503.579999902286,"responses":"{\"pregunta16\":\"a) Deleitar a sus receptores por medio de la belleza y el confort. \"}","question_order":"[0]","trial_type":"survey-multi-choice","trial_index":13,"time_elapsed":545192,"internal_node_id":"0.0-5.0-8.0"},{"rt":2828.6599999992177,"response":{"pregunta16 likert":1},"question_order":[0],"trial_type":"survey-likert","trial_index":14,"time_elapsed":548026,"internal_node_id":"0.0-5.0-9.0"},{"rt":115665.48000008333,"responses":"{\"pregunta26\":\"a) el sujeto sufre con su modo de vida. \"}","question_order":"[0]","trial_type":"survey-multi-choice","trial_index":15,"time_elapsed":663696,"internal_node_id":"0.0-5.0-10.0"},{"rt":3778.2449999358505,"response":{"pregunta26 likert":1},"question_order":[0],"trial_type":"survey-likert","trial_index":16,"time_elapsed":667479,"internal_node_id":"0.0-5.0-11.0"},{"rt":89299.57000003196,"responses":"{\"pregunta7\":\"a) La imprenta y el papel han permitido el desarrollo de la civilización y la conservación de su cultura, y ambos son inventos chinos. \"}","question_order":"[0]","trial_type":"survey-multi-choice","trial_index":17,"time_elapsed":756783,"internal_node_id":"0.0-5.0-12.0"},{"rt":3492.7899999311194,"response":{"pregunta7 likert":2},"question_order":[0],"trial_type":"survey-likert","trial_index":18,"time_elapsed":760282,"internal_node_id":"0.0-5.0-13.0"},{"rt":49360.74999999255,"responses":"{\"pregunta15\":\"b) religiosos y precavidos. \"}","question_order":"[0]","trial_type":"survey-multi-choice","trial_index":19,"time_elapsed":809649,"internal_node_id":"0.0-5.0-14.0"},{"rt":7528.8399999262765,"response":{"pregunta15 likert":2},"question_order":[0],"trial_type":"survey-likert","trial_index":20,"time_elapsed":817182,"internal_node_id":"0.0-5.0-15.0"},{"rt":50328.145000035875,"responses":"{\"pregunta3\":\"a) El inicio de la civilización china. \"}","question_order":"[0]","trial_type":"survey-multi-choice","trial_index":21,"time_elapsed":867515,"internal_node_id":"0.0-5.0-16.0"},{"rt":3345.8649999229237,"response":{"pregunta3 likert":3},"question_order":[0],"trial_type":"survey-likert","trial_index":22,"time_elapsed":870865,"internal_node_id":"0.0-5.0-17.0"},{"rt":63945.874999975786,"responses":"{\"pregunta12\":\"a) se da como existente, y sólo se discute su relación con el cuerpo. \"}","question_order":"[0]","trial_type":"survey-multi-choice","trial_index":23,"time_elapsed":934816,"internal_node_id":"0.0-5.0-18.0"},{"rt":2530.640000011772,"response":{"pregunta12 likert":2},"question_order":[0],"trial_type":"survey-likert","trial_index":24,"time_elapsed":937351,"internal_node_id":"0.0-5.0-19.0"},{"rt":68662.62999991886,"responses":"{\"pregunta20\":\"a) la muerte de Wu Ti fue una bendición. \"}","question_order":"[0]","trial_type":"survey-multi-choice","trial_index":25,"time_elapsed":1006018,"internal_node_id":"0.0-5.0-20.0"},{"rt":4613.884999998845,"response":{"pregunta20 likert":2},"question_order":[0],"trial_type":"survey-likert","trial_index":26,"time_elapsed":1010637,"internal_node_id":"0.0-5.0-21.0"},{"rt":90226.83499997947,"responses":"{\"pregunta4\":\"b) En la literatura como en la vida, lo importante son las preguntas. \"}","question_order":"[0]","trial_type":"survey-multi-choice","trial_index":27,"time_elapsed":1100869,"internal_node_id":"0.0-5.0-22.0"},{"rt":4611.810000031255,"response":{"pregunta4 likert":3},"question_order":[0],"trial_type":"survey-likert","trial_index":28,"time_elapsed":1105486,"internal_node_id":"0.0-5.0-23.0"},{"rt":55878.60499997623,"responses":"{\"pregunta9\":\"c) pueden rendir exámenes para optar y obtener títulos profesionales igual que los hombres. \"}","question_order":"[0]","trial_type":"survey-multi-choice","trial_index":29,"time_elapsed":1161369,"internal_node_id":"0.0-5.0-24.0"},{"rt":3528.4349999856204,"response":{"pregunta9 likert":3},"question_order":[0],"trial_type":"survey-likert","trial_index":30,"time_elapsed":1164905,"internal_node_id":"0.0-5.0-25.0"},{"rt":40947.174999979325,"responses":"{\"pregunta28\":\"a) Se necesita un marco legal para delimitar lo público y lo privado en materia informativa. \"}","question_order":"[0]","trial_type":"survey-multi-choice","trial_index":31,"time_elapsed":1205856,"internal_node_id":"0.0-5.0-26.0"},{"rt":2777.1100000245497,"response":{"pregunta28 likert":3},"question_order":[0],"trial_type":"survey-likert","trial_index":32,"time_elapsed":1208638,"internal_node_id":"0.0-5.0-27.0"},{"rt":57679.30499999784,"responses":"{\"pregunta2\":\"c) A la relación entre pensamiento y estructura social. \"}","question_order":"[0]","trial_type":"survey-multi-choice","trial_index":33,"time_elapsed":1266322,"internal_node_id":"0.0-5.0-28.0"},{"rt":3061.3950000843033,"response":{"pregunta2 likert":3},"question_order":[0],"trial_type":"survey-likert","trial_index":34,"time_elapsed":1269388,"internal_node_id":"0.0-5.0-29.0"},{"rt":81163.62499992829,"responses":"{\"pregunta13\":\"b) El ser humano se comporta de acuerdo con las circunstancias. \"}","question_order":"[0]","trial_type":"survey-multi-choice","trial_index":35,"time_elapsed":1350556,"internal_node_id":"0.0-5.0-30.0"},{"rt":4465.599999995902,"response":{"pregunta13 likert":2},"question_order":[0],"trial_type":"survey-likert","trial_index":36,"time_elapsed":1355026,"internal_node_id":"0.0-5.0-31.0"},{"rt":72509.27500007674,"responses":"{\"pregunta8\":\"a) Comparar a Cervantes con Quevedo. \"}","question_order":"[0]","trial_type":"survey-multi-choice","trial_index":37,"time_elapsed":1427541,"internal_node_id":"0.0-5.0-32.0"},{"rt":3288.3200000505894,"response":{"pregunta8 likert":0},"question_order":[0],"trial_type":"survey-likert","trial_index":38,"time_elapsed":1430834,"internal_node_id":"0.0-5.0-33.0"},{"rt":62663.34500000812,"responses":"{\"pregunta29\":\"b) el jardinero estará muerto al día siguiente. \"}","question_order":"[0]","trial_type":"survey-multi-choice","trial_index":39,"time_elapsed":1493501,"internal_node_id":"0.0-5.0-34.0"},{"rt":4357.455000048503,"response":{"pregunta29 likert":3},"question_order":[0],"trial_type":"survey-likert","trial_index":40,"time_elapsed":1497863,"internal_node_id":"0.0-5.0-35.0"},{"rt":35860.135000082664,"responses":"{\"pregunta30\":\"a) la muerte es distinta en las grandes ciudades. \"}","question_order":"[0]","trial_type":"survey-multi-choice","trial_index":41,"time_elapsed":1533725,"internal_node_id":"0.0-5.0-36.0"},{"rt":2931.235000025481,"response":{"pregunta30 likert":1},"question_order":[0],"trial_type":"survey-likert","trial_index":42,"time_elapsed":1536660,"internal_node_id":"0.0-5.0-37.0"},{"rt":27195.739999995567,"responses":"{\"pregunta22\":\"a) Bomberos debería tener acceso a un seguro médico, al que pueda recurrir en caso de accidente. \"}","question_order":"[0]","trial_type":"survey-multi-choice","trial_index":43,"time_elapsed":1563862,"internal_node_id":"0.0-5.0-38.0"},{"rt":5528.429999947548,"response":{"pregunta22 likert":1},"question_order":[0],"trial_type":"survey-likert","trial_index":44,"time_elapsed":1569395,"internal_node_id":"0.0-5.0-39.0"},{"rt":100161.57500003465,"responses":"{\"pregunta24\":\"a) El receptor es habitualmente pasivo frente a la publicidad. \"}","question_order":"[0]","trial_type":"survey-multi-choice","trial_index":45,"time_elapsed":1669560,"internal_node_id":"0.0-5.0-40.0"},{"rt":3249.710000003688,"response":{"pregunta24 likert":0},"question_order":[0],"trial_type":"survey-likert","trial_index":46,"time_elapsed":1672815,"internal_node_id":"0.0-5.0-41.0"},{"rt":49292.8799999645,"responses":"{\"pregunta1\":\"a) Aportan informaciones con las que se reconstruye el personaje dentro de un relato. \"}","question_order":"[0]","trial_type":"survey-multi-choice","trial_index":47,"time_elapsed":1722113,"internal_node_id":"0.0-5.0-42.0"},{"rt":3413.3650000439957,"response":{"pregunta1 likert":1},"question_order":[0],"trial_type":"survey-likert","trial_index":48,"time_elapsed":1725531,"internal_node_id":"0.0-5.0-43.0"},{"rt":67243.13499999698,"responses":"{\"pregunta5\":\"b) Los momentos triviales de los viajes, en la escritura se vuelven significativos. \"}","question_order":"[0]","trial_type":"survey-multi-choice","trial_index":49,"time_elapsed":1792778,"internal_node_id":"0.0-5.0-44.0"},{"rt":3518.030000035651,"response":{"pregunta5 likert":1},"question_order":[0],"trial_type":"survey-likert","trial_index":50,"time_elapsed":1796299,"internal_node_id":"0.0-5.0-45.0"},{"rt":61128.60499997623,"responses":"{\"pregunta11\":\"a) Orientar la opción estética de un grupo de personas en lo que se refiere a la decoración de interiores. \"}","question_order":"[0]","trial_type":"survey-multi-choice","trial_index":51,"time_elapsed":1857432,"internal_node_id":"0.0-5.0-46.0"},{"rt":3895.7600001012906,"response":{"pregunta11 likert":0},"question_order":[0],"trial_type":"survey-likert","trial_index":52,"time_elapsed":1861333,"internal_node_id":"0.0-5.0-47.0"},{"rt":91030.16500000376,"responses":"{\"pregunta6\":\"c) La aparición del Diccionario Académico ha sido polémica. \"}","question_order":"[0]","trial_type":"survey-multi-choice","trial_index":53,"time_elapsed":1952368,"internal_node_id":"0.0-5.0-48.0"},{"rt":3751.6600000672042,"response":{"pregunta6 likert":1},"question_order":[0],"trial_type":"survey-likert","trial_index":54,"time_elapsed":1956125,"internal_node_id":"0.0-5.0-49.0"},{"rt":108254.7800000757,"responses":"{\"pregunta14\":\"c) preparar los recuerdos del mañana. \"}","question_order":"[0]","trial_type":"survey-multi-choice","trial_index":55,"time_elapsed":2064384,"internal_node_id":"0.0-5.0-50.0"},{"rt":2747.129999916069,"response":{"pregunta14 likert":3},"question_order":[0],"trial_type":"survey-likert","trial_index":56,"time_elapsed":2067136,"internal_node_id":"0.0-5.0-51.0"},{"rt":75037.21500001848,"responses":"{\"pregunta10\":\"c) La biónica es una disciplina que aprovecha las condiciones del entorno. \"}","question_order":"[0]","trial_type":"survey-multi-choice","trial_index":57,"time_elapsed":2142178,"internal_node_id":"0.0-5.0-52.0"},{"rt":3953.8500000489876,"response":{"pregunta10 likert":2},"question_order":[0],"trial_type":"survey-likert","trial_index":58,"time_elapsed":2146138,"internal_node_id":"0.0-5.0-53.0"},{"rt":91245.51999999676,"responses":"{\"pregunta25\":\"b) llevan un control grupal de su embarazo. \"}","question_order":"[0]","trial_type":"survey-multi-choice","trial_index":59,"time_elapsed":2237388,"internal_node_id":"0.0-5.0-54.0"},{"rt":3429.965000017546,"response":{"pregunta25 likert":2},"question_order":[0],"trial_type":"survey-likert","trial_index":60,"time_elapsed":2240822,"internal_node_id":"0.0-5.0-55.0"},{"rt":65329.49999999255,"responses":"{\"pregunta17\":\"a) Homenajear a quienes murieron. \"}","question_order":"[0]","trial_type":"survey-multi-choice","trial_index":61,"time_elapsed":2306156,"internal_node_id":"0.0-5.0-56.0"},{"rt":3179.56000007689,"response":{"pregunta17 likert":3},"question_order":[0],"trial_type":"survey-likert","trial_index":62,"time_elapsed":2309341,"internal_node_id":"0.0-5.0-57.0"},{"rt":70515.0249999715,"responses":"{\"pregunta19\":\"c) El hábito de la lectura y el progreso mantienen una relación inversamente proporcional. \"}","question_order":"[0]","trial_type":"survey-multi-choice","trial_index":63,"time_elapsed":2379860,"internal_node_id":"0.0-5.0-58.0"},{"rt":7705.4250000510365,"response":{"pregunta19 likert":2},"question_order":[0],"trial_type":"survey-likert","trial_index":64,"time_elapsed":2387570,"internal_node_id":"0.0-5.0-59.0"},{"rt":3290.190000087023,"stimulus":"<p style=\"font-size: 120%\">Gracias por completar esta etapa del estudio. Ahora te invitamos a responder el cuestionario.<br><br></p>","response":0,"trial_type":"html-button-response","trial_index":65,"time_elapsed":2390871,"internal_node_id":"0.0-6.0"},{"rt":25000.850000069477,"stimulus":"<h1 style=\"margin-top: 5%\">Cuestionario para la Evaluación de Metas Académicas</h1><p style=\"font-size: 120%; margin-left: 3%; margin-top: 5%\">Este es un cuestionario que permite conocer cuáles son los principales motivos por los que los estudiantes se esfuerzan en su trabajo académico. A continuación, se te presentarán una serie de afirmaciones acerca de los motivos que puedes tener para estudiar.<br>Te pedimos que contestes a dichas afirmaciones reflexionando sobre el contenido de cada una de ellas, que, aunque te parezcan semejantes, en realidad, no lo son.<br>NO HAY RESPUESTAS CORRECTAS o INCORRECTAS, sólo queremos que respondas con la mayor precisión y sinceridad posible a las preguntas que se plantean.","response":0,"trial_type":"html-button-response","trial_index":66,"time_elapsed":2415875,"internal_node_id":"0.0-7.0"},{"rt":140831.13999990746,"response":{"Metas cuestionario pregunta1":4,"Metas cuestionario pregunta2":4,"Metas cuestionario pregunta3":3,"Metas cuestionario pregunta4":1,"Metas cuestionario pregunta5":3,"Metas cuestionario pregunta6":2,"Metas cuestionario pregunta7":2,"Metas cuestionario pregunta8":2,"Metas cuestionario pregunta9":2,"Metas cuestionario pregunta10":1,"Metas cuestionario pregunta11":0,"Metas cuestionario pregunta12":3,"Metas cuestionario pregunta13":2,"Metas cuestionario pregunta14":0,"Metas cuestionario pregunta15":4,"Metas cuestionario pregunta16":4,"Metas cuestionario pregunta17":4,"Metas cuestionario pregunta18":4,"Metas cuestionario pregunta19":4,"Metas cuestionario pregunta20":4},"question_order":[0,1,2,3,4,5,6,7,8,9,10,11,12,13,14,15,16,17,18,19],"trial_type":"survey-likert","trial_index":67,"time_elapsed":2556729,"internal_node_id":"0.0-8.0"},{"rt":3943.8650000374764,"stimulus":"<p style=\"font-size: 120%\">Gracias por responder el cuestionario. Ahora te invitamos a seguir con el juego, que es muy breve.<br><br></p>","response":0,"trial_type":"html-button-response","trial_index":68,"time_elapsed":2560678,"internal_node_id":"0.0-9.0"},{"rt":16318.540000007488,"stimulus":"<h1>Juego</h1><p style=\"font-size: 120%;\">A continuación se te presentarán 16 pequeñas historias.<br>Por favor lee el texto presentado en cada una de ellas y luego haz click en el objeto de tu elección.<br>Si estás listo(a),<span style=\"color:red;\"> haz click en \"comenzar\"</span>.</p>","response":0,"trial_type":"html-button-response","trial_index":69,"time_elapsed":2576999,"internal_node_id":"0.0-10.0"},{"rt":14936.40000000596,"grid":[[1,1,1]],"target":[0,0],"response":[0,0],"correct":true,"juego":9,"trial_type":"serial-reaction-time-mouse","trial_index":70,"time_elapsed":2591942,"internal_node_id":"0.0-11.0-0.0"},{"rt":5330.19999996759,"grid":[[1],[1],[1]],"target":[0,2],"response":[0,0],"correct":false,"juego":4,"trial_type":"serial-reaction-time-mouse","trial_index":71,"time_elapsed":2597275,"internal_node_id":"0.0-11.0-1.0"},{"rt":6806.884999969043,"grid":[[1,1,1],[1,1,1],[1,1,1],[1,1,1],[1,1,1],[1,1,1],[1,1,1]],"target":[0,0],"response":[1,1],"correct":false,"juego":6,"trial_type":"serial-reaction-time-mouse","trial_index":72,"time_elapsed":2604088,"internal_node_id":"0.0-11.0-2.0"},{"rt":3651.049999985844,"grid":[[1,1,1]],"target":[0,2],"response":[0,1],"correct":false,"juego":1,"trial_type":"serial-reaction-time-mouse","trial_index":73,"time_elapsed":2607742,"internal_node_id":"0.0-11.0-3.0"},{"rt":12694.724999950267,"grid":[[1,1,1]],"target":[0,0],"response":[0,0],"correct":true,"juego":11,"trial_type":"serial-reaction-time-mouse","trial_index":74,"time_elapsed":2620440,"internal_node_id":"0.0-11.0-4.0"},{"rt":10441.08999997843,"grid":[[1,1,1]],"target":[0,2],"response":[0,0],"correct":false,"juego":7,"trial_type":"serial-reaction-time-mouse","trial_index":75,"time_elapsed":2630884,"internal_node_id":"0.0-11.0-5.0"},{"rt":16982.780000078492,"grid":[[1,1,1]],"target":[0,0],"response":[0,2],"correct":false,"juego":12,"trial_type":"serial-reaction-time-mouse","trial_index":76,"time_elapsed":2647872,"internal_node_id":"0.0-11.0-6.0"},{"rt":26068.169999984093,"grid":[[1,1],[1,1],[1,1],[1,1],[1,1],[1,1],[1,1]],"target":[0,0],"response":[3,1],"correct":false,"juego":15,"trial_type":"serial-reaction-time-mouse","trial_index":77,"time_elapsed":2673945,"internal_node_id":"0.0-11.0-7.0"},{"rt":18785.129999974743,"grid":[[1,1,1]],"target":[0,2],"response":[0,0],"correct":false,"juego":3,"trial_type":"serial-reaction-time-mouse","trial_index":78,"time_elapsed":2692733,"internal_node_id":"0.0-11.0-8.0"},{"rt":10846.894999966025,"grid":[[1],[1],[1],[1],[1],[1]],"target":[0,0],"response":[0,0],"correct":true,"juego":5,"trial_type":"serial-reaction-time-mouse","trial_index":79,"time_elapsed":2703585,"internal_node_id":"0.0-11.0-9.0"},{"rt":13238.91499999445,"grid":[[1,1,1],[1,1,1],[1,1,1],[1,1,1],[1,1,1],[1,1,1],[1,1,1]],"target":[0,0],"response":[5,1],"correct":false,"juego":13,"trial_type":"serial-reaction-time-mouse","trial_index":80,"time_elapsed":2716831,"internal_node_id":"0.0-11.0-10.0"},{"rt":7131.844999967143,"grid":[[1,1,1]],"target":[0,2],"response":[0,1],"correct":false,"juego":2,"trial_type":"serial-reaction-time-mouse","trial_index":81,"time_elapsed":2723966,"internal_node_id":"0.0-11.0-11.0"},{"rt":12789.299999945797,"grid":[[1,1,1],[1,1,1],[1,1,1]],"target":[0,0],"response":[1,0],"correct":false,"juego":10,"trial_type":"serial-reaction-time-mouse","trial_index":82,"time_elapsed":2736760,"internal_node_id":"0.0-11.0-12.0"},{"rt":7693.739999900572,"grid":[[1,1],[1,1],[1,1],[1,1],[1,1],[1,1],[1,1]],"target":[0,0],"response":[1,1],"correct":false,"juego":14,"trial_type":"serial-reaction-time-mouse","trial_index":83,"time_elapsed":2744458,"internal_node_id":"0.0-11.0-13.0"},{"rt":7662.184999906458,"grid":[[1,1,1]],"target":[0,2],"response":[0,2],"correct":true,"juego":8,"trial_type":"serial-reaction-time-mouse","trial_index":84,"time_elapsed":2752123,"internal_node_id":"0.0-11.0-14.0"}]