[{"rt":1165.5800000298768,"stimulus":"<h1 style=\"color:red; margin-top: 3%;\">¡Bienvenido(a)!</h1><p style=\"text-align:left; justify-content:space-between; margin-right: 5%; margin-left: 5%; margin-top: 5%\"> Antes de empezar el estudio, necesitamos que nos confirmes que estás de acuerdo con participar. Recuerda que tu participación es 100% voluntaria y que lo único que te pedimos es responder lo mejor que puedas. Recuerda también que el estudio incluye:</p><ol style=\"text-align:left; justify-content:space-between; margin-right: 5%; margin-left: 5%;\"><li> un ejercicio de resolución de preguntas de selección múltiple (30’),</li><li>un cuestionario breve (5’),</li><li>un juego muy breve (3’),</li></ol><p style=\"text-align:left; justify-content:space-between; margin-right: 5%; margin-left: 5%;\">Si quieres participar, haz clic en “Acepto” luego de leer lo siguiente:<br></p><p style=\"text-align:left; justify-content:space-between; margin-right: 5%; margin-left: 5%;\">Acepto participar en el estudio “Estrategias de lectura y resolución de preguntas de selección múltiple”, en los términos aquí señalados:<br></p><p style=\"text-align:left; justify-content:space-between; margin-right: 5%; margin-left: 5%;\"><a href=\"http://ciae.uchile.cl/download.php?file=noticias/Asentimiento.pdf\" target=\"_blank\">Link a la hoja de información del Consentimiento.</a></p><p style=\"text-align:left; justify-content:space-between; margin-right: 5%; margin-left: 5%;\">Declaro que he leído (o se me ha leído) y (he) comprendido, las condiciones de mi participación en este estudio. He tenido la oportunidad de hacer preguntas y éstas han sido respondidas. No tengo dudas al respecto.</p>","response":0,"condicion_MCQ":2,"condicion_INTER":2,"numero_participante":2,"numero_version":1,"dimx":1366,"dimy":768,"color_profundidad":24,"pixel_profundidad":24,"Browser":"Google Chrome","trial_type":"html-button-response","trial_index":0,"time_elapsed":1171,"internal_node_id":"0.0-0.0"},{"success":true,"trial_type":"fullscreen","trial_index":1,"time_elapsed":3182,"internal_node_id":"0.0-1.0"},{"rt":2064.4000000320375,"responses":"{\"Nombres\":\"a\",\"Apellidos\":\"a\",\"Edad\":\"a\",\"Sexo\":\"a\",\"Curso\":\"a\",\"Colegio\":\"a\",\"Contacto\":\"a\"}","trial_type":"survey-text","trial_index":2,"time_elapsed":5277,"internal_node_id":"0.0-2.0"},{"success":true,"timeout":false,"failed_images":[],"failed_audio":[],"failed_video":[],"trial_type":"preload","trial_index":3,"time_elapsed":7368,"internal_node_id":"0.0-3.0"},{"rt":1065.6449999660254,"stimulus":"<h1 style:\"margin-top: 5%;\">Ejercicios de Comprensión de Lectura de la Universidad de Chile</h1><p style=\"font-size: 120%;\">En esta actividad, debes responder 30 preguntas de selección múltiple. Cada pregunta presenta 3 respuestas alternativas, pero sólo una de ellas es correcta. Por lo tanto, debes escoger una sola alternativa para cada pregunta. Además, debes reportar qué tan seguro(a) estás de la respuesta que das, con un:</p><ol style=\"font-size: 120%;text-align:left;margin-left: 40%;\"><li>No estoy seguro(a) para nada</li><li>No estoy muy seguro(a)</li><li>Estoy bastante seguro(a)</li><li>Estoy totalmente seguro(a)</li></ol><p style=\"font-size: 120%;\">Por favor lee bien los enunciados antes de responder. ¡Éxito!</p>","response":0,"trial_type":"html-button-response","trial_index":4,"time_elapsed":8434,"internal_node_id":"0.0-4.0"},{"rt":2648.5900001134723,"responses":"{\"pregunta16\":\"a) Provocar el deseo de la adquisición vertiginosa. \"}","question_order":"[0]","trial_type":"survey-multi-choice","trial_index":5,"time_elapsed":11084,"internal_node_id":"0.0-5.0-0.0"},{"rt":429.8950000666082,"response":{"pregunta16 likert":0},"question_order":[0],"trial_type":"survey-likert","trial_index":6,"time_elapsed":11516,"internal_node_id":"0.0-5.0-1.0"},{"rt":428.12500009313226,"responses":"{\"pregunta28\":\"a) La prensa tiene derecho a meter sus narices en todos lados. \"}","question_order":"[0]","trial_type":"survey-multi-choice","trial_index":7,"time_elapsed":11946,"internal_node_id":"0.0-5.0-2.0"},{"rt":419.1550000105053,"response":{"pregunta28 likert":0},"question_order":[0],"trial_type":"survey-likert","trial_index":8,"time_elapsed":12367,"internal_node_id":"0.0-5.0-3.0"},{"rt":1565.6399999279529,"responses":"{\"pregunta5\":\"a) Los momentos triviales de los viajes, en la escritura se vuelven significativos. \"}","question_order":"[0]","trial_type":"survey-multi-choice","trial_index":9,"time_elapsed":13934,"internal_node_id":"0.0-5.0-4.0"},{"rt":442.8850000258535,"response":{"pregunta5 likert":0},"question_order":[0],"trial_type":"survey-likert","trial_index":10,"time_elapsed":14379,"internal_node_id":"0.0-5.0-5.0"},{"rt":417.78500005602837,"responses":"{\"pregunta17\":\"a) Revivir un periodo histórico. \"}","question_order":"[0]","trial_type":"survey-multi-choice","trial_index":11,"time_elapsed":14800,"internal_node_id":"0.0-5.0-6.0"},{"rt":406.8950000219047,"response":{"pregunta17 likert":0},"question_order":[0],"trial_type":"survey-likert","trial_index":12,"time_elapsed":15214,"internal_node_id":"0.0-5.0-7.0"},{"rt":401.5650001820177,"responses":"{\"pregunta3\":\"a) El inicio de la dinastía Chang. \"}","question_order":"[0]","trial_type":"survey-multi-choice","trial_index":13,"time_elapsed":15618,"internal_node_id":"0.0-5.0-8.0"},{"rt":396.48499991744757,"response":{"pregunta3 likert":0},"question_order":[0],"trial_type":"survey-likert","trial_index":14,"time_elapsed":16017,"internal_node_id":"0.0-5.0-9.0"},{"rt":412.8349998500198,"responses":"{\"pregunta13\":\"a) El ser humano se comporta de acuerdo con las circunstancias. \"}","question_order":"[0]","trial_type":"survey-multi-choice","trial_index":15,"time_elapsed":16431,"internal_node_id":"0.0-5.0-10.0"},{"rt":414.67000008560717,"response":{"pregunta13 likert":0},"question_order":[0],"trial_type":"survey-likert","trial_index":16,"time_elapsed":16849,"internal_node_id":"0.0-5.0-11.0"},{"rt":390.0200000498444,"responses":"{\"pregunta19\":\"a) Las personas que leen son más flexibles en sus ideas y autónomas en su accionar. \"}","question_order":"[0]","trial_type":"survey-multi-choice","trial_index":17,"time_elapsed":17243,"internal_node_id":"0.0-5.0-12.0"},{"rt":395.71000006981194,"response":{"pregunta19 likert":0},"question_order":[0],"trial_type":"survey-likert","trial_index":18,"time_elapsed":17644,"internal_node_id":"0.0-5.0-13.0"},{"rt":400.690000038594,"responses":"{\"pregunta7\":\"a) Si desaparecieran el papel y la imprenta, se produciría un gran retraso en nuestra civilización. \"}","question_order":"[0]","trial_type":"survey-multi-choice","trial_index":19,"time_elapsed":18049,"internal_node_id":"0.0-5.0-14.0"},{"rt":403.4100000280887,"response":{"pregunta7 likert":0},"question_order":[0],"trial_type":"survey-likert","trial_index":20,"time_elapsed":18454,"internal_node_id":"0.0-5.0-15.0"},{"rt":394.18000006116927,"responses":"{\"pregunta1\":\"a) Muestran las opiniones expuestas por los personajes en un relato. \"}","question_order":"[0]","trial_type":"survey-multi-choice","trial_index":21,"time_elapsed":18850,"internal_node_id":"0.0-5.0-16.0"},{"rt":382.40500004030764,"response":{"pregunta1 likert":0},"question_order":[0],"trial_type":"survey-likert","trial_index":22,"time_elapsed":19236,"internal_node_id":"0.0-5.0-17.0"},{"rt":409.2300001066178,"responses":"{\"pregunta9\":\"a) pueden ejercer profesiones científicas de la misma forma en que lo hacen los hombres. \"}","question_order":"[0]","trial_type":"survey-multi-choice","trial_index":23,"time_elapsed":19647,"internal_node_id":"0.0-5.0-18.0"},{"rt":407.00999996624887,"response":{"pregunta9 likert":0},"question_order":[0],"trial_type":"survey-likert","trial_index":24,"time_elapsed":20055,"internal_node_id":"0.0-5.0-19.0"},{"rt":406.870000064373,"responses":"{\"pregunta14\":\"a) la persistencia de la melancolía y la desesperanza. \"}","question_order":"[0]","trial_type":"survey-multi-choice","trial_index":25,"time_elapsed":20465,"internal_node_id":"0.0-5.0-20.0"},{"rt":384.58499987609684,"response":{"pregunta14 likert":0},"question_order":[0],"trial_type":"survey-likert","trial_index":26,"time_elapsed":20853,"internal_node_id":"0.0-5.0-21.0"},{"rt":409.59500009194016,"responses":"{\"pregunta18\":\"a) A la inutilidad de tanto esfuerzo si el objetivo es el reposo. \"}","question_order":"[0]","trial_type":"survey-multi-choice","trial_index":27,"time_elapsed":21265,"internal_node_id":"0.0-5.0-22.0"},{"rt":400.6149999331683,"response":{"pregunta18 likert":0},"question_order":[0],"trial_type":"survey-likert","trial_index":28,"time_elapsed":21670,"internal_node_id":"0.0-5.0-23.0"},{"rt":416.12999979406595,"responses":"{\"pregunta2\":\"a) A la relación entre sociedad y constitución social. \"}","question_order":"[0]","trial_type":"survey-multi-choice","trial_index":29,"time_elapsed":22088,"internal_node_id":"0.0-5.0-24.0"},{"rt":376.0299999266863,"response":{"pregunta2 likert":0},"question_order":[0],"trial_type":"survey-likert","trial_index":30,"time_elapsed":22468,"internal_node_id":"0.0-5.0-25.0"},{"rt":420.8799998741597,"responses":"{\"pregunta24\":\"a) La publicidad ejerce una influencia positiva sobre la sociedad. \"}","question_order":"[0]","trial_type":"survey-multi-choice","trial_index":31,"time_elapsed":22892,"internal_node_id":"0.0-5.0-26.0"},{"rt":404.56000017002225,"response":{"pregunta24 likert":0},"question_order":[0],"trial_type":"survey-likert","trial_index":32,"time_elapsed":23300,"internal_node_id":"0.0-5.0-27.0"},{"rt":425.6150000728667,"responses":"{\"pregunta10\":\"a) La biónica es una disciplina que tiene su origen en la ecología. \"}","question_order":"[0]","trial_type":"survey-multi-choice","trial_index":33,"time_elapsed":23735,"internal_node_id":"0.0-5.0-28.0"},{"rt":443.8899999950081,"response":{"pregunta10 likert":0},"question_order":[0],"trial_type":"survey-likert","trial_index":34,"time_elapsed":24184,"internal_node_id":"0.0-5.0-29.0"},{"rt":736.4750001579523,"responses":"{\"pregunta22\":\"a) Por el riesgo que corren diariamente, los bomberos deberían tener mejores condiciones de seguridad. \"}","question_order":"[0]","trial_type":"survey-multi-choice","trial_index":35,"time_elapsed":24922,"internal_node_id":"0.0-5.0-30.0"},{"rt":434.94000006467104,"response":{"pregunta22 likert":0},"question_order":[0],"trial_type":"survey-likert","trial_index":36,"time_elapsed":25358,"internal_node_id":"0.0-5.0-31.0"},{"rt":454.1499998886138,"responses":"{\"pregunta29\":\"a) el jardinero estará muerto al día siguiente. \"}","question_order":"[0]","trial_type":"survey-multi-choice","trial_index":37,"time_elapsed":25814,"internal_node_id":"0.0-5.0-32.0"},{"rt":425.12999987229705,"response":{"pregunta29 likert":0},"question_order":[0],"trial_type":"survey-likert","trial_index":38,"time_elapsed":26241,"internal_node_id":"0.0-5.0-33.0"},{"rt":524.9650001060218,"responses":"{\"pregunta25\":\"a) llevan un control grupal de su embarazo. \"}","question_order":"[0]","trial_type":"survey-multi-choice","trial_index":39,"time_elapsed":26770,"internal_node_id":"0.0-5.0-34.0"},{"rt":411.23500000685453,"response":{"pregunta25 likert":0},"question_order":[0],"trial_type":"survey-likert","trial_index":40,"time_elapsed":27184,"internal_node_id":"0.0-5.0-35.0"},{"rt":440.534999826923,"responses":"{\"pregunta21\":\"a) a partir de la manipulación del núcleo se han creado elementos químicos naturales. \"}","question_order":"[0]","trial_type":"survey-multi-choice","trial_index":41,"time_elapsed":27625,"internal_node_id":"0.0-5.0-36.0"},{"rt":439.28000004962087,"response":{"pregunta21 likert":0},"question_order":[0],"trial_type":"survey-likert","trial_index":42,"time_elapsed":28067,"internal_node_id":"0.0-5.0-37.0"},{"rt":430.90500007383525,"responses":"{\"pregunta23\":\"a) A la influencia de grupos que rechazaban su música. \"}","question_order":"[0]","trial_type":"survey-multi-choice","trial_index":43,"time_elapsed":28500,"internal_node_id":"0.0-5.0-38.0"},{"rt":499.064999865368,"response":{"pregunta23 likert":0},"question_order":[0],"trial_type":"survey-likert","trial_index":44,"time_elapsed":29001,"internal_node_id":"0.0-5.0-39.0"},{"rt":439.2099999822676,"responses":"{\"pregunta30\":\"a) para el mexicano, la muerte es como una mujer. \"}","question_order":"[0]","trial_type":"survey-multi-choice","trial_index":45,"time_elapsed":29442,"internal_node_id":"0.0-5.0-40.0"},{"rt":447.5300000049174,"response":{"pregunta30 likert":0},"question_order":[0],"trial_type":"survey-likert","trial_index":46,"time_elapsed":29892,"internal_node_id":"0.0-5.0-41.0"},{"rt":441.6549999732524,"responses":"{\"pregunta11\":\"a) Presentar positivamente las diversas tendencias del diseño de interiores a través de un comentario. \"}","question_order":"[0]","trial_type":"survey-multi-choice","trial_index":47,"time_elapsed":30336,"internal_node_id":"0.0-5.0-42.0"},{"rt":413.2650000974536,"response":{"pregunta11 likert":0},"question_order":[0],"trial_type":"survey-likert","trial_index":48,"time_elapsed":30750,"internal_node_id":"0.0-5.0-43.0"},{"rt":430.8550001587719,"responses":"{\"pregunta4\":\"a) En la literatura como en la vida, lo importante son las preguntas. \"}","question_order":"[0]","trial_type":"survey-multi-choice","trial_index":49,"time_elapsed":31183,"internal_node_id":"0.0-5.0-44.0"},{"rt":412.4900000169873,"response":{"pregunta4 likert":0},"question_order":[0],"trial_type":"survey-likert","trial_index":50,"time_elapsed":31598,"internal_node_id":"0.0-5.0-45.0"},{"rt":452.3300000000745,"responses":"{\"pregunta6\":\"a) Las voces extranjeras viven una tensión entre la aceptación y el rechazo. \"}","question_order":"[0]","trial_type":"survey-multi-choice","trial_index":51,"time_elapsed":32053,"internal_node_id":"0.0-5.0-46.0"},{"rt":483.585000038147,"response":{"pregunta6 likert":0},"question_order":[0],"trial_type":"survey-likert","trial_index":52,"time_elapsed":32538,"internal_node_id":"0.0-5.0-47.0"},{"rt":450.0700000207871,"responses":"{\"pregunta20\":\"a) el mejor emperador es el que está muerto. \"}","question_order":"[0]","trial_type":"survey-multi-choice","trial_index":53,"time_elapsed":32991,"internal_node_id":"0.0-5.0-48.0"},{"rt":475.27500009164214,"response":{"pregunta20 likert":0},"question_order":[0],"trial_type":"survey-likert","trial_index":54,"time_elapsed":33467,"internal_node_id":"0.0-5.0-49.0"},{"rt":444.00999997742474,"responses":"{\"pregunta15\":\"a) religiosos y precavidos. \"}","question_order":"[0]","trial_type":"survey-multi-choice","trial_index":55,"time_elapsed":33914,"internal_node_id":"0.0-5.0-50.0"},{"rt":460.7749998103827,"response":{"pregunta15 likert":0},"question_order":[0],"trial_type":"survey-likert","trial_index":56,"time_elapsed":34378,"internal_node_id":"0.0-5.0-51.0"},{"rt":445.38499996997416,"responses":"{\"pregunta12\":\"a) es una noción que obedece a una visión pesimista de la vida. \"}","question_order":"[0]","trial_type":"survey-multi-choice","trial_index":57,"time_elapsed":34825,"internal_node_id":"0.0-5.0-52.0"},{"rt":425.709999864921,"response":{"pregunta12 likert":0},"question_order":[0],"trial_type":"survey-likert","trial_index":58,"time_elapsed":35253,"internal_node_id":"0.0-5.0-53.0"},{"rt":467.35500008799136,"responses":"{\"pregunta8\":\"a) Dar a conocer al ganador del premio Cervantes. \"}","question_order":"[0]","trial_type":"survey-multi-choice","trial_index":59,"time_elapsed":35724,"internal_node_id":"0.0-5.0-54.0"},{"rt":447.1200001426041,"response":{"pregunta8 likert":0},"question_order":[0],"trial_type":"survey-likert","trial_index":60,"time_elapsed":36175,"internal_node_id":"0.0-5.0-55.0"},{"rt":467.09499997086823,"responses":"{\"pregunta26\":\"a) el hombre excesivo es inmoral. \"}","question_order":"[0]","trial_type":"survey-multi-choice","trial_index":61,"time_elapsed":36645,"internal_node_id":"0.0-5.0-56.0"},{"rt":446.22999988496304,"response":{"pregunta26 likert":0},"question_order":[0],"trial_type":"survey-likert","trial_index":62,"time_elapsed":37093,"internal_node_id":"0.0-5.0-57.0"},{"rt":407.4450000189245,"responses":"{\"pregunta27\":\"a) Será difícil que las empresas nacionales compitan con las estadounidenses. \"}","question_order":"[0]","trial_type":"survey-multi-choice","trial_index":63,"time_elapsed":37504,"internal_node_id":"0.0-5.0-58.0"},{"rt":428.71999996714294,"response":{"pregunta27 likert":0},"question_order":[0],"trial_type":"survey-likert","trial_index":64,"time_elapsed":37934,"internal_node_id":"0.0-5.0-59.0"},{"rt":227.2999999113381,"stimulus":"<p style=\"font-size: 120%\">Gracias por completar esta etapa del estudio. Ahora te invitamos a responder el cuestionario.<br><br></p>","response":0,"trial_type":"html-button-response","trial_index":65,"time_elapsed":38165,"internal_node_id":"0.0-6.0"},{"rt":197.50000000931323,"stimulus":"<h1 style=\"margin-top: 5%\">Cuestionario para la Evaluación de Metas Académicas</h1><p style=\"font-size: 120%; margin-left: 3%; margin-top: 5%\">Este es un cuestionario que permite conocer cuáles son los principales motivos por los que los estudiantes se esfuerzan en su trabajo académico. A continuación, se te presentarán una serie de afirmaciones acerca de los motivos que puedes tener para estudiar.<br>Te pedimos que contestes a dichas afirmaciones reflexionando sobre el contenido de cada una de ellas, que, aunque te parezcan semejantes, en realidad, no lo son.<br>NO HAY RESPUESTAS CORRECTAS o INCORRECTAS, sólo queremos que respondas con la mayor precisión y sinceridad posible a las preguntas que se plantean.","response":0,"trial_type":"html-button-response","trial_index":66,"time_elapsed":38363,"internal_node_id":"0.0-7.0"},{"rt":6234.449999872595,"response":{"Metas cuestionario pregunta1":0,"Metas cuestionario pregunta2":0,"Metas cuestionario pregunta3":0,"Metas cuestionario pregunta4":0,"Metas cuestionario pregunta5":0,"Metas cuestionario pregunta6":0,"Metas cuestionario pregunta7":0,"Metas cuestionario pregunta8":0,"Metas cuestionario pregunta9":0,"Metas cuestionario pregunta10":0,"Metas cuestionario pregunta11":0,"Metas cuestionario pregunta12":0,"Metas cuestionario pregunta13":0,"Metas cuestionario pregunta14":0,"Metas cuestionario pregunta15":0,"Metas cuestionario pregunta16":0,"Metas cuestionario pregunta17":0,"Metas cuestionario pregunta18":0,"Metas cuestionario pregunta19":0,"Metas cuestionario pregunta20":0},"question_order":[0,1,2,3,4,5,6,7,8,9,10,11,12,13,14,15,16,17,18,19],"trial_type":"survey-likert","trial_index":67,"time_elapsed":44606,"internal_node_id":"0.0-8.0"}]