[{"rt":8772.90000000014,"stimulus":"<h1 style=\"color:red; margin-top: 3%;\">¡Bienvenido(a)!</h1><p style=\"text-align:left; justify-content:space-between; margin-right: 5%; margin-left: 5%; margin-top: 5%\"> Antes de empezar el estudio, necesitamos que nos confirmes que estás de acuerdo con participar. Recuerda que tu participación es 100% voluntaria y que lo único que te pedimos es responder lo mejor que puedas. Recuerda también que el estudio incluye:</p><ol style=\"text-align:left; justify-content:space-between; margin-right: 5%; margin-left: 5%;\"><li> un ejercicio de resolución de preguntas de selección múltiple (30’),</li><li>un cuestionario breve (5’),</li><li>un juego muy breve (3’),</li></ol><p style=\"text-align:left; justify-content:space-between; margin-right: 5%; margin-left: 5%;\">Si quieres participar, haz clic en “Acepto” luego de leer lo siguiente:<br></p><p style=\"text-align:left; justify-content:space-between; margin-right: 5%; margin-left: 5%;\">Acepto participar en el estudio “Estrategias de lectura y resolución de preguntas de selección múltiple”, en los términos aquí señalados:<br></p><p style=\"text-align:left; justify-content:space-between; margin-right: 5%; margin-left: 5%;\"><a href=\"http://ciae.uchile.cl/download.php?file=noticias/Asentimiento.pdf\" target=\"_blank\">Link a la hoja de información del Consentimiento.</a></p><p style=\"text-align:left; justify-content:space-between; margin-right: 5%; margin-left: 5%;\">Declaro que he leído (o se me ha leído) y (he) comprendido, las condiciones de mi participación en este estudio. He tenido la oportunidad de hacer preguntas y éstas han sido respondidas. No tengo dudas al respecto.</p>","response":0,"condicion_MCQ":3,"condicion_INTER":15,"numero_participante":15,"numero_version":1,"dimx":1360,"dimy":768,"color_profundidad":24,"pixel_profundidad":24,"Browser":"Google Chrome","trial_type":"html-button-response","trial_index":0,"time_elapsed":8775,"internal_node_id":"0.0-0.0"},{"success":true,"trial_type":"fullscreen","trial_index":1,"time_elapsed":11867,"internal_node_id":"0.0-1.0"},{"rt":56536.59999999986,"responses":"{\"Nombres\":\"maximiliano esteban\",\"Apellidos\":\"tapia rojas\",\"Edad\":\"18\",\"Sexo\":\"hombre \",\"Curso\":\"1 año de universidad\",\"Colegio\":\"universidad andres bello\",\"Contacto\":\"lol20880205@gmail.com\"}","trial_type":"survey-text","trial_index":2,"time_elapsed":68408,"internal_node_id":"0.0-2.0"},{"success":true,"timeout":false,"failed_images":[],"failed_audio":[],"failed_video":[],"trial_type":"preload","trial_index":3,"time_elapsed":71249,"internal_node_id":"0.0-3.0"},{"rt":12376.600000000093,"stimulus":"<h1 style:\"margin-top: 5%;\">Ejercicios de Comprensión de Lectura de la Universidad de Chile</h1><p style=\"font-size: 120%;\">En esta actividad, debes responder 30 preguntas de selección múltiple. Cada pregunta presenta 3 respuestas alternativas, pero sólo una de ellas es correcta. Por lo tanto, debes escoger una sola alternativa para cada pregunta. Además, debes reportar qué tan seguro(a) estás de la respuesta que das, con un:</p><ol style=\"font-size: 120%;text-align:left;margin-left: 40%;\"><li>No estoy seguro(a) para nada</li><li>No estoy muy seguro(a)</li><li>Estoy bastante seguro(a)</li><li>Estoy totalmente seguro(a)</li></ol><p style=\"font-size: 120%;\">Por favor lee bien los enunciados antes de responder. ¡Éxito!</p>","response":0,"trial_type":"html-button-response","trial_index":4,"time_elapsed":83626,"internal_node_id":"0.0-4.0"},{"rt":40732.89999999991,"responses":"{\"pregunta23\":\"a) A la inexistencia de un recinto adecuado para el recital. \"}","question_order":"[0]","trial_type":"survey-multi-choice","trial_index":5,"time_elapsed":124361,"internal_node_id":"0.0-5.0-0.0"},{"rt":7083.199999999953,"response":{"pregunta23 likert":1},"question_order":[0],"trial_type":"survey-likert","trial_index":6,"time_elapsed":131445,"internal_node_id":"0.0-5.0-1.0"},{"rt":39324.69999999995,"responses":"{\"pregunta14\":\"c) preparar los recuerdos del mañana. \"}","question_order":"[0]","trial_type":"survey-multi-choice","trial_index":7,"time_elapsed":170771,"internal_node_id":"0.0-5.0-2.0"},{"rt":2108,"response":{"pregunta14 likert":3},"question_order":[0],"trial_type":"survey-likert","trial_index":8,"time_elapsed":172880,"internal_node_id":"0.0-5.0-3.0"},{"rt":24165.200000000186,"responses":"{\"pregunta30\":\"c) para el mexicano, la muerte es cotidiana. \"}","question_order":"[0]","trial_type":"survey-multi-choice","trial_index":9,"time_elapsed":197047,"internal_node_id":"0.0-5.0-4.0"},{"rt":2147.100000000093,"response":{"pregunta30 likert":3},"question_order":[0],"trial_type":"survey-likert","trial_index":10,"time_elapsed":199195,"internal_node_id":"0.0-5.0-5.0"},{"rt":38031.69999999995,"responses":"{\"pregunta21\":\"a) la creación de elementos químicos artificiales ha resultado de la manipulación del uranio. \"}","question_order":"[0]","trial_type":"survey-multi-choice","trial_index":11,"time_elapsed":237229,"internal_node_id":"0.0-5.0-6.0"},{"rt":2453.899999999907,"response":{"pregunta21 likert":3},"question_order":[0],"trial_type":"survey-likert","trial_index":12,"time_elapsed":239684,"internal_node_id":"0.0-5.0-7.0"},{"rt":27697.699999999953,"responses":"{\"pregunta28\":\"a) Se necesita un marco legal para delimitar lo público y lo privado en materia informativa. \"}","question_order":"[0]","trial_type":"survey-multi-choice","trial_index":13,"time_elapsed":267383,"internal_node_id":"0.0-5.0-8.0"},{"rt":2793.6999999999534,"response":{"pregunta28 likert":1},"question_order":[0],"trial_type":"survey-likert","trial_index":14,"time_elapsed":270177,"internal_node_id":"0.0-5.0-9.0"},{"rt":86868.90000000014,"responses":"{\"pregunta1\":\"c) Entregan una característica detallada del personaje, a través de la voz narrativa. \"}","question_order":"[0]","trial_type":"survey-multi-choice","trial_index":15,"time_elapsed":357048,"internal_node_id":"0.0-5.0-10.0"},{"rt":2636,"response":{"pregunta1 likert":2},"question_order":[0],"trial_type":"survey-likert","trial_index":16,"time_elapsed":359685,"internal_node_id":"0.0-5.0-11.0"},{"rt":69358.40000000014,"responses":"{\"pregunta13\":\"a) El concepto de normalidad es diferente para un psiquiatra que para nosotros. \"}","question_order":"[0]","trial_type":"survey-multi-choice","trial_index":17,"time_elapsed":429046,"internal_node_id":"0.0-5.0-12.0"},{"rt":1737.6000000000931,"response":{"pregunta13 likert":2},"question_order":[0],"trial_type":"survey-likert","trial_index":18,"time_elapsed":430785,"internal_node_id":"0.0-5.0-13.0"},{"rt":53641.59999999986,"responses":"{\"pregunta20\":\"b) el mejor emperador es el que está muerto. \"}","question_order":"[0]","trial_type":"survey-multi-choice","trial_index":19,"time_elapsed":484427,"internal_node_id":"0.0-5.0-14.0"},{"rt":1782.8000000002794,"response":{"pregunta20 likert":2},"question_order":[0],"trial_type":"survey-likert","trial_index":20,"time_elapsed":486211,"internal_node_id":"0.0-5.0-15.0"},{"rt":38846,"responses":"{\"pregunta8\":\"a) Comparar a Cervantes con Quevedo. \"}","question_order":"[0]","trial_type":"survey-multi-choice","trial_index":21,"time_elapsed":525058,"internal_node_id":"0.0-5.0-16.0"},{"rt":1590.1000000000931,"response":{"pregunta8 likert":2},"question_order":[0],"trial_type":"survey-likert","trial_index":22,"time_elapsed":526650,"internal_node_id":"0.0-5.0-17.0"},{"rt":68977.5,"responses":"{\"pregunta26\":\"c) para Aristóteles la virtud estaba en el justo equilibrio. \"}","question_order":"[0]","trial_type":"survey-multi-choice","trial_index":23,"time_elapsed":595628,"internal_node_id":"0.0-5.0-18.0"},{"rt":1367,"response":{"pregunta26 likert":2},"question_order":[0],"trial_type":"survey-likert","trial_index":24,"time_elapsed":596997,"internal_node_id":"0.0-5.0-19.0"},{"rt":24415.100000000093,"responses":"{\"pregunta11\":\"b) Presentar positivamente las diversas tendencias del diseño de interiores a través de un comentario. \"}","question_order":"[0]","trial_type":"survey-multi-choice","trial_index":25,"time_elapsed":621413,"internal_node_id":"0.0-5.0-20.0"},{"rt":1681.8999999999069,"response":{"pregunta11 likert":1},"question_order":[0],"trial_type":"survey-likert","trial_index":26,"time_elapsed":623096,"internal_node_id":"0.0-5.0-21.0"},{"rt":37669.89999999991,"responses":"{\"pregunta18\":\"b) A la inutilidad de tanto esfuerzo si el objetivo es el reposo. \"}","question_order":"[0]","trial_type":"survey-multi-choice","trial_index":27,"time_elapsed":660767,"internal_node_id":"0.0-5.0-22.0"},{"rt":2638.8000000002794,"response":{"pregunta18 likert":3},"question_order":[0],"trial_type":"survey-likert","trial_index":28,"time_elapsed":663407,"internal_node_id":"0.0-5.0-23.0"},{"rt":55397,"responses":"{\"pregunta22\":\"a) Bomberos debería tener acceso a un seguro médico, al que pueda recurrir en caso de accidente. \"}","question_order":"[0]","trial_type":"survey-multi-choice","trial_index":29,"time_elapsed":718805,"internal_node_id":"0.0-5.0-24.0"},{"rt":1762,"response":{"pregunta22 likert":3},"question_order":[0],"trial_type":"survey-likert","trial_index":30,"time_elapsed":720569,"internal_node_id":"0.0-5.0-25.0"},{"rt":7544.399999999907,"responses":"{\"pregunta7\":\"a) La imprenta y el papel han permitido el desarrollo de la civilización y la conservación de su cultura, y ambos son inventos chinos. \"}","question_order":"[0]","trial_type":"survey-multi-choice","trial_index":31,"time_elapsed":728115,"internal_node_id":"0.0-5.0-26.0"},{"rt":2378.7000000001863,"response":{"pregunta7 likert":3},"question_order":[0],"trial_type":"survey-likert","trial_index":32,"time_elapsed":730495,"internal_node_id":"0.0-5.0-27.0"},{"rt":44328.39999999991,"responses":"{\"pregunta6\":\"b) Las voces extranjeras viven una tensión entre la aceptación y el rechazo. \"}","question_order":"[0]","trial_type":"survey-multi-choice","trial_index":33,"time_elapsed":774825,"internal_node_id":"0.0-5.0-28.0"},{"rt":1941,"response":{"pregunta6 likert":3},"question_order":[0],"trial_type":"survey-likert","trial_index":34,"time_elapsed":776767,"internal_node_id":"0.0-5.0-29.0"},{"rt":22895.100000000093,"responses":"{\"pregunta2\":\"a) A la relación entre civilización y sociedad. \"}","question_order":"[0]","trial_type":"survey-multi-choice","trial_index":35,"time_elapsed":799664,"internal_node_id":"0.0-5.0-30.0"},{"rt":2783.100000000093,"response":{"pregunta2 likert":2},"question_order":[0],"trial_type":"survey-likert","trial_index":36,"time_elapsed":802448,"internal_node_id":"0.0-5.0-31.0"},{"rt":38674.799999999814,"responses":"{\"pregunta16\":\"b) Provocar el deseo de la adquisición vertiginosa. \"}","question_order":"[0]","trial_type":"survey-multi-choice","trial_index":37,"time_elapsed":841124,"internal_node_id":"0.0-5.0-32.0"},{"rt":2021.6999999997206,"response":{"pregunta16 likert":2},"question_order":[0],"trial_type":"survey-likert","trial_index":38,"time_elapsed":843147,"internal_node_id":"0.0-5.0-33.0"},{"rt":4856.100000000093,"responses":"{\"pregunta29\":\"a) el jardinero era un hombre viejo. \"}","question_order":"[0]","trial_type":"survey-multi-choice","trial_index":39,"time_elapsed":848004,"internal_node_id":"0.0-5.0-34.0"},{"rt":1739.3000000002794,"response":{"pregunta29 likert":2},"question_order":[0],"trial_type":"survey-likert","trial_index":40,"time_elapsed":849745,"internal_node_id":"0.0-5.0-35.0"},{"rt":31668.200000000186,"responses":"{\"pregunta15\":\"c) ritualistas y obsesivos. \"}","question_order":"[0]","trial_type":"survey-multi-choice","trial_index":41,"time_elapsed":881414,"internal_node_id":"0.0-5.0-36.0"},{"rt":1937.8000000002794,"response":{"pregunta15 likert":3},"question_order":[0],"trial_type":"survey-likert","trial_index":42,"time_elapsed":883353,"internal_node_id":"0.0-5.0-37.0"},{"rt":18004,"responses":"{\"pregunta10\":\"a) La biónica puede asegurar nuestra existencia mediante la aplicación de técnicas copiadas de la naturaleza. \"}","question_order":"[0]","trial_type":"survey-multi-choice","trial_index":43,"time_elapsed":901357,"internal_node_id":"0.0-5.0-38.0"},{"rt":1327,"response":{"pregunta10 likert":2},"question_order":[0],"trial_type":"survey-likert","trial_index":44,"time_elapsed":902686,"internal_node_id":"0.0-5.0-39.0"},{"rt":47060.80000000028,"responses":"{\"pregunta24\":\"a) El receptor es habitualmente pasivo frente a la publicidad. \"}","question_order":"[0]","trial_type":"survey-multi-choice","trial_index":45,"time_elapsed":949748,"internal_node_id":"0.0-5.0-40.0"},{"rt":2015,"response":{"pregunta24 likert":3},"question_order":[0],"trial_type":"survey-likert","trial_index":46,"time_elapsed":951764,"internal_node_id":"0.0-5.0-41.0"},{"rt":34777.90000000037,"responses":"{\"pregunta12\":\"a) se da como existente, y sólo se discute su relación con el cuerpo. \"}","question_order":"[0]","trial_type":"survey-multi-choice","trial_index":47,"time_elapsed":986544,"internal_node_id":"0.0-5.0-42.0"},{"rt":1494.7000000001863,"response":{"pregunta12 likert":3},"question_order":[0],"trial_type":"survey-likert","trial_index":48,"time_elapsed":988039,"internal_node_id":"0.0-5.0-43.0"},{"rt":22066.19999999972,"responses":"{\"pregunta27\":\"b) Será difícil que las empresas nacionales compitan con las estadounidenses. \"}","question_order":"[0]","trial_type":"survey-multi-choice","trial_index":49,"time_elapsed":1010107,"internal_node_id":"0.0-5.0-44.0"},{"rt":1593.7999999998137,"response":{"pregunta27 likert":3},"question_order":[0],"trial_type":"survey-likert","trial_index":50,"time_elapsed":1011702,"internal_node_id":"0.0-5.0-45.0"},{"rt":11127.299999999814,"responses":"{\"pregunta19\":\"a) Si no se lee, es imposible valorar la planificación y aceptar principios científicos. \"}","question_order":"[0]","trial_type":"survey-multi-choice","trial_index":51,"time_elapsed":1022830,"internal_node_id":"0.0-5.0-46.0"},{"rt":1579,"response":{"pregunta19 likert":3},"question_order":[0],"trial_type":"survey-likert","trial_index":52,"time_elapsed":1024410,"internal_node_id":"0.0-5.0-47.0"},{"rt":26480.30000000028,"responses":"{\"pregunta17\":\"a) Homenajear a quienes murieron. \"}","question_order":"[0]","trial_type":"survey-multi-choice","trial_index":53,"time_elapsed":1050892,"internal_node_id":"0.0-5.0-48.0"},{"rt":1893.8000000002794,"response":{"pregunta17 likert":3},"question_order":[0],"trial_type":"survey-likert","trial_index":54,"time_elapsed":1052787,"internal_node_id":"0.0-5.0-49.0"},{"rt":36528.60000000009,"responses":"{\"pregunta4\":\"b) En la literatura como en la vida, lo importante son las preguntas. \"}","question_order":"[0]","trial_type":"survey-multi-choice","trial_index":55,"time_elapsed":1089316,"internal_node_id":"0.0-5.0-50.0"},{"rt":2156,"response":{"pregunta4 likert":3},"question_order":[0],"trial_type":"survey-likert","trial_index":56,"time_elapsed":1091473,"internal_node_id":"0.0-5.0-51.0"},{"rt":22999.5,"responses":"{\"pregunta9\":\"a) deben ser capaces de mantenerse económicamente de la misma forma que los hombres. \"}","question_order":"[0]","trial_type":"survey-multi-choice","trial_index":57,"time_elapsed":1114474,"internal_node_id":"0.0-5.0-52.0"},{"rt":1424.6000000000931,"response":{"pregunta9 likert":3},"question_order":[0],"trial_type":"survey-likert","trial_index":58,"time_elapsed":1115900,"internal_node_id":"0.0-5.0-53.0"},{"rt":21404.700000000186,"responses":"{\"pregunta5\":\"a) En los viajes es esencial el momento mismo de la escritura. \"}","question_order":"[0]","trial_type":"survey-multi-choice","trial_index":59,"time_elapsed":1137306,"internal_node_id":"0.0-5.0-54.0"},{"rt":1788.5,"response":{"pregunta5 likert":2},"question_order":[0],"trial_type":"survey-likert","trial_index":60,"time_elapsed":1139095,"internal_node_id":"0.0-5.0-55.0"},{"rt":56010.80000000028,"responses":"{\"pregunta25\":\"b) llevan un control grupal de su embarazo. \"}","question_order":"[0]","trial_type":"survey-multi-choice","trial_index":61,"time_elapsed":1195107,"internal_node_id":"0.0-5.0-56.0"},{"rt":1385.2000000001863,"response":{"pregunta25 likert":2},"question_order":[0],"trial_type":"survey-likert","trial_index":62,"time_elapsed":1196493,"internal_node_id":"0.0-5.0-57.0"},{"rt":26265,"responses":"{\"pregunta3\":\"a) El inicio de la civilización china. \"}","question_order":"[0]","trial_type":"survey-multi-choice","trial_index":63,"time_elapsed":1222759,"internal_node_id":"0.0-5.0-58.0"},{"rt":3503.0999999996275,"response":{"pregunta3 likert":3},"question_order":[0],"trial_type":"survey-likert","trial_index":64,"time_elapsed":1226263,"internal_node_id":"0.0-5.0-59.0"},{"rt":3381.100000000093,"stimulus":"<p style=\"font-size: 120%\">Gracias por completar esta etapa del estudio. Ahora te invitamos a responder el cuestionario.<br><br></p>","response":0,"trial_type":"html-button-response","trial_index":65,"time_elapsed":1229647,"internal_node_id":"0.0-6.0"},{"rt":28825.30000000028,"stimulus":"<h1 style=\"margin-top: 5%\">Cuestionario para la Evaluación de Metas Académicas</h1><p style=\"font-size: 120%; margin-left: 3%; margin-top: 5%\">Este es un cuestionario que permite conocer cuáles son los principales motivos por los que los estudiantes se esfuerzan en su trabajo académico. A continuación, se te presentarán una serie de afirmaciones acerca de los motivos que puedes tener para estudiar.<br>Te pedimos que contestes a dichas afirmaciones reflexionando sobre el contenido de cada una de ellas, que, aunque te parezcan semejantes, en realidad, no lo son.<br>NO HAY RESPUESTAS CORRECTAS o INCORRECTAS, sólo queremos que respondas con la mayor precisión y sinceridad posible a las preguntas que se plantean.","response":0,"trial_type":"html-button-response","trial_index":66,"time_elapsed":1258473,"internal_node_id":"0.0-7.0"},{"rt":97225.29999999981,"response":{"Metas cuestionario pregunta1":3,"Metas cuestionario pregunta2":3,"Metas cuestionario pregunta3":4,"Metas cuestionario pregunta4":2,"Metas cuestionario pregunta5":4,"Metas cuestionario pregunta6":2,"Metas cuestionario pregunta7":4,"Metas cuestionario pregunta8":4,"Metas cuestionario pregunta9":2,"Metas cuestionario pregunta10":2,"Metas cuestionario pregunta11":3,"Metas cuestionario pregunta12":2,"Metas cuestionario pregunta13":1,"Metas cuestionario pregunta14":2,"Metas cuestionario pregunta15":4,"Metas cuestionario pregunta16":4,"Metas cuestionario pregunta17":4,"Metas cuestionario pregunta18":4,"Metas cuestionario pregunta19":4,"Metas cuestionario pregunta20":4},"question_order":[0,1,2,3,4,5,6,7,8,9,10,11,12,13,14,15,16,17,18,19],"trial_type":"survey-likert","trial_index":67,"time_elapsed":1355702,"internal_node_id":"0.0-8.0"},{"rt":3437.5,"stimulus":"<p style=\"font-size: 120%\">Gracias por responder el cuestionario. Ahora te invitamos a seguir con el juego, que es muy breve.<br><br></p>","response":0,"trial_type":"html-button-response","trial_index":68,"time_elapsed":1359143,"internal_node_id":"0.0-9.0"},{"rt":4858.799999999814,"stimulus":"<h1>Juego</h1><p style=\"font-size: 120%;\">A continuación se te presentarán 16 pequeñas historias.<br>Por favor lee el texto presentado en cada una de ellas y luego haz click en el objeto de tu elección.<br>Si estás listo(a),<span style=\"color:red;\"> haz click en \"comenzar\"</span>.</p>","response":0,"trial_type":"html-button-response","trial_index":69,"time_elapsed":1364003,"internal_node_id":"0.0-10.0"},{"rt":10199.69999999972,"grid":[[1,1,1]],"target":[0,2],"response":[0,1],"correct":false,"juego":2,"trial_type":"serial-reaction-time-mouse","trial_index":70,"time_elapsed":1374204,"internal_node_id":"0.0-11.0-0.0"},{"rt":17416.19999999972,"grid":[[1,1,1]],"target":[0,0],"response":[0,1],"correct":false,"juego":11,"trial_type":"serial-reaction-time-mouse","trial_index":71,"time_elapsed":1391620,"internal_node_id":"0.0-11.0-1.0"},{"rt":14660.799999999814,"grid":[[1,1,1]],"target":[0,0],"response":[0,2],"correct":false,"juego":9,"trial_type":"serial-reaction-time-mouse","trial_index":72,"time_elapsed":1406283,"internal_node_id":"0.0-11.0-2.0"},{"rt":8490.399999999907,"grid":[[1,1,1],[1,1,1],[1,1,1],[1,1,1],[1,1,1],[1,1,1],[1,1,1]],"target":[0,0],"response":[5,1],"correct":false,"juego":13,"trial_type":"serial-reaction-time-mouse","trial_index":73,"time_elapsed":1414774,"internal_node_id":"0.0-11.0-3.0"},{"rt":7262.600000000093,"grid":[[1,1],[1,1],[1,1],[1,1],[1,1],[1,1],[1,1]],"target":[0,0],"response":[3,1],"correct":false,"juego":15,"trial_type":"serial-reaction-time-mouse","trial_index":74,"time_elapsed":1422038,"internal_node_id":"0.0-11.0-4.0"},{"rt":7261.5999999996275,"grid":[[1,1,1]],"target":[0,2],"response":[0,1],"correct":false,"juego":7,"trial_type":"serial-reaction-time-mouse","trial_index":75,"time_elapsed":1429301,"internal_node_id":"0.0-11.0-5.0"},{"rt":7754.799999999814,"grid":[[1,1,1]],"target":[0,0],"response":[0,1],"correct":false,"juego":12,"trial_type":"serial-reaction-time-mouse","trial_index":76,"time_elapsed":1437057,"internal_node_id":"0.0-11.0-6.0"},{"rt":2585.7999999998137,"grid":[[1,1,1]],"target":[0,2],"response":[0,1],"correct":false,"juego":8,"trial_type":"serial-reaction-time-mouse","trial_index":77,"time_elapsed":1439644,"internal_node_id":"0.0-11.0-7.0"},{"rt":6467.5,"grid":[[1,1,1]],"target":[0,2],"response":[0,1],"correct":false,"juego":1,"trial_type":"serial-reaction-time-mouse","trial_index":78,"time_elapsed":1446112,"internal_node_id":"0.0-11.0-8.0"},{"rt":7306.899999999907,"grid":[[1,1,1]],"target":[0,2],"response":[0,1],"correct":false,"juego":3,"trial_type":"serial-reaction-time-mouse","trial_index":79,"time_elapsed":1453420,"internal_node_id":"0.0-11.0-9.0"},{"rt":9341.299999999814,"grid":[[1,1,1],[1,1,1],[1,1,1]],"target":[0,0],"response":[2,2],"correct":false,"juego":10,"trial_type":"serial-reaction-time-mouse","trial_index":80,"time_elapsed":1462762,"internal_node_id":"0.0-11.0-10.0"},{"rt":5564.399999999907,"grid":[[1,1,1],[1,1,1],[1,1,1],[1,1,1],[1,1,1],[1,1,1],[1,1,1]],"target":[0,0],"response":[1,1],"correct":false,"juego":6,"trial_type":"serial-reaction-time-mouse","trial_index":81,"time_elapsed":1468328,"internal_node_id":"0.0-11.0-11.0"},{"rt":7230.199999999721,"grid":[[1,1],[1,1],[1,1],[1,1],[1,1],[1,1],[1,1]],"target":[0,0],"response":[1,1],"correct":false,"juego":14,"trial_type":"serial-reaction-time-mouse","trial_index":82,"time_elapsed":1475559,"internal_node_id":"0.0-11.0-12.0"},{"rt":7297,"grid":[[1],[1],[1],[1],[1],[1]],"target":[0,0],"response":[0,0],"correct":true,"juego":5,"trial_type":"serial-reaction-time-mouse","trial_index":83,"time_elapsed":1482857,"internal_node_id":"0.0-11.0-13.0"},{"rt":4045.2999999998137,"grid":[[1],[1],[1]],"target":[0,2],"response":[0,0],"correct":false,"juego":4,"trial_type":"serial-reaction-time-mouse","trial_index":84,"time_elapsed":1486903,"internal_node_id":"0.0-11.0-14.0"},{"rt":3689.3000000002794,"stimulus":"<h1>Último juego</h1><p style=\"font-size: 130%;\">Tienes <span style=\"color:red\">20</span> segundos para recordar los pares de palabras que aparecerán a continuación. <br></p>","response":0,"trial_type":"html-button-response","trial_index":85,"time_elapsed":1490595,"internal_node_id":"0.0-12.0"},{"animation_sequence":[{"stimulus":"imagen_juego_interferencia.jpg","time":519.7999999998137},{"stimulus":"imagen_juego_interferencia.jpg","time":1002.2999999998137},{"stimulus":"imagen_juego_interferencia.jpg","time":1502.2999999998137},{"stimulus":"imagen_juego_interferencia.jpg","time":2000.6000000000931},{"stimulus":"imagen_juego_interferencia.jpg","time":2501.100000000093},{"stimulus":"imagen_juego_interferencia.jpg","time":3002.5},{"stimulus":"imagen_juego_interferencia.jpg","time":3502.399999999907},{"stimulus":"imagen_juego_interferencia.jpg","time":4001.2000000001863},{"stimulus":"imagen_juego_interferencia.jpg","time":4501.299999999814},{"stimulus":"imagen_juego_interferencia.jpg","time":5002.200000000186},{"stimulus":"imagen_juego_interferencia.jpg","time":5502.5},{"stimulus":"imagen_juego_interferencia.jpg","time":6000.899999999907},{"stimulus":"imagen_juego_interferencia.jpg","time":6501.100000000093},{"stimulus":"imagen_juego_interferencia.jpg","time":7001.399999999907},{"stimulus":"imagen_juego_interferencia.jpg","time":7500.700000000186},{"stimulus":"imagen_juego_interferencia.jpg","time":8001.299999999814},{"stimulus":"imagen_juego_interferencia.jpg","time":8502.299999999814},{"stimulus":"imagen_juego_interferencia.jpg","time":9001.399999999907},{"stimulus":"imagen_juego_interferencia.jpg","time":9501.200000000186},{"stimulus":"imagen_juego_interferencia.jpg","time":10001.899999999907},{"stimulus":"imagen_juego_interferencia.jpg","time":10501.100000000093},{"stimulus":"imagen_juego_interferencia.jpg","time":11001.200000000186},{"stimulus":"imagen_juego_interferencia.jpg","time":11501.399999999907},{"stimulus":"imagen_juego_interferencia.jpg","time":12000.799999999814},{"stimulus":"imagen_juego_interferencia.jpg","time":12501.299999999814},{"stimulus":"imagen_juego_interferencia.jpg","time":13002.200000000186},{"stimulus":"imagen_juego_interferencia.jpg","time":13501.299999999814},{"stimulus":"imagen_juego_interferencia.jpg","time":14002.5},{"stimulus":"imagen_juego_interferencia.jpg","time":14501.299999999814},{"stimulus":"imagen_juego_interferencia.jpg","time":15001.299999999814},{"stimulus":"imagen_juego_interferencia.jpg","time":15502},{"stimulus":"imagen_juego_interferencia.jpg","time":16001.200000000186},{"stimulus":"imagen_juego_interferencia.jpg","time":16507.799999999814},{"stimulus":"imagen_juego_interferencia.jpg","time":17001.200000000186},{"stimulus":"imagen_juego_interferencia.jpg","time":17501.200000000186},{"stimulus":"imagen_juego_interferencia.jpg","time":18001.5},{"stimulus":"imagen_juego_interferencia.jpg","time":18501.200000000186},{"stimulus":"imagen_juego_interferencia.jpg","time":19001.100000000093},{"stimulus":"imagen_juego_interferencia.jpg","time":19502.100000000093},{"stimulus":"imagen_juego_interferencia.jpg","time":20001.5}],"response":[],"trial_type":"animation","trial_index":86,"time_elapsed":1511098,"internal_node_id":"0.0-13.0"},{"rt":13392.899999999907,"responses":"{\"pregunta interferencia2\":\"saltamontes\"}","question_order":"[0]","trial_type":"survey-multi-choice-cuest","trial_index":87,"time_elapsed":1524492,"internal_node_id":"0.0-14.0-0.0"},{"rt":4172.700000000186,"responses":"{\"pregunta interferencia3\":\"aluminio\"}","question_order":"[0]","trial_type":"survey-multi-choice-cuest","trial_index":88,"time_elapsed":1528666,"internal_node_id":"0.0-14.0-1.0"},{"rt":8423.799999999814,"responses":"{\"pregunta interferencia4\":\"dentista\"}","question_order":"[0]","trial_type":"survey-multi-choice-cuest","trial_index":89,"time_elapsed":1537091,"internal_node_id":"0.0-14.0-2.0"},{"rt":2646.6999999997206,"responses":"{\"pregunta interferencia1\":\"naranja\"}","question_order":"[0]","trial_type":"survey-multi-choice-cuest","trial_index":90,"time_elapsed":1539739,"internal_node_id":"0.0-14.0-3.0"},{"success":true,"trial_type":"fullscreen","trial_index":91,"time_elapsed":1540741,"internal_node_id":"0.0-15.0"},{"rt":119905.79999999981,"responses":"{\"Telefono\":\"+56948825175\"}","trial_type":"survey-text","trial_index":92,"time_elapsed":1660650,"internal_node_id":"0.0-16.0"}]