[{"rt":31087.940000001254,"stimulus":"<h1 style=\"color:red; margin-top: 3%;\">¡Bienvenido(a)!</h1><p style=\"text-align:left; justify-content:space-between; margin-right: 5%; margin-left: 5%; margin-top: 5%\"> Antes de empezar el estudio, necesitamos que nos confirmes que estás de acuerdo con participar. Recuerda que tu participación es 100% voluntaria y que lo único que te pedimos es responder lo mejor que puedas. Recuerda también que el estudio incluye:</p><ol style=\"text-align:left; justify-content:space-between; margin-right: 5%; margin-left: 5%;\"><li> un ejercicio de resolución de preguntas de selección múltiple (30’),</li><li>un cuestionario breve (5’),</li><li>un juego muy breve (3’),</li></ol><p style=\"text-align:left; justify-content:space-between; margin-right: 5%; margin-left: 5%;\">Si quieres participar, haz clic en “Acepto” luego de leer lo siguiente:<br></p><p style=\"text-align:left; justify-content:space-between; margin-right: 5%; margin-left: 5%;\">Acepto participar en el estudio “Estrategias de lectura y resolución de preguntas de selección múltiple”, en los términos aquí señalados:<br></p><p style=\"text-align:left; justify-content:space-between; margin-right: 5%; margin-left: 5%;\"><a href=\"http://ciae.uchile.cl/download.php?file=noticias/Asentimiento.pdf\" target=\"_blank\">Link a la hoja de información del Consentimiento.</a></p><p style=\"text-align:left; justify-content:space-between; margin-right: 5%; margin-left: 5%;\">Declaro que he leído (o se me ha leído) y (he) comprendido, las condiciones de mi participación en este estudio. He tenido la oportunidad de hacer preguntas y éstas han sido respondidas. No tengo dudas al respecto.</p>","response":0,"condicion_MCQ":5,"condicion_INTER":11,"numero_participante":11,"numero_version":2,"dimx":1280,"dimy":800,"color_profundidad":24,"pixel_profundidad":24,"Browser":"Google Chrome","trial_type":"html-button-response","trial_index":0,"time_elapsed":31176,"internal_node_id":"0.0-0.0"},{"success":true,"trial_type":"fullscreen","trial_index":1,"time_elapsed":48215,"internal_node_id":"0.0-1.0"},{"rt":83183.78500000108,"responses":"{\"Nombres\":\"dominique virginia\",\"Apellidos\":\"moreno godoy\",\"Edad\":\"21\",\"Sexo\":\"mujer\",\"Curso\":\"203\",\"Colegio\":\"unab\",\"Contacto\":\"mimi.morenoo@gmail.com\"}","trial_type":"survey-text","trial_index":2,"time_elapsed":131042,"internal_node_id":"0.0-2.0"},{"success":true,"timeout":false,"failed_images":[],"failed_audio":[],"failed_video":[],"trial_type":"preload","trial_index":3,"time_elapsed":136194,"internal_node_id":"0.0-3.0"},{"rt":11398.740000000544,"stimulus":"<h1 style:\"margin-top: 5%;\">Ejercicios de Comprensión de Lectura de la Universidad de Chile</h1><p style=\"font-size: 120%;\">En esta actividad, debes responder 30 preguntas de selección múltiple. Cada pregunta presenta 3 respuestas alternativas, pero sólo una de ellas es correcta. Por lo tanto, debes escoger una sola alternativa para cada pregunta. Además, debes reportar qué tan seguro(a) estás de la respuesta que das, con un:</p><ol style=\"font-size: 120%;text-align:left;margin-left: 40%;\"><li>No estoy seguro(a) para nada</li><li>No estoy muy seguro(a)</li><li>Estoy bastante seguro(a)</li><li>Estoy totalmente seguro(a)</li></ol><p style=\"font-size: 120%;\">Por favor lee bien los enunciados antes de responder. ¡Éxito!</p>","response":0,"trial_type":"html-button-response","trial_index":4,"time_elapsed":147594,"internal_node_id":"0.0-4.0"},{"rt":75323.49500000055,"responses":"{\"pregunta9\":\"b) pueden rendir exámenes para optar y obtener títulos profesionales igual que los hombres. \"}","question_order":"[0]","trial_type":"survey-multi-choice","trial_index":5,"time_elapsed":222917,"internal_node_id":"0.0-5.0-0.0"},{"rt":5639.090000000579,"response":{"pregunta9 likert":1},"question_order":[0],"trial_type":"survey-likert","trial_index":6,"time_elapsed":228558,"internal_node_id":"0.0-5.0-1.0"},{"rt":26211.920000001584,"responses":"{\"pregunta2\":\"b) A la relación entre pensamiento y estructura social. \"}","question_order":"[0]","trial_type":"survey-multi-choice","trial_index":7,"time_elapsed":254772,"internal_node_id":"0.0-5.0-2.0"},{"rt":2245.869999998831,"response":{"pregunta2 likert":2},"question_order":[0],"trial_type":"survey-likert","trial_index":8,"time_elapsed":257019,"internal_node_id":"0.0-5.0-3.0"},{"rt":66817.41500000138,"responses":"{\"pregunta6\":\"a) Las voces extranjeras viven una tensión entre la aceptación y el rechazo. \"}","question_order":"[0]","trial_type":"survey-multi-choice","trial_index":9,"time_elapsed":323836,"internal_node_id":"0.0-5.0-4.0"},{"rt":2464.609999999113,"response":{"pregunta6 likert":1},"question_order":[0],"trial_type":"survey-likert","trial_index":10,"time_elapsed":326303,"internal_node_id":"0.0-5.0-5.0"},{"rt":55246.40999999974,"responses":"{\"pregunta20\":\"a) el mejor emperador es el que está muerto. \"}","question_order":"[0]","trial_type":"survey-multi-choice","trial_index":11,"time_elapsed":381549,"internal_node_id":"0.0-5.0-6.0"},{"rt":2820.414999998291,"response":{"pregunta20 likert":2},"question_order":[0],"trial_type":"survey-likert","trial_index":12,"time_elapsed":384372,"internal_node_id":"0.0-5.0-7.0"},{"rt":42678.900000002584,"responses":"{\"pregunta12\":\"a) es una realidad discutida por algunos. \"}","question_order":"[0]","trial_type":"survey-multi-choice","trial_index":13,"time_elapsed":427051,"internal_node_id":"0.0-5.0-8.0"},{"rt":2964.3099999993574,"response":{"pregunta12 likert":2},"question_order":[0],"trial_type":"survey-likert","trial_index":14,"time_elapsed":430017,"internal_node_id":"0.0-5.0-9.0"},{"rt":72765.75500000035,"responses":"{\"pregunta3\":\"c) El inicio de la civilización china. \"}","question_order":"[0]","trial_type":"survey-multi-choice","trial_index":15,"time_elapsed":502783,"internal_node_id":"0.0-5.0-10.0"},{"rt":3050.4099999997998,"response":{"pregunta3 likert":2},"question_order":[0],"trial_type":"survey-likert","trial_index":16,"time_elapsed":505835,"internal_node_id":"0.0-5.0-11.0"},{"rt":42184.55499999982,"responses":"{\"pregunta16\":\"a) Provocar el deseo de la adquisición vertiginosa. \"}","question_order":"[0]","trial_type":"survey-multi-choice","trial_index":17,"time_elapsed":548020,"internal_node_id":"0.0-5.0-12.0"},{"rt":2958.4649999997346,"response":{"pregunta16 likert":2},"question_order":[0],"trial_type":"survey-likert","trial_index":18,"time_elapsed":550980,"internal_node_id":"0.0-5.0-13.0"},{"rt":31057.560000000987,"responses":"{\"pregunta21\":\"b) el uranio es el elemento natural con el mayor número de protones en el núcleo. \"}","question_order":"[0]","trial_type":"survey-multi-choice","trial_index":19,"time_elapsed":582038,"internal_node_id":"0.0-5.0-14.0"},{"rt":4312.229999999632,"response":{"pregunta21 likert":2},"question_order":[0],"trial_type":"survey-likert","trial_index":20,"time_elapsed":586352,"internal_node_id":"0.0-5.0-15.0"},{"rt":44713.3050000011,"responses":"{\"pregunta18\":\"c) A la inutilidad de tanto esfuerzo si el objetivo es el reposo. \"}","question_order":"[0]","trial_type":"survey-multi-choice","trial_index":21,"time_elapsed":631065,"internal_node_id":"0.0-5.0-16.0"},{"rt":3456.3949999974575,"response":{"pregunta18 likert":2},"question_order":[0],"trial_type":"survey-likert","trial_index":22,"time_elapsed":634523,"internal_node_id":"0.0-5.0-17.0"},{"rt":61733.714999998454,"responses":"{\"pregunta11\":\"a) Orientar la opción estética de un grupo de personas en lo que se refiere a la decoración de interiores. \"}","question_order":"[0]","trial_type":"survey-multi-choice","trial_index":23,"time_elapsed":696257,"internal_node_id":"0.0-5.0-18.0"},{"rt":3211.8400000035763,"response":{"pregunta11 likert":2},"question_order":[0],"trial_type":"survey-likert","trial_index":24,"time_elapsed":699471,"internal_node_id":"0.0-5.0-19.0"},{"rt":41802.224999999395,"responses":"{\"pregunta10\":\"c) La biónica puede asegurar nuestra existencia mediante la aplicación de técnicas copiadas de la naturaleza. \"}","question_order":"[0]","trial_type":"survey-multi-choice","trial_index":25,"time_elapsed":741273,"internal_node_id":"0.0-5.0-20.0"},{"rt":2416.4249999994645,"response":{"pregunta10 likert":2},"question_order":[0],"trial_type":"survey-likert","trial_index":26,"time_elapsed":743691,"internal_node_id":"0.0-5.0-21.0"},{"rt":47557.47500000149,"responses":"{\"pregunta4\":\"a) En la literatura como en la vida, lo importante son las preguntas. \"}","question_order":"[0]","trial_type":"survey-multi-choice","trial_index":27,"time_elapsed":791249,"internal_node_id":"0.0-5.0-22.0"},{"rt":2504.1849999979604,"response":{"pregunta4 likert":1},"question_order":[0],"trial_type":"survey-likert","trial_index":28,"time_elapsed":793756,"internal_node_id":"0.0-5.0-23.0"},{"rt":36781.26999999944,"responses":"{\"pregunta15\":\"b) ritualistas y obsesivos. \"}","question_order":"[0]","trial_type":"survey-multi-choice","trial_index":29,"time_elapsed":830538,"internal_node_id":"0.0-5.0-24.0"},{"rt":2198.239999997895,"response":{"pregunta15 likert":1},"question_order":[0],"trial_type":"survey-likert","trial_index":30,"time_elapsed":832738,"internal_node_id":"0.0-5.0-25.0"},{"rt":54218.44499999855,"responses":"{\"pregunta7\":\"c) La imprenta y el papel han permitido el desarrollo de la civilización y la conservación de su cultura, y ambos son inventos chinos. \"}","question_order":"[0]","trial_type":"survey-multi-choice","trial_index":31,"time_elapsed":886956,"internal_node_id":"0.0-5.0-26.0"},{"rt":3698.3350000010105,"response":{"pregunta7 likert":2},"question_order":[0],"trial_type":"survey-likert","trial_index":32,"time_elapsed":890656,"internal_node_id":"0.0-5.0-27.0"},{"rt":95943.82499999856,"responses":"{\"pregunta24\":\"c) El receptor es habitualmente pasivo frente a la publicidad. \"}","question_order":"[0]","trial_type":"survey-multi-choice","trial_index":33,"time_elapsed":986600,"internal_node_id":"0.0-5.0-28.0"},{"rt":2350.620000001043,"response":{"pregunta24 likert":1},"question_order":[0],"trial_type":"survey-likert","trial_index":34,"time_elapsed":988952,"internal_node_id":"0.0-5.0-29.0"},{"rt":47833.710000002524,"responses":"{\"pregunta23\":\"a) A la influencia de grupos que rechazaban su música. \"}","question_order":"[0]","trial_type":"survey-multi-choice","trial_index":35,"time_elapsed":1036787,"internal_node_id":"0.0-5.0-30.0"},{"rt":4140.3000000028405,"response":{"pregunta23 likert":1},"question_order":[0],"trial_type":"survey-likert","trial_index":36,"time_elapsed":1040929,"internal_node_id":"0.0-5.0-31.0"},{"rt":45295.799999999814,"responses":"{\"pregunta13\":\"a) El ser humano se comporta de acuerdo con las circunstancias. \"}","question_order":"[0]","trial_type":"survey-multi-choice","trial_index":37,"time_elapsed":1086225,"internal_node_id":"0.0-5.0-32.0"},{"rt":2280.2400000002235,"response":{"pregunta13 likert":2},"question_order":[0],"trial_type":"survey-likert","trial_index":38,"time_elapsed":1088507,"internal_node_id":"0.0-5.0-33.0"},{"rt":28817.11500000162,"responses":"{\"pregunta28\":\"c) Se necesita un marco legal para delimitar lo público y lo privado en materia informativa. \"}","question_order":"[0]","trial_type":"survey-multi-choice","trial_index":39,"time_elapsed":1117325,"internal_node_id":"0.0-5.0-34.0"},{"rt":3521.4000000015367,"response":{"pregunta28 likert":2},"question_order":[0],"trial_type":"survey-likert","trial_index":40,"time_elapsed":1120847,"internal_node_id":"0.0-5.0-35.0"},{"rt":75147.54499999969,"responses":"{\"pregunta17\":\"c) Homenajear a quienes murieron. \"}","question_order":"[0]","trial_type":"survey-multi-choice","trial_index":41,"time_elapsed":1195994,"internal_node_id":"0.0-5.0-36.0"},{"rt":3946.934999999823,"response":{"pregunta17 likert":2},"question_order":[0],"trial_type":"survey-likert","trial_index":42,"time_elapsed":1199943,"internal_node_id":"0.0-5.0-37.0"},{"rt":32351.135000000708,"responses":"{\"pregunta22\":\"a) Se debe crear un seguro médico especial para esta institución, pues es de alto riesgo. \"}","question_order":"[0]","trial_type":"survey-multi-choice","trial_index":43,"time_elapsed":1232294,"internal_node_id":"0.0-5.0-38.0"},{"rt":2822.3849999995437,"response":{"pregunta22 likert":1},"question_order":[0],"trial_type":"survey-likert","trial_index":44,"time_elapsed":1235118,"internal_node_id":"0.0-5.0-39.0"},{"rt":50951.09000000241,"responses":"{\"pregunta14\":\"a) un recuerdo nostálgico. \"}","question_order":"[0]","trial_type":"survey-multi-choice","trial_index":45,"time_elapsed":1286070,"internal_node_id":"0.0-5.0-40.0"},{"rt":2312.0899999993853,"response":{"pregunta14 likert":2},"question_order":[0],"trial_type":"survey-likert","trial_index":46,"time_elapsed":1288383,"internal_node_id":"0.0-5.0-41.0"},{"rt":37288.84499999904,"responses":"{\"pregunta29\":\"a) el jardinero estará muerto al día siguiente. \"}","question_order":"[0]","trial_type":"survey-multi-choice","trial_index":47,"time_elapsed":1325673,"internal_node_id":"0.0-5.0-42.0"},{"rt":2388.1550000007264,"response":{"pregunta29 likert":2},"question_order":[0],"trial_type":"survey-likert","trial_index":48,"time_elapsed":1328063,"internal_node_id":"0.0-5.0-43.0"},{"rt":31474.219999999972,"responses":"{\"pregunta8\":\"a) Dar a conocer al ganador del premio Cervantes. \"}","question_order":"[0]","trial_type":"survey-multi-choice","trial_index":49,"time_elapsed":1359538,"internal_node_id":"0.0-5.0-44.0"},{"rt":2282.1150000016205,"response":{"pregunta8 likert":1},"question_order":[0],"trial_type":"survey-likert","trial_index":50,"time_elapsed":1361822,"internal_node_id":"0.0-5.0-45.0"},{"rt":83687.6100000008,"responses":"{\"pregunta25\":\"b) llevan un control grupal de su embarazo. \"}","question_order":"[0]","trial_type":"survey-multi-choice","trial_index":51,"time_elapsed":1445508,"internal_node_id":"0.0-5.0-46.0"},{"rt":3466.2149999965914,"response":{"pregunta25 likert":0},"question_order":[0],"trial_type":"survey-likert","trial_index":52,"time_elapsed":1448976,"internal_node_id":"0.0-5.0-47.0"},{"rt":21143.15999999945,"responses":"{\"pregunta30\":\"a) la muerte es distinta en las grandes ciudades. \"}","question_order":"[0]","trial_type":"survey-multi-choice","trial_index":53,"time_elapsed":1470120,"internal_node_id":"0.0-5.0-48.0"},{"rt":2184.5199999990873,"response":{"pregunta30 likert":2},"question_order":[0],"trial_type":"survey-likert","trial_index":54,"time_elapsed":1472306,"internal_node_id":"0.0-5.0-49.0"},{"rt":27030.03000000189,"responses":"{\"pregunta27\":\"b) Nuestra economía vivirá un proceso de ajuste a la nueva realidad. \"}","question_order":"[0]","trial_type":"survey-multi-choice","trial_index":55,"time_elapsed":1499337,"internal_node_id":"0.0-5.0-50.0"},{"rt":3080.505000001751,"response":{"pregunta27 likert":1},"question_order":[0],"trial_type":"survey-likert","trial_index":56,"time_elapsed":1502419,"internal_node_id":"0.0-5.0-51.0"},{"rt":52144.16499999794,"responses":"{\"pregunta19\":\"c) El hábito de la lectura y el progreso mantienen una relación inversamente proporcional. \"}","question_order":"[0]","trial_type":"survey-multi-choice","trial_index":57,"time_elapsed":1554563,"internal_node_id":"0.0-5.0-52.0"},{"rt":2750.484999996843,"response":{"pregunta19 likert":1},"question_order":[0],"trial_type":"survey-likert","trial_index":58,"time_elapsed":1557316,"internal_node_id":"0.0-5.0-53.0"},{"rt":57880.04500000179,"responses":"{\"pregunta26\":\"a) el sujeto sufre con su modo de vida. \"}","question_order":"[0]","trial_type":"survey-multi-choice","trial_index":59,"time_elapsed":1615196,"internal_node_id":"0.0-5.0-54.0"},{"rt":2398.634999997681,"response":{"pregunta26 likert":1},"question_order":[0],"trial_type":"survey-likert","trial_index":60,"time_elapsed":1617596,"internal_node_id":"0.0-5.0-55.0"},{"rt":47571.654999999795,"responses":"{\"pregunta5\":\"c) La escritura plasma los mejores momentos de los viajes. \"}","question_order":"[0]","trial_type":"survey-multi-choice","trial_index":61,"time_elapsed":1665168,"internal_node_id":"0.0-5.0-56.0"},{"rt":2580.284999999916,"response":{"pregunta5 likert":1},"question_order":[0],"trial_type":"survey-likert","trial_index":62,"time_elapsed":1667750,"internal_node_id":"0.0-5.0-57.0"},{"rt":28413.83000000124,"responses":"{\"pregunta1\":\"a) Entregan una característica detallada del personaje, a través de la voz narrativa. \"}","question_order":"[0]","trial_type":"survey-multi-choice","trial_index":63,"time_elapsed":1696165,"internal_node_id":"0.0-5.0-58.0"},{"rt":2228.289999999106,"response":{"pregunta1 likert":1},"question_order":[0],"trial_type":"survey-likert","trial_index":64,"time_elapsed":1698395,"internal_node_id":"0.0-5.0-59.0"},{"rt":2699.055000001099,"stimulus":"<p style=\"font-size: 120%\">Gracias por completar esta etapa del estudio. Ahora te invitamos a responder el cuestionario.<br><br></p>","response":0,"trial_type":"html-button-response","trial_index":65,"time_elapsed":1701176,"internal_node_id":"0.0-6.0"},{"rt":35181.82499999972,"stimulus":"<h1 style=\"margin-top: 5%\">Cuestionario para la Evaluación de Metas Académicas</h1><p style=\"font-size: 120%; margin-left: 3%; margin-top: 5%\">Este es un cuestionario que permite conocer cuáles son los principales motivos por los que los estudiantes se esfuerzan en su trabajo académico. A continuación, se te presentarán una serie de afirmaciones acerca de los motivos que puedes tener para estudiar.<br>Te pedimos que contestes a dichas afirmaciones reflexionando sobre el contenido de cada una de ellas, que, aunque te parezcan semejantes, en realidad, no lo son.<br>NO HAY RESPUESTAS CORRECTAS o INCORRECTAS, sólo queremos que respondas con la mayor precisión y sinceridad posible a las preguntas que se plantean.","response":0,"trial_type":"html-button-response","trial_index":66,"time_elapsed":1736358,"internal_node_id":"0.0-7.0"},{"rt":121614.33000000031,"response":{"Metas cuestionario pregunta1":2,"Metas cuestionario pregunta2":3,"Metas cuestionario pregunta3":1,"Metas cuestionario pregunta4":2,"Metas cuestionario pregunta5":4,"Metas cuestionario pregunta6":2,"Metas cuestionario pregunta7":2,"Metas cuestionario pregunta8":2,"Metas cuestionario pregunta9":4,"Metas cuestionario pregunta10":1,"Metas cuestionario pregunta11":0,"Metas cuestionario pregunta12":0,"Metas cuestionario pregunta13":3,"Metas cuestionario pregunta14":1,"Metas cuestionario pregunta15":4,"Metas cuestionario pregunta16":4,"Metas cuestionario pregunta17":4,"Metas cuestionario pregunta18":4,"Metas cuestionario pregunta19":4,"Metas cuestionario pregunta20":4},"question_order":[0,1,2,3,4,5,6,7,8,9,10,11,12,13,14,15,16,17,18,19],"trial_type":"survey-likert","trial_index":67,"time_elapsed":1857976,"internal_node_id":"0.0-8.0"},{"rt":2666.890000000363,"stimulus":"<p style=\"font-size: 120%\">Gracias por responder el cuestionario. Ahora te invitamos a seguir con el juego, que es muy breve.<br><br></p>","response":0,"trial_type":"html-button-response","trial_index":68,"time_elapsed":1860647,"internal_node_id":"0.0-9.0"},{"rt":6088.139999999898,"stimulus":"<h1>Juego</h1><p style=\"font-size: 120%;\">A continuación se te presentarán 16 pequeñas historias.<br>Por favor lee el texto presentado en cada una de ellas y luego haz click en el objeto de tu elección.<br>Si estás listo(a),<span style=\"color:red;\"> haz click en \"comenzar\"</span>.</p>","response":0,"trial_type":"html-button-response","trial_index":69,"time_elapsed":1866736,"internal_node_id":"0.0-10.0"},{"rt":16573.100000001257,"grid":[[1,1,1]],"target":[0,0],"response":[0,1],"correct":false,"juego":12,"trial_type":"serial-reaction-time-mouse","trial_index":70,"time_elapsed":1883310,"internal_node_id":"0.0-11.0-0.0"},{"rt":4595.614999998361,"grid":[[1],[1],[1]],"target":[0,2],"response":[0,0],"correct":false,"juego":4,"trial_type":"serial-reaction-time-mouse","trial_index":71,"time_elapsed":1887907,"internal_node_id":"0.0-11.0-1.0"},{"rt":8451.335000001593,"grid":[[1,1,1]],"target":[0,2],"response":[0,2],"correct":true,"juego":8,"trial_type":"serial-reaction-time-mouse","trial_index":72,"time_elapsed":1896359,"internal_node_id":"0.0-11.0-2.0"},{"rt":7716.539999997709,"grid":[[1,1,1],[1,1,1],[1,1,1],[1,1,1],[1,1,1],[1,1,1],[1,1,1]],"target":[0,0],"response":[5,1],"correct":false,"juego":13,"trial_type":"serial-reaction-time-mouse","trial_index":73,"time_elapsed":1904077,"internal_node_id":"0.0-11.0-3.0"},{"rt":5662.605000001378,"grid":[[1,1,1]],"target":[0,2],"response":[0,0],"correct":false,"juego":7,"trial_type":"serial-reaction-time-mouse","trial_index":74,"time_elapsed":1909741,"internal_node_id":"0.0-11.0-4.0"},{"rt":5321.680000000866,"grid":[[1,1,1],[1,1,1],[1,1,1],[1,1,1],[1,1,1],[1,1,1],[1,1,1]],"target":[0,0],"response":[1,1],"correct":false,"juego":6,"trial_type":"serial-reaction-time-mouse","trial_index":75,"time_elapsed":1915064,"internal_node_id":"0.0-11.0-5.0"},{"rt":9173.290000002366,"grid":[[1,1,1]],"target":[0,2],"response":[0,2],"correct":true,"juego":3,"trial_type":"serial-reaction-time-mouse","trial_index":76,"time_elapsed":1924238,"internal_node_id":"0.0-11.0-6.0"},{"rt":9564.010000001872,"grid":[[1],[1],[1],[1],[1],[1]],"target":[0,0],"response":[0,0],"correct":true,"juego":5,"trial_type":"serial-reaction-time-mouse","trial_index":77,"time_elapsed":1933803,"internal_node_id":"0.0-11.0-7.0"},{"rt":10357.230000001378,"grid":[[1,1,1]],"target":[0,0],"response":[0,1],"correct":false,"juego":11,"trial_type":"serial-reaction-time-mouse","trial_index":78,"time_elapsed":1944161,"internal_node_id":"0.0-11.0-8.0"},{"rt":8468.330000003334,"grid":[[1,1,1]],"target":[0,0],"response":[0,2],"correct":false,"juego":9,"trial_type":"serial-reaction-time-mouse","trial_index":79,"time_elapsed":1952630,"internal_node_id":"0.0-11.0-9.0"},{"rt":9060.969999998575,"grid":[[1,1],[1,1],[1,1],[1,1],[1,1],[1,1],[1,1]],"target":[0,0],"response":[3,1],"correct":false,"juego":15,"trial_type":"serial-reaction-time-mouse","trial_index":80,"time_elapsed":1961693,"internal_node_id":"0.0-11.0-10.0"},{"rt":9220.344999997877,"grid":[[1,1,1]],"target":[0,2],"response":[0,2],"correct":true,"juego":2,"trial_type":"serial-reaction-time-mouse","trial_index":81,"time_elapsed":1970914,"internal_node_id":"0.0-11.0-11.0"},{"rt":2465.295000001788,"grid":[[1,1,1]],"target":[0,2],"response":[0,2],"correct":true,"juego":1,"trial_type":"serial-reaction-time-mouse","trial_index":82,"time_elapsed":1973380,"internal_node_id":"0.0-11.0-12.0"},{"rt":15208.954999998212,"grid":[[1,1,1],[1,1,1],[1,1,1]],"target":[0,0],"response":[2,2],"correct":false,"juego":10,"trial_type":"serial-reaction-time-mouse","trial_index":83,"time_elapsed":1988590,"internal_node_id":"0.0-11.0-13.0"},{"rt":5329.465000002645,"grid":[[1,1],[1,1],[1,1],[1,1],[1,1],[1,1],[1,1]],"target":[0,0],"response":[5,1],"correct":false,"juego":14,"trial_type":"serial-reaction-time-mouse","trial_index":84,"time_elapsed":1993921,"internal_node_id":"0.0-11.0-14.0"}]