[{"rt":362207.0449999883,"stimulus":"<h1 style=\"color:red; margin-top: 3%;\">¡Bienvenido(a)!</h1><p style=\"text-align:left; justify-content:space-between; margin-right: 5%; margin-left: 5%; margin-top: 5%\"> Antes de empezar el estudio, necesitamos que nos confirmes que estás de acuerdo con participar. Recuerda que tu participación es 100% voluntaria y que lo único que te pedimos es responder lo mejor que puedas. Recuerda también que el estudio incluye:</p><ol style=\"text-align:left; justify-content:space-between; margin-right: 5%; margin-left: 5%;\"><li> un ejercicio de resolución de preguntas de selección múltiple (30’),</li><li>un cuestionario breve (5’),</li><li>un juego muy breve (3’),</li></ol><p style=\"text-align:left; justify-content:space-between; margin-right: 5%; margin-left: 5%;\">Si quieres participar, haz clic en “Acepto” luego de leer lo siguiente:<br></p><p style=\"text-align:left; justify-content:space-between; margin-right: 5%; margin-left: 5%;\">Acepto participar en el estudio “Estrategias de lectura y resolución de preguntas de selección múltiple”, en los términos aquí señalados:<br></p><p style=\"text-align:left; justify-content:space-between; margin-right: 5%; margin-left: 5%;\"><a href=\"http://ciae.uchile.cl/download.php?file=noticias/Asentimiento.pdf\" target=\"_blank\">Link a la hoja de información del Consentimiento.</a></p><p style=\"text-align:left; justify-content:space-between; margin-right: 5%; margin-left: 5%;\">Declaro que he leído (o se me ha leído) y (he) comprendido, las condiciones de mi participación en este estudio. He tenido la oportunidad de hacer preguntas y éstas han sido respondidas. No tengo dudas al respecto.</p>","response":0,"condicion_MCQ":2,"condicion_INTER":14,"numero_participante":14,"numero_version":1,"dimx":1366,"dimy":768,"color_profundidad":24,"pixel_profundidad":24,"Browser":"Google Chrome","trial_type":"html-button-response","trial_index":0,"time_elapsed":362219,"internal_node_id":"0.0-0.0"},{"success":true,"trial_type":"fullscreen","trial_index":1,"time_elapsed":375425,"internal_node_id":"0.0-1.0"},{"rt":93157.83999999985,"responses":"{\"Nombres\":\"Romina Nicole\",\"Apellidos\":\"Galaz Consolo\",\"Edad\":\"18\",\"Sexo\":\"mujer\",\"Curso\":\"Primer semestre\",\"Colegio\":\"Universidad Andres Bello\",\"Contacto\":\"Romachancleta@gmail.com\"}","trial_type":"survey-text","trial_index":2,"time_elapsed":468601,"internal_node_id":"0.0-2.0"},{"success":true,"timeout":false,"failed_images":[],"failed_audio":[],"failed_video":[],"trial_type":"preload","trial_index":3,"time_elapsed":469230,"internal_node_id":"0.0-3.0"},{"rt":23033.7999999756,"stimulus":"<h1 style:\"margin-top: 5%;\">Ejercicios de Comprensión de Lectura de la Universidad de Chile</h1><p style=\"font-size: 120%;\">En esta actividad, debes responder 30 preguntas de selección múltiple. Cada pregunta presenta 3 respuestas alternativas, pero sólo una de ellas es correcta. Por lo tanto, debes escoger una sola alternativa para cada pregunta. Además, debes reportar qué tan seguro(a) estás de la respuesta que das, con un:</p><ol style=\"font-size: 120%;text-align:left;margin-left: 40%;\"><li>No estoy seguro(a) para nada</li><li>No estoy muy seguro(a)</li><li>Estoy bastante seguro(a)</li><li>Estoy totalmente seguro(a)</li></ol><p style=\"font-size: 120%;\">Por favor lee bien los enunciados antes de responder. ¡Éxito!</p>","response":0,"trial_type":"html-button-response","trial_index":4,"time_elapsed":492266,"internal_node_id":"0.0-4.0"},{"rt":83640.74000000255,"responses":"{\"pregunta7\":\"c) La imprenta y el papel han permitido el desarrollo de la civilización y la conservación de su cultura, y ambos son inventos chinos. \"}","question_order":"[0]","trial_type":"survey-multi-choice","trial_index":5,"time_elapsed":575911,"internal_node_id":"0.0-5.0-0.0"},{"rt":5827.77500001248,"response":{"pregunta7 likert":3},"question_order":[0],"trial_type":"survey-likert","trial_index":6,"time_elapsed":581745,"internal_node_id":"0.0-5.0-1.0"},{"rt":124106.45999998087,"responses":"{\"pregunta4\":\"b) En la literatura como en la vida, todo es metáfora. \"}","question_order":"[0]","trial_type":"survey-multi-choice","trial_index":7,"time_elapsed":705854,"internal_node_id":"0.0-5.0-2.0"},{"rt":4734.939999994822,"response":{"pregunta4 likert":2},"question_order":[0],"trial_type":"survey-likert","trial_index":8,"time_elapsed":710591,"internal_node_id":"0.0-5.0-3.0"},{"rt":58435.579999990296,"responses":"{\"pregunta10\":\"b) La biónica es una disciplina que aprovecha las condiciones del entorno. \"}","question_order":"[0]","trial_type":"survey-multi-choice","trial_index":9,"time_elapsed":769028,"internal_node_id":"0.0-5.0-4.0"},{"rt":4118.545000033919,"response":{"pregunta10 likert":2},"question_order":[0],"trial_type":"survey-likert","trial_index":10,"time_elapsed":773148,"internal_node_id":"0.0-5.0-5.0"},{"rt":43092.76000002865,"responses":"{\"pregunta16\":\"a) Provocar el deseo de la adquisición vertiginosa. \"}","question_order":"[0]","trial_type":"survey-multi-choice","trial_index":11,"time_elapsed":816246,"internal_node_id":"0.0-5.0-6.0"},{"rt":3348.88999996474,"response":{"pregunta16 likert":3},"question_order":[0],"trial_type":"survey-likert","trial_index":12,"time_elapsed":819597,"internal_node_id":"0.0-5.0-7.0"},{"rt":118359.90499996115,"responses":"{\"pregunta12\":\"c) se da como existente, y sólo se discute su relación con el cuerpo. \"}","question_order":"[0]","trial_type":"survey-multi-choice","trial_index":13,"time_elapsed":937958,"internal_node_id":"0.0-5.0-8.0"},{"rt":3265.060000005178,"response":{"pregunta12 likert":1},"question_order":[0],"trial_type":"survey-likert","trial_index":14,"time_elapsed":941225,"internal_node_id":"0.0-5.0-9.0"},{"rt":66698.35500000045,"responses":"{\"pregunta15\":\"b) ritualistas y obsesivos. \"}","question_order":"[0]","trial_type":"survey-multi-choice","trial_index":15,"time_elapsed":1007926,"internal_node_id":"0.0-5.0-10.0"},{"rt":5278.025000006892,"response":{"pregunta15 likert":0},"question_order":[0],"trial_type":"survey-likert","trial_index":16,"time_elapsed":1013206,"internal_node_id":"0.0-5.0-11.0"},{"rt":43637.91500002844,"responses":"{\"pregunta21\":\"a) a partir de la manipulación del núcleo se han creado elementos químicos naturales. \"}","question_order":"[0]","trial_type":"survey-multi-choice","trial_index":17,"time_elapsed":1056845,"internal_node_id":"0.0-5.0-12.0"},{"rt":2549.4049999979325,"response":{"pregunta21 likert":3},"question_order":[0],"trial_type":"survey-likert","trial_index":18,"time_elapsed":1059396,"internal_node_id":"0.0-5.0-13.0"},{"rt":61741.7500000447,"responses":"{\"pregunta17\":\"b) Atraer a los turistas. \"}","question_order":"[0]","trial_type":"survey-multi-choice","trial_index":19,"time_elapsed":1121140,"internal_node_id":"0.0-5.0-14.0"},{"rt":3412.349999998696,"response":{"pregunta17 likert":3},"question_order":[0],"trial_type":"survey-likert","trial_index":20,"time_elapsed":1124554,"internal_node_id":"0.0-5.0-15.0"},{"rt":59439.32500004303,"responses":"{\"pregunta27\":\"b) Nuestra economía vivirá un proceso de ajuste a la nueva realidad. \"}","question_order":"[0]","trial_type":"survey-multi-choice","trial_index":21,"time_elapsed":1183994,"internal_node_id":"0.0-5.0-16.0"},{"rt":2094.0450000343844,"response":{"pregunta27 likert":1},"question_order":[0],"trial_type":"survey-likert","trial_index":22,"time_elapsed":1186090,"internal_node_id":"0.0-5.0-17.0"},{"rt":81684.15999994613,"responses":"{\"pregunta26\":\"c) el sujeto sufre con su modo de vida. \"}","question_order":"[0]","trial_type":"survey-multi-choice","trial_index":23,"time_elapsed":1267777,"internal_node_id":"0.0-5.0-18.0"},{"rt":2336.6749999695458,"response":{"pregunta26 likert":1},"question_order":[0],"trial_type":"survey-likert","trial_index":24,"time_elapsed":1270116,"internal_node_id":"0.0-5.0-19.0"},{"rt":20299.854999990202,"responses":"{\"pregunta30\":\"b) para el mexicano, la muerte es cotidiana. \"}","question_order":"[0]","trial_type":"survey-multi-choice","trial_index":25,"time_elapsed":1290422,"internal_node_id":"0.0-5.0-20.0"},{"rt":6724.515000008978,"response":{"pregunta30 likert":2},"question_order":[0],"trial_type":"survey-likert","trial_index":26,"time_elapsed":1297156,"internal_node_id":"0.0-5.0-21.0"},{"rt":46818.39000002947,"responses":"{\"pregunta28\":\"c) Se necesita un marco legal para delimitar lo público y lo privado en materia informativa. \"}","question_order":"[0]","trial_type":"survey-multi-choice","trial_index":27,"time_elapsed":1343976,"internal_node_id":"0.0-5.0-22.0"},{"rt":2978.4399999771267,"response":{"pregunta28 likert":2},"question_order":[0],"trial_type":"survey-likert","trial_index":28,"time_elapsed":1346956,"internal_node_id":"0.0-5.0-23.0"},{"rt":74568.12000001082,"responses":"{\"pregunta24\":\"c) El receptor es habitualmente pasivo frente a la publicidad. \"}","question_order":"[0]","trial_type":"survey-multi-choice","trial_index":29,"time_elapsed":1421526,"internal_node_id":"0.0-5.0-24.0"},{"rt":2474.8099999851547,"response":{"pregunta24 likert":0},"question_order":[0],"trial_type":"survey-likert","trial_index":30,"time_elapsed":1424004,"internal_node_id":"0.0-5.0-25.0"},{"rt":39728.98999997415,"responses":"{\"pregunta13\":\"a) El ser humano se comporta de acuerdo con las circunstancias. \"}","question_order":"[0]","trial_type":"survey-multi-choice","trial_index":31,"time_elapsed":1463735,"internal_node_id":"0.0-5.0-26.0"},{"rt":2109.314999950584,"response":{"pregunta13 likert":1},"question_order":[0],"trial_type":"survey-likert","trial_index":32,"time_elapsed":1465846,"internal_node_id":"0.0-5.0-27.0"},{"rt":56507.45499995537,"responses":"{\"pregunta29\":\"a) el jardinero estará muerto al día siguiente. \"}","question_order":"[0]","trial_type":"survey-multi-choice","trial_index":33,"time_elapsed":1522356,"internal_node_id":"0.0-5.0-28.0"},{"rt":3984.874999965541,"response":{"pregunta29 likert":1},"question_order":[0],"trial_type":"survey-likert","trial_index":34,"time_elapsed":1526343,"internal_node_id":"0.0-5.0-29.0"},{"rt":33492.58499999996,"responses":"{\"pregunta3\":\"a) El inicio de la dinastía Chang. \"}","question_order":"[0]","trial_type":"survey-multi-choice","trial_index":35,"time_elapsed":1559837,"internal_node_id":"0.0-5.0-30.0"},{"rt":2211.5950000006706,"response":{"pregunta3 likert":2},"question_order":[0],"trial_type":"survey-likert","trial_index":36,"time_elapsed":1562050,"internal_node_id":"0.0-5.0-31.0"},{"rt":57534.39500002423,"responses":"{\"pregunta25\":\"a) llevan un control grupal de su embarazo. \"}","question_order":"[0]","trial_type":"survey-multi-choice","trial_index":37,"time_elapsed":1619586,"internal_node_id":"0.0-5.0-32.0"},{"rt":1980.4149999981746,"response":{"pregunta25 likert":1},"question_order":[0],"trial_type":"survey-likert","trial_index":38,"time_elapsed":1621568,"internal_node_id":"0.0-5.0-33.0"},{"rt":43953.86499998858,"responses":"{\"pregunta5\":\"a) Los momentos triviales de los viajes, en la escritura se vuelven significativos. \"}","question_order":"[0]","trial_type":"survey-multi-choice","trial_index":39,"time_elapsed":1665524,"internal_node_id":"0.0-5.0-34.0"},{"rt":3261.5599999553524,"response":{"pregunta5 likert":2},"question_order":[0],"trial_type":"survey-likert","trial_index":40,"time_elapsed":1668786,"internal_node_id":"0.0-5.0-35.0"},{"rt":68898.38999998756,"responses":"{\"pregunta6\":\"b) La aparición del Diccionario Académico ha sido polémica. \"}","question_order":"[0]","trial_type":"survey-multi-choice","trial_index":41,"time_elapsed":1737685,"internal_node_id":"0.0-5.0-36.0"},{"rt":1872.5000000558794,"response":{"pregunta6 likert":1},"question_order":[0],"trial_type":"survey-likert","trial_index":42,"time_elapsed":1739560,"internal_node_id":"0.0-5.0-37.0"},{"rt":29183.30999999307,"responses":"{\"pregunta2\":\"a) A la relación entre sociedad y constitución social. \"}","question_order":"[0]","trial_type":"survey-multi-choice","trial_index":43,"time_elapsed":1768745,"internal_node_id":"0.0-5.0-38.0"},{"rt":2796.474999981001,"response":{"pregunta2 likert":2},"question_order":[0],"trial_type":"survey-likert","trial_index":44,"time_elapsed":1771543,"internal_node_id":"0.0-5.0-39.0"},{"rt":33075.78499999363,"responses":"{\"pregunta22\":\"c) Bomberos debería tener acceso a un seguro médico, al que pueda recurrir en caso de accidente. \"}","question_order":"[0]","trial_type":"survey-multi-choice","trial_index":45,"time_elapsed":1804620,"internal_node_id":"0.0-5.0-40.0"},{"rt":2625.1399999600835,"response":{"pregunta22 likert":2},"question_order":[0],"trial_type":"survey-likert","trial_index":46,"time_elapsed":1807247,"internal_node_id":"0.0-5.0-41.0"},{"rt":55670.40999996243,"responses":"{\"pregunta11\":\"c) Orientar la opción estética de un grupo de personas en lo que se refiere a la decoración de interiores. \"}","question_order":"[0]","trial_type":"survey-multi-choice","trial_index":47,"time_elapsed":1862920,"internal_node_id":"0.0-5.0-42.0"},{"rt":2892.0499999658205,"response":{"pregunta11 likert":2},"question_order":[0],"trial_type":"survey-likert","trial_index":48,"time_elapsed":1865814,"internal_node_id":"0.0-5.0-43.0"},{"rt":48751.87499995809,"responses":"{\"pregunta19\":\"a) Las personas que leen son más flexibles en sus ideas y autónomas en su accionar. \"}","question_order":"[0]","trial_type":"survey-multi-choice","trial_index":49,"time_elapsed":1914567,"internal_node_id":"0.0-5.0-44.0"},{"rt":2883.0200000084005,"response":{"pregunta19 likert":3},"question_order":[0],"trial_type":"survey-likert","trial_index":50,"time_elapsed":1917452,"internal_node_id":"0.0-5.0-45.0"},{"rt":29663.77000004286,"responses":"{\"pregunta18\":\"a) A la inutilidad de tanto esfuerzo si el objetivo es el reposo. \"}","question_order":"[0]","trial_type":"survey-multi-choice","trial_index":51,"time_elapsed":1947117,"internal_node_id":"0.0-5.0-46.0"},{"rt":2493.3799999998882,"response":{"pregunta18 likert":2},"question_order":[0],"trial_type":"survey-likert","trial_index":52,"time_elapsed":1949612,"internal_node_id":"0.0-5.0-47.0"},{"rt":32061.05999997817,"responses":"{\"pregunta8\":\"c) Comparar a Cervantes con Quevedo. \"}","question_order":"[0]","trial_type":"survey-multi-choice","trial_index":53,"time_elapsed":1981675,"internal_node_id":"0.0-5.0-48.0"},{"rt":2655.989999999292,"response":{"pregunta8 likert":2},"question_order":[0],"trial_type":"survey-likert","trial_index":54,"time_elapsed":1984333,"internal_node_id":"0.0-5.0-49.0"},{"rt":101060.58499997016,"responses":"{\"pregunta1\":\"c) Aportan informaciones con las que se reconstruye el personaje dentro de un relato. \"}","question_order":"[0]","trial_type":"survey-multi-choice","trial_index":55,"time_elapsed":2085395,"internal_node_id":"0.0-5.0-50.0"},{"rt":2607.815000053961,"response":{"pregunta1 likert":1},"question_order":[0],"trial_type":"survey-likert","trial_index":56,"time_elapsed":2088005,"internal_node_id":"0.0-5.0-51.0"},{"rt":66678.0049999943,"responses":"{\"pregunta14\":\"c) un recuerdo nostálgico. \"}","question_order":"[0]","trial_type":"survey-multi-choice","trial_index":57,"time_elapsed":2154684,"internal_node_id":"0.0-5.0-52.0"},{"rt":2157.0499999797903,"response":{"pregunta14 likert":2},"question_order":[0],"trial_type":"survey-likert","trial_index":58,"time_elapsed":2156843,"internal_node_id":"0.0-5.0-53.0"},{"rt":76795.35999998916,"responses":"{\"pregunta20\":\"b) sólo las leyes bastan para gobernarse. \"}","question_order":"[0]","trial_type":"survey-multi-choice","trial_index":59,"time_elapsed":2233640,"internal_node_id":"0.0-5.0-54.0"},{"rt":6069.514999981038,"response":{"pregunta20 likert":0},"question_order":[0],"trial_type":"survey-likert","trial_index":60,"time_elapsed":2239711,"internal_node_id":"0.0-5.0-55.0"},{"rt":45490.44500000309,"responses":"{\"pregunta23\":\"a) A la influencia de grupos que rechazaban su música. \"}","question_order":"[0]","trial_type":"survey-multi-choice","trial_index":61,"time_elapsed":2285204,"internal_node_id":"0.0-5.0-56.0"},{"rt":4558.949999976903,"response":{"pregunta23 likert":2},"question_order":[0],"trial_type":"survey-likert","trial_index":62,"time_elapsed":2289765,"internal_node_id":"0.0-5.0-57.0"},{"rt":42998.345000029076,"responses":"{\"pregunta9\":\"b) pueden rendir exámenes para optar y obtener títulos profesionales igual que los hombres. \"}","question_order":"[0]","trial_type":"survey-multi-choice","trial_index":63,"time_elapsed":2332765,"internal_node_id":"0.0-5.0-58.0"},{"rt":2000.1650000340305,"response":{"pregunta9 likert":2},"question_order":[0],"trial_type":"survey-likert","trial_index":64,"time_elapsed":2334766,"internal_node_id":"0.0-5.0-59.0"}]