[{"rt":458318.54499998735,"stimulus":"<h1 style=\"color:red; margin-top: 3%;\">¡Bienvenido(a)!</h1><p style=\"text-align:left; justify-content:space-between; margin-right: 5%; margin-left: 5%; margin-top: 5%\"> Antes de empezar el estudio, necesitamos que nos confirmes que estás de acuerdo con participar. Recuerda que tu participación es 100% voluntaria y que lo único que te pedimos es responder lo mejor que puedas. Recuerda también que el estudio incluye:</p><ol style=\"text-align:left; justify-content:space-between; margin-right: 5%; margin-left: 5%;\"><li> un ejercicio de resolución de preguntas de selección múltiple (30’),</li><li>un cuestionario breve (5’),</li><li>un juego muy breve (3’),</li></ol><p style=\"text-align:left; justify-content:space-between; margin-right: 5%; margin-left: 5%;\">Si quieres participar, haz clic en “Acepto” luego de leer lo siguiente:<br></p><p style=\"text-align:left; justify-content:space-between; margin-right: 5%; margin-left: 5%;\">Acepto participar en el estudio “Estrategias de lectura y resolución de preguntas de selección múltiple”, en los términos aquí señalados:<br></p><p style=\"text-align:left; justify-content:space-between; margin-right: 5%; margin-left: 5%;\"><a href=\"http://ciae.uchile.cl/download.php?file=noticias/Asentimiento.pdf\" target=\"_blank\">Link a la hoja de información del Consentimiento.</a></p><p style=\"text-align:left; justify-content:space-between; margin-right: 5%; margin-left: 5%;\">Declaro que he leído (o se me ha leído) y (he) comprendido, las condiciones de mi participación en este estudio. He tenido la oportunidad de hacer preguntas y éstas han sido respondidas. No tengo dudas al respecto.</p>","response":0,"condicion_MCQ":1,"condicion_INTER":13,"numero_participante":13,"numero_version":1,"dimx":1366,"dimy":768,"color_profundidad":24,"pixel_profundidad":24,"Browser":"Google Chrome","trial_type":"html-button-response","trial_index":0,"time_elapsed":458322,"internal_node_id":"0.0-0.0"},{"success":true,"trial_type":"fullscreen","trial_index":1,"time_elapsed":468315,"internal_node_id":"0.0-1.0"},{"rt":241998.8500000036,"responses":"{\"Nombres\":\"Emilia Antonia\",\"Apellidos\":\"Letelier Muñoz\",\"Edad\":\"18\",\"Sexo\":\"mujer\",\"Curso\":\"1er semestre\",\"Colegio\":\"universidad andres bello\",\"Contacto\":\"emiletelier@gmail.com\"}","trial_type":"survey-text","trial_index":2,"time_elapsed":710346,"internal_node_id":"0.0-2.0"},{"success":true,"timeout":false,"failed_images":[],"failed_audio":[],"failed_video":[],"trial_type":"preload","trial_index":3,"time_elapsed":710987,"internal_node_id":"0.0-3.0"},{"rt":17675.974999991013,"stimulus":"<h1 style:\"margin-top: 5%;\">Ejercicios de Comprensión de Lectura de la Universidad de Chile</h1><p style=\"font-size: 120%;\">En esta actividad, debes responder 30 preguntas de selección múltiple. Cada pregunta presenta 3 respuestas alternativas, pero sólo una de ellas es correcta. Por lo tanto, debes escoger una sola alternativa para cada pregunta. Además, debes reportar qué tan seguro(a) estás de la respuesta que das, con un:</p><ol style=\"font-size: 120%;text-align:left;margin-left: 40%;\"><li>No estoy seguro(a) para nada</li><li>No estoy muy seguro(a)</li><li>Estoy bastante seguro(a)</li><li>Estoy totalmente seguro(a)</li></ol><p style=\"font-size: 120%;\">Por favor lee bien los enunciados antes de responder. ¡Éxito!</p>","response":0,"trial_type":"html-button-response","trial_index":4,"time_elapsed":728665,"internal_node_id":"0.0-4.0"},{"rt":95941.99000002118,"responses":"{\"pregunta2\":\"a) A la relación entre pensamiento y estructura social. \"}","question_order":"[0]","trial_type":"survey-multi-choice","trial_index":5,"time_elapsed":824609,"internal_node_id":"0.0-5.0-0.0"},{"rt":7734.8000000056345,"response":{"pregunta2 likert":2},"question_order":[0],"trial_type":"survey-likert","trial_index":6,"time_elapsed":832353,"internal_node_id":"0.0-5.0-1.0"},{"rt":81030.45000002021,"responses":"{\"pregunta25\":\"b) sufren dolores de espalda. \"}","question_order":"[0]","trial_type":"survey-multi-choice","trial_index":7,"time_elapsed":913392,"internal_node_id":"0.0-5.0-2.0"},{"rt":2304.4299999892246,"response":{"pregunta25 likert":2},"question_order":[0],"trial_type":"survey-likert","trial_index":8,"time_elapsed":915704,"internal_node_id":"0.0-5.0-3.0"},{"rt":89161.7199999746,"responses":"{\"pregunta13\":\"c) El ser humano se comporta de acuerdo con las circunstancias. \"}","question_order":"[0]","trial_type":"survey-multi-choice","trial_index":9,"time_elapsed":1004873,"internal_node_id":"0.0-5.0-4.0"},{"rt":3329.6250000130385,"response":{"pregunta13 likert":3},"question_order":[0],"trial_type":"survey-likert","trial_index":10,"time_elapsed":1008208,"internal_node_id":"0.0-5.0-5.0"},{"rt":52168.36999999941,"responses":"{\"pregunta23\":\"c) A la influencia de grupos que rechazaban su música. \"}","question_order":"[0]","trial_type":"survey-multi-choice","trial_index":11,"time_elapsed":1060384,"internal_node_id":"0.0-5.0-6.0"},{"rt":4325.049999984913,"response":{"pregunta23 likert":3},"question_order":[0],"trial_type":"survey-likert","trial_index":12,"time_elapsed":1064720,"internal_node_id":"0.0-5.0-7.0"},{"rt":595694.4099999964,"responses":"{\"pregunta17\":\"a) Atraer a los turistas. \"}","question_order":"[0]","trial_type":"survey-multi-choice","trial_index":13,"time_elapsed":1658608,"internal_node_id":"0.0-5.0-8.0"},{"rt":3641.1150000058115,"response":{"pregunta17 likert":3},"question_order":[0],"trial_type":"survey-likert","trial_index":14,"time_elapsed":1662256,"internal_node_id":"0.0-5.0-9.0"},{"rt":105496.30500000785,"responses":"{\"pregunta12\":\"b) se da como existente, y sólo se discute su relación con el cuerpo. \"}","question_order":"[0]","trial_type":"survey-multi-choice","trial_index":15,"time_elapsed":1767760,"internal_node_id":"0.0-5.0-10.0"},{"rt":2840.904999990016,"response":{"pregunta12 likert":3},"question_order":[0],"trial_type":"survey-likert","trial_index":16,"time_elapsed":1770608,"internal_node_id":"0.0-5.0-11.0"},{"rt":79010.47499998822,"responses":"{\"pregunta28\":\"b) Se necesita un marco legal para delimitar lo público y lo privado en materia informativa. \"}","question_order":"[0]","trial_type":"survey-multi-choice","trial_index":17,"time_elapsed":1849624,"internal_node_id":"0.0-5.0-12.0"},{"rt":2976.6550000058487,"response":{"pregunta28 likert":2},"question_order":[0],"trial_type":"survey-likert","trial_index":18,"time_elapsed":1852608,"internal_node_id":"0.0-5.0-13.0"},{"rt":228881.64000000688,"responses":"{\"pregunta26\":\"a) para Aristóteles la virtud estaba en el justo equilibrio. \"}","question_order":"[0]","trial_type":"survey-multi-choice","trial_index":19,"time_elapsed":2081496,"internal_node_id":"0.0-5.0-14.0"},{"rt":3585.419999988517,"response":{"pregunta26 likert":2},"question_order":[0],"trial_type":"survey-likert","trial_index":20,"time_elapsed":2085088,"internal_node_id":"0.0-5.0-15.0"},{"rt":199712.94500000658,"responses":"{\"pregunta6\":\"a) La aparición del Diccionario Académico ha sido polémica. \"}","question_order":"[0]","trial_type":"survey-multi-choice","trial_index":21,"time_elapsed":2284808,"internal_node_id":"0.0-5.0-16.0"},{"rt":3409.7400000030175,"response":{"pregunta6 likert":1},"question_order":[0],"trial_type":"survey-likert","trial_index":22,"time_elapsed":2288224,"internal_node_id":"0.0-5.0-17.0"},{"rt":98472.89500001352,"responses":"{\"pregunta7\":\"b) La imprenta y el papel han permitido el desarrollo de la civilización y la conservación de su cultura, y ambos son inventos chinos. \"}","question_order":"[0]","trial_type":"survey-multi-choice","trial_index":23,"time_elapsed":2386703,"internal_node_id":"0.0-5.0-18.0"},{"rt":2743.1700000013225,"response":{"pregunta7 likert":2},"question_order":[0],"trial_type":"survey-likert","trial_index":24,"time_elapsed":2389456,"internal_node_id":"0.0-5.0-19.0"},{"rt":67799.1699999841,"responses":"{\"pregunta29\":\"c) el jardinero estará muerto al día siguiente. \"}","question_order":"[0]","trial_type":"survey-multi-choice","trial_index":25,"time_elapsed":2457263,"internal_node_id":"0.0-5.0-20.0"},{"rt":3184.60999999661,"response":{"pregunta29 likert":3},"question_order":[0],"trial_type":"survey-likert","trial_index":26,"time_elapsed":2460455,"internal_node_id":"0.0-5.0-21.0"},{"rt":68329.67999999551,"responses":"{\"pregunta24\":\"b) El receptor es habitualmente pasivo frente a la publicidad. \"}","question_order":"[0]","trial_type":"survey-multi-choice","trial_index":27,"time_elapsed":2528792,"internal_node_id":"0.0-5.0-22.0"},{"rt":2128.965000010561,"response":{"pregunta24 likert":3},"question_order":[0],"trial_type":"survey-likert","trial_index":28,"time_elapsed":2530928,"internal_node_id":"0.0-5.0-23.0"},{"rt":85658.10999998916,"responses":"{\"pregunta9\":\"a) pueden rendir exámenes para optar y obtener títulos profesionales igual que los hombres. \"}","question_order":"[0]","trial_type":"survey-multi-choice","trial_index":29,"time_elapsed":2616591,"internal_node_id":"0.0-5.0-24.0"},{"rt":2431.769999995362,"response":{"pregunta9 likert":3},"question_order":[0],"trial_type":"survey-likert","trial_index":30,"time_elapsed":2619031,"internal_node_id":"0.0-5.0-25.0"},{"rt":77727.91499999538,"responses":"{\"pregunta15\":\"a) ritualistas y obsesivos. \"}","question_order":"[0]","trial_type":"survey-multi-choice","trial_index":31,"time_elapsed":2696767,"internal_node_id":"0.0-5.0-26.0"},{"rt":3329.5550000034273,"response":{"pregunta15 likert":3},"question_order":[0],"trial_type":"survey-likert","trial_index":32,"time_elapsed":2700103,"internal_node_id":"0.0-5.0-27.0"},{"rt":103904.64500000235,"responses":"{\"pregunta21\":\"a) el uranio es el elemento natural con el mayor número de protones en el núcleo. \"}","question_order":"[0]","trial_type":"survey-multi-choice","trial_index":33,"time_elapsed":2804015,"internal_node_id":"0.0-5.0-28.0"},{"rt":3785.675000021234,"response":{"pregunta21 likert":2},"question_order":[0],"trial_type":"survey-likert","trial_index":34,"time_elapsed":2807807,"internal_node_id":"0.0-5.0-29.0"},{"rt":78905.449999962,"responses":"{\"pregunta5\":\"c) Los momentos triviales de los viajes, en la escritura se vuelven significativos. \"}","question_order":"[0]","trial_type":"survey-multi-choice","trial_index":35,"time_elapsed":2886719,"internal_node_id":"0.0-5.0-30.0"},{"rt":1753.1350000062957,"response":{"pregunta5 likert":3},"question_order":[0],"trial_type":"survey-likert","trial_index":36,"time_elapsed":2888478,"internal_node_id":"0.0-5.0-31.0"},{"rt":135394.73499997985,"responses":"{\"pregunta10\":\"b) La biónica puede asegurar nuestra existencia mediante la aplicación de técnicas copiadas de la naturaleza. \"}","question_order":"[0]","trial_type":"survey-multi-choice","trial_index":37,"time_elapsed":3023879,"internal_node_id":"0.0-5.0-32.0"},{"rt":2847.9500000248663,"response":{"pregunta10 likert":3},"question_order":[0],"trial_type":"survey-likert","trial_index":38,"time_elapsed":3026735,"internal_node_id":"0.0-5.0-33.0"},{"rt":162514.04000003822,"responses":"{\"pregunta11\":\"c) Presentar positivamente las diversas tendencias del diseño de interiores a través de un comentario. \"}","question_order":"[0]","trial_type":"survey-multi-choice","trial_index":39,"time_elapsed":3189255,"internal_node_id":"0.0-5.0-34.0"},{"rt":1992.110000050161,"response":{"pregunta11 likert":3},"question_order":[0],"trial_type":"survey-likert","trial_index":40,"time_elapsed":3191255,"internal_node_id":"0.0-5.0-35.0"},{"rt":18009.930000000168,"responses":"{\"pregunta22\":\"c) Por el riesgo que corren diariamente, los bomberos deberían tener mejores condiciones de seguridad. \"}","question_order":"[0]","trial_type":"survey-multi-choice","trial_index":41,"time_elapsed":3209270,"internal_node_id":"0.0-5.0-36.0"},{"rt":2007.2049999726005,"response":{"pregunta22 likert":3},"question_order":[0],"trial_type":"survey-likert","trial_index":42,"time_elapsed":3211286,"internal_node_id":"0.0-5.0-37.0"},{"rt":28929.614999971818,"responses":"{\"pregunta8\":\"c) Dar a conocer al ganador del premio Cervantes. \"}","question_order":"[0]","trial_type":"survey-multi-choice","trial_index":43,"time_elapsed":3240223,"internal_node_id":"0.0-5.0-38.0"},{"rt":2392.684999969788,"response":{"pregunta8 likert":3},"question_order":[0],"trial_type":"survey-likert","trial_index":44,"time_elapsed":3242623,"internal_node_id":"0.0-5.0-39.0"},{"rt":19974.53000000678,"responses":"{\"pregunta30\":\"b) la muerte es distinta en las grandes ciudades. \"}","question_order":"[0]","trial_type":"survey-multi-choice","trial_index":45,"time_elapsed":3262606,"internal_node_id":"0.0-5.0-40.0"},{"rt":2377.639999962412,"response":{"pregunta30 likert":3},"question_order":[0],"trial_type":"survey-likert","trial_index":46,"time_elapsed":3264991,"internal_node_id":"0.0-5.0-41.0"},{"rt":199153.00500002922,"responses":"{\"pregunta1\":\"b) Aportan informaciones con las que se reconstruye el personaje dentro de un relato. \"}","question_order":"[0]","trial_type":"survey-multi-choice","trial_index":47,"time_elapsed":3464150,"internal_node_id":"0.0-5.0-42.0"},{"rt":2111.9850000250153,"response":{"pregunta1 likert":3},"question_order":[0],"trial_type":"survey-likert","trial_index":48,"time_elapsed":3466270,"internal_node_id":"0.0-5.0-43.0"},{"rt":121855.95499997726,"responses":"{\"pregunta18\":\"a) Al premio merecido después de tantos esfuerzos. \"}","question_order":"[0]","trial_type":"survey-multi-choice","trial_index":49,"time_elapsed":3588135,"internal_node_id":"0.0-5.0-44.0"},{"rt":1521.0199999855831,"response":{"pregunta18 likert":3},"question_order":[0],"trial_type":"survey-likert","trial_index":50,"time_elapsed":3589662,"internal_node_id":"0.0-5.0-45.0"},{"rt":251777.0850000088,"responses":"{\"pregunta16\":\"c) Provocar el deseo de la adquisición vertiginosa. \"}","question_order":"[0]","trial_type":"survey-multi-choice","trial_index":51,"time_elapsed":3841446,"internal_node_id":"0.0-5.0-46.0"},{"rt":2033.4600000060163,"response":{"pregunta16 likert":3},"question_order":[0],"trial_type":"survey-likert","trial_index":52,"time_elapsed":3843487,"internal_node_id":"0.0-5.0-47.0"},{"rt":23544.355000020005,"responses":"{\"pregunta19\":\"c) Las personas que leen son más flexibles en sus ideas y autónomas en su accionar. \"}","question_order":"[0]","trial_type":"survey-multi-choice","trial_index":53,"time_elapsed":3867038,"internal_node_id":"0.0-5.0-48.0"},{"rt":3321.2150000035763,"response":{"pregunta19 likert":3},"question_order":[0],"trial_type":"survey-likert","trial_index":54,"time_elapsed":3870366,"internal_node_id":"0.0-5.0-49.0"},{"rt":325113.55999996886,"responses":"{\"pregunta3\":\"b) El inicio de la civilización china. \"}","question_order":"[0]","trial_type":"survey-multi-choice","trial_index":55,"time_elapsed":4195485,"internal_node_id":"0.0-5.0-50.0"},{"rt":2041.245000029914,"response":{"pregunta3 likert":3},"question_order":[0],"trial_type":"survey-likert","trial_index":56,"time_elapsed":4197533,"internal_node_id":"0.0-5.0-51.0"},{"rt":48568.945000005886,"responses":"{\"pregunta20\":\"c) el mejor emperador es el que está muerto. \"}","question_order":"[0]","trial_type":"survey-multi-choice","trial_index":57,"time_elapsed":4246109,"internal_node_id":"0.0-5.0-52.0"},{"rt":2432.425000006333,"response":{"pregunta20 likert":3},"question_order":[0],"trial_type":"survey-likert","trial_index":58,"time_elapsed":4248550,"internal_node_id":"0.0-5.0-53.0"},{"rt":29024.124999996275,"responses":"{\"pregunta27\":\"a) Nuestra economía vivirá un proceso de ajuste a la nueva realidad. \"}","question_order":"[0]","trial_type":"survey-multi-choice","trial_index":59,"time_elapsed":4277582,"internal_node_id":"0.0-5.0-54.0"},{"rt":1936.184999998659,"response":{"pregunta27 likert":3},"question_order":[0],"trial_type":"survey-likert","trial_index":60,"time_elapsed":4279526,"internal_node_id":"0.0-5.0-55.0"},{"rt":150985.53499998525,"responses":"{\"pregunta14\":\"c) la persistencia de la melancolía y la desesperanza. \"}","question_order":"[0]","trial_type":"survey-multi-choice","trial_index":61,"time_elapsed":4430518,"internal_node_id":"0.0-5.0-56.0"},{"rt":2288.010000018403,"response":{"pregunta14 likert":2},"question_order":[0],"trial_type":"survey-likert","trial_index":62,"time_elapsed":4432814,"internal_node_id":"0.0-5.0-57.0"},{"rt":107280.56500002276,"responses":"{\"pregunta4\":\"a) En la literatura como en la vida, todo es metáfora. \"}","question_order":"[0]","trial_type":"survey-multi-choice","trial_index":63,"time_elapsed":4540101,"internal_node_id":"0.0-5.0-58.0"},{"rt":1423.5899999616668,"response":{"pregunta4 likert":3},"question_order":[0],"trial_type":"survey-likert","trial_index":64,"time_elapsed":4541533,"internal_node_id":"0.0-5.0-59.0"}]