[{"rt":11909.310000017285,"stimulus":"<h1 style=\"color:red; margin-top: 3%;\">¡Bienvenido(a)!</h1><p style=\"text-align:left; justify-content:space-between; margin-right: 5%; margin-left: 5%; margin-top: 5%\"> Antes de empezar el estudio, necesitamos que nos confirmes que estás de acuerdo con participar. Recuerda que tu participación es 100% voluntaria y que lo único que te pedimos es responder lo mejor que puedas. Recuerda también que el estudio incluye:</p><ol style=\"text-align:left; justify-content:space-between; margin-right: 5%; margin-left: 5%;\"><li> un ejercicio de resolución de preguntas de selección múltiple (30’),</li><li>un cuestionario breve (5’),</li><li>un juego muy breve (3’),</li></ol><p style=\"text-align:left; justify-content:space-between; margin-right: 5%; margin-left: 5%;\">Si quieres participar, haz clic en “Acepto” luego de leer lo siguiente:<br></p><p style=\"text-align:left; justify-content:space-between; margin-right: 5%; margin-left: 5%;\">Acepto participar en el estudio “Estrategias de lectura y resolución de preguntas de selección múltiple”, en los términos aquí señalados:<br></p><p style=\"text-align:left; justify-content:space-between; margin-right: 5%; margin-left: 5%;\"><a href=\"http://ciae.uchile.cl/download.php?file=noticias/Asentimiento.pdf\" target=\"_blank\">Link a la hoja de información del Consentimiento.</a></p><p style=\"text-align:left; justify-content:space-between; margin-right: 5%; margin-left: 5%;\">Declaro que he leído (o se me ha leído) y (he) comprendido, las condiciones de mi participación en este estudio. He tenido la oportunidad de hacer preguntas y éstas han sido respondidas. No tengo dudas al respecto.</p>","response":0,"condicion_MCQ":6,"condicion_INTER":12,"numero_participante":12,"numero_version":1,"dimx":1366,"dimy":768,"color_profundidad":24,"pixel_profundidad":24,"Browser":"Google Chrome","trial_type":"html-button-response","trial_index":0,"time_elapsed":11914,"internal_node_id":"0.0-0.0"},{"success":true,"trial_type":"fullscreen","trial_index":1,"time_elapsed":17090,"internal_node_id":"0.0-1.0"},{"rt":91216.16499999072,"responses":"{\"Nombres\":\"Zuelly Gisela \",\"Apellidos\":\"Martinez Morales \",\"Edad\":\"20\",\"Sexo\":\"mujer \",\"Curso\":\"egresada \",\"Colegio\":\"universidad Andres Bello\",\"Contacto\":\"zuellygisela@gmail.com\"}","trial_type":"survey-text","trial_index":2,"time_elapsed":108427,"internal_node_id":"0.0-2.0"},{"success":true,"timeout":false,"failed_images":[],"failed_audio":[],"failed_video":[],"trial_type":"preload","trial_index":3,"time_elapsed":109603,"internal_node_id":"0.0-3.0"},{"rt":15279.889999888837,"stimulus":"<h1 style:\"margin-top: 5%;\">Ejercicios de Comprensión de Lectura de la Universidad de Chile</h1><p style=\"font-size: 120%;\">En esta actividad, debes responder 30 preguntas de selección múltiple. Cada pregunta presenta 3 respuestas alternativas, pero sólo una de ellas es correcta. Por lo tanto, debes escoger una sola alternativa para cada pregunta. Además, debes reportar qué tan seguro(a) estás de la respuesta que das, con un:</p><ol style=\"font-size: 120%;text-align:left;margin-left: 40%;\"><li>No estoy seguro(a) para nada</li><li>No estoy muy seguro(a)</li><li>Estoy bastante seguro(a)</li><li>Estoy totalmente seguro(a)</li></ol><p style=\"font-size: 120%;\">Por favor lee bien los enunciados antes de responder. ¡Éxito!</p>","response":0,"trial_type":"html-button-response","trial_index":4,"time_elapsed":124884,"internal_node_id":"0.0-4.0"},{"rt":81648.52499996778,"responses":"{\"pregunta18\":\"a) A la inutilidad de tanto esfuerzo si el objetivo es el reposo. \"}","question_order":"[0]","trial_type":"survey-multi-choice","trial_index":5,"time_elapsed":206535,"internal_node_id":"0.0-5.0-0.0"},{"rt":5543.120000045747,"response":{"pregunta18 likert":2},"question_order":[0],"trial_type":"survey-likert","trial_index":6,"time_elapsed":212080,"internal_node_id":"0.0-5.0-1.0"},{"rt":80458.95000000019,"responses":"{\"pregunta27\":\"c) Nuestra economía vivirá un proceso de ajuste a la nueva realidad. \"}","question_order":"[0]","trial_type":"survey-multi-choice","trial_index":7,"time_elapsed":292541,"internal_node_id":"0.0-5.0-2.0"},{"rt":4058.9400000171736,"response":{"pregunta27 likert":2},"question_order":[0],"trial_type":"survey-likert","trial_index":8,"time_elapsed":296601,"internal_node_id":"0.0-5.0-3.0"},{"rt":112119.42499992438,"responses":"{\"pregunta9\":\"b) deben ser capaces de mantenerse económicamente de la misma forma que los hombres. \"}","question_order":"[0]","trial_type":"survey-multi-choice","trial_index":9,"time_elapsed":408723,"internal_node_id":"0.0-5.0-4.0"},{"rt":4555.900000035763,"response":{"pregunta9 likert":2},"question_order":[0],"trial_type":"survey-likert","trial_index":10,"time_elapsed":413281,"internal_node_id":"0.0-5.0-5.0"},{"rt":25982.289999956265,"responses":"{\"pregunta30\":\"b) la muerte es distinta en las grandes ciudades. \"}","question_order":"[0]","trial_type":"survey-multi-choice","trial_index":11,"time_elapsed":439266,"internal_node_id":"0.0-5.0-6.0"},{"rt":2637.2550000669435,"response":{"pregunta30 likert":3},"question_order":[0],"trial_type":"survey-likert","trial_index":12,"time_elapsed":441905,"internal_node_id":"0.0-5.0-7.0"},{"rt":46412.80499997083,"responses":"{\"pregunta8\":\"b) Dar a conocer al ganador del premio Cervantes. \"}","question_order":"[0]","trial_type":"survey-multi-choice","trial_index":13,"time_elapsed":488319,"internal_node_id":"0.0-5.0-8.0"},{"rt":2082.5699999695644,"response":{"pregunta8 likert":2},"question_order":[0],"trial_type":"survey-likert","trial_index":14,"time_elapsed":490403,"internal_node_id":"0.0-5.0-9.0"},{"rt":214302.39999992773,"responses":"{\"pregunta17\":\"a) Homenajear a quienes murieron. \"}","question_order":"[0]","trial_type":"survey-multi-choice","trial_index":15,"time_elapsed":704708,"internal_node_id":"0.0-5.0-10.0"},{"rt":2867.6950000226498,"response":{"pregunta17 likert":2},"question_order":[0],"trial_type":"survey-likert","trial_index":16,"time_elapsed":707578,"internal_node_id":"0.0-5.0-11.0"},{"rt":61494.72999991849,"responses":"{\"pregunta11\":\"c) Promover la asistencia a un evento específico de decoración a través de una atractiva descripción. \"}","question_order":"[0]","trial_type":"survey-multi-choice","trial_index":17,"time_elapsed":769074,"internal_node_id":"0.0-5.0-12.0"},{"rt":3551.895000040531,"response":{"pregunta11 likert":3},"question_order":[0],"trial_type":"survey-likert","trial_index":18,"time_elapsed":772628,"internal_node_id":"0.0-5.0-13.0"},{"rt":55741.284999996424,"responses":"{\"pregunta15\":\"c) ritualistas y obsesivos. \"}","question_order":"[0]","trial_type":"survey-multi-choice","trial_index":19,"time_elapsed":828371,"internal_node_id":"0.0-5.0-14.0"},{"rt":2063.069999916479,"response":{"pregunta15 likert":2},"question_order":[0],"trial_type":"survey-likert","trial_index":20,"time_elapsed":830435,"internal_node_id":"0.0-5.0-15.0"},{"rt":35826.2949999189,"responses":"{\"pregunta2\":\"a) A la relación entre sociedad y constitución social. \"}","question_order":"[0]","trial_type":"survey-multi-choice","trial_index":21,"time_elapsed":866263,"internal_node_id":"0.0-5.0-16.0"},{"rt":2541.3100000005215,"response":{"pregunta2 likert":3},"question_order":[0],"trial_type":"survey-likert","trial_index":22,"time_elapsed":868806,"internal_node_id":"0.0-5.0-17.0"},{"rt":59351.169999921694,"responses":"{\"pregunta10\":\"a) La biónica puede asegurar nuestra existencia mediante la aplicación de técnicas copiadas de la naturaleza. \"}","question_order":"[0]","trial_type":"survey-multi-choice","trial_index":23,"time_elapsed":928158,"internal_node_id":"0.0-5.0-18.0"},{"rt":3417.3099999316037,"response":{"pregunta10 likert":2},"question_order":[0],"trial_type":"survey-likert","trial_index":24,"time_elapsed":931577,"internal_node_id":"0.0-5.0-19.0"},{"rt":79563.96499997936,"responses":"{\"pregunta16\":\"b) Provocar el deseo de la adquisición vertiginosa. \"}","question_order":"[0]","trial_type":"survey-multi-choice","trial_index":25,"time_elapsed":1011144,"internal_node_id":"0.0-5.0-20.0"},{"rt":3834.8400000249967,"response":{"pregunta16 likert":2},"question_order":[0],"trial_type":"survey-likert","trial_index":26,"time_elapsed":1014980,"internal_node_id":"0.0-5.0-21.0"},{"rt":57979.84499996528,"responses":"{\"pregunta23\":\"c) A la inexistencia de un recinto adecuado para el recital. \"}","question_order":"[0]","trial_type":"survey-multi-choice","trial_index":27,"time_elapsed":1072962,"internal_node_id":"0.0-5.0-22.0"},{"rt":3437.8949999809265,"response":{"pregunta23 likert":2},"question_order":[0],"trial_type":"survey-likert","trial_index":28,"time_elapsed":1076403,"internal_node_id":"0.0-5.0-23.0"},{"rt":47407.129999948665,"responses":"{\"pregunta5\":\"b) Los momentos triviales de los viajes, en la escritura se vuelven significativos. \"}","question_order":"[0]","trial_type":"survey-multi-choice","trial_index":29,"time_elapsed":1123812,"internal_node_id":"0.0-5.0-24.0"},{"rt":2521.6249999357387,"response":{"pregunta5 likert":1},"question_order":[0],"trial_type":"survey-likert","trial_index":30,"time_elapsed":1126335,"internal_node_id":"0.0-5.0-25.0"},{"rt":76438.09499999043,"responses":"{\"pregunta7\":\"c) Si desaparecieran el papel y la imprenta, se produciría un gran retraso en nuestra civilización. \"}","question_order":"[0]","trial_type":"survey-multi-choice","trial_index":31,"time_elapsed":1202775,"internal_node_id":"0.0-5.0-26.0"},{"rt":2226.1799999978393,"response":{"pregunta7 likert":1},"question_order":[0],"trial_type":"survey-likert","trial_index":32,"time_elapsed":1205003,"internal_node_id":"0.0-5.0-27.0"},{"rt":44430.82500004675,"responses":"{\"pregunta3\":\"a) El inicio de la civilización china. \"}","question_order":"[0]","trial_type":"survey-multi-choice","trial_index":33,"time_elapsed":1249435,"internal_node_id":"0.0-5.0-28.0"},{"rt":2925.7950000464916,"response":{"pregunta3 likert":2},"question_order":[0],"trial_type":"survey-likert","trial_index":34,"time_elapsed":1252363,"internal_node_id":"0.0-5.0-29.0"},{"rt":67561.24499998987,"responses":"{\"pregunta4\":\"b) En la literatura como en la vida, lo importante son las preguntas. \"}","question_order":"[0]","trial_type":"survey-multi-choice","trial_index":35,"time_elapsed":1319925,"internal_node_id":"0.0-5.0-30.0"},{"rt":3015.4099999926984,"response":{"pregunta4 likert":1},"question_order":[0],"trial_type":"survey-likert","trial_index":36,"time_elapsed":1322942,"internal_node_id":"0.0-5.0-31.0"},{"rt":47907.604999956675,"responses":"{\"pregunta29\":\"a) la Muerte vaticina el futuro mediante gestos. \"}","question_order":"[0]","trial_type":"survey-multi-choice","trial_index":37,"time_elapsed":1370851,"internal_node_id":"0.0-5.0-32.0"},{"rt":4399.575000046752,"response":{"pregunta29 likert":2},"question_order":[0],"trial_type":"survey-likert","trial_index":38,"time_elapsed":1375253,"internal_node_id":"0.0-5.0-33.0"},{"rt":41741.055000107735,"responses":"{\"pregunta1\":\"a) Aportan informaciones con las que se reconstruye el personaje dentro de un relato. \"}","question_order":"[0]","trial_type":"survey-multi-choice","trial_index":39,"time_elapsed":1416996,"internal_node_id":"0.0-5.0-34.0"},{"rt":1966.0350000485778,"response":{"pregunta1 likert":3},"question_order":[0],"trial_type":"survey-likert","trial_index":40,"time_elapsed":1418963,"internal_node_id":"0.0-5.0-35.0"},{"rt":73367.71999998018,"responses":"{\"pregunta25\":\"a) sufren dolores de espalda. \"}","question_order":"[0]","trial_type":"survey-multi-choice","trial_index":41,"time_elapsed":1492333,"internal_node_id":"0.0-5.0-36.0"},{"rt":2260.215000016615,"response":{"pregunta25 likert":3},"question_order":[0],"trial_type":"survey-likert","trial_index":42,"time_elapsed":1494595,"internal_node_id":"0.0-5.0-37.0"},{"rt":58415.20000004675,"responses":"{\"pregunta13\":\"b) El ser humano se comporta de acuerdo con las circunstancias. \"}","question_order":"[0]","trial_type":"survey-multi-choice","trial_index":43,"time_elapsed":1553012,"internal_node_id":"0.0-5.0-38.0"},{"rt":2330.8800000231713,"response":{"pregunta13 likert":3},"question_order":[0],"trial_type":"survey-likert","trial_index":44,"time_elapsed":1555345,"internal_node_id":"0.0-5.0-39.0"},{"rt":62534.03999994043,"responses":"{\"pregunta21\":\"b) la creación de elementos químicos artificiales ha resultado de la manipulación del uranio. \"}","question_order":"[0]","trial_type":"survey-multi-choice","trial_index":45,"time_elapsed":1617881,"internal_node_id":"0.0-5.0-40.0"},{"rt":1911.9100000243634,"response":{"pregunta21 likert":1},"question_order":[0],"trial_type":"survey-likert","trial_index":46,"time_elapsed":1619795,"internal_node_id":"0.0-5.0-41.0"},{"rt":94850.68999999203,"responses":"{\"pregunta26\":\"b) el sujeto sufre con su modo de vida. \"}","question_order":"[0]","trial_type":"survey-multi-choice","trial_index":47,"time_elapsed":1714647,"internal_node_id":"0.0-5.0-42.0"},{"rt":3482.5049999635667,"response":{"pregunta26 likert":1},"question_order":[0],"trial_type":"survey-likert","trial_index":48,"time_elapsed":1718131,"internal_node_id":"0.0-5.0-43.0"},{"rt":43633.830000064336,"responses":"{\"pregunta28\":\"a) Se necesita un marco legal para delimitar lo público y lo privado en materia informativa. \"}","question_order":"[0]","trial_type":"survey-multi-choice","trial_index":49,"time_elapsed":1761767,"internal_node_id":"0.0-5.0-44.0"},{"rt":2297.050000051968,"response":{"pregunta28 likert":3},"question_order":[0],"trial_type":"survey-likert","trial_index":50,"time_elapsed":1764065,"internal_node_id":"0.0-5.0-45.0"},{"rt":42247.78500001412,"responses":"{\"pregunta14\":\"c) preparar los recuerdos del mañana. \"}","question_order":"[0]","trial_type":"survey-multi-choice","trial_index":51,"time_elapsed":1806315,"internal_node_id":"0.0-5.0-46.0"},{"rt":2229.879999998957,"response":{"pregunta14 likert":2},"question_order":[0],"trial_type":"survey-likert","trial_index":52,"time_elapsed":1808546,"internal_node_id":"0.0-5.0-47.0"},{"rt":59309.40999998711,"responses":"{\"pregunta20\":\"a) sólo las leyes bastan para gobernarse. \"}","question_order":"[0]","trial_type":"survey-multi-choice","trial_index":53,"time_elapsed":1867857,"internal_node_id":"0.0-5.0-48.0"},{"rt":1866.9150000205263,"response":{"pregunta20 likert":1},"question_order":[0],"trial_type":"survey-likert","trial_index":54,"time_elapsed":1869726,"internal_node_id":"0.0-5.0-49.0"},{"rt":124772.24000007845,"responses":"{\"pregunta19\":\"a) El hábito de la lectura y el progreso mantienen una relación inversamente proporcional. \"}","question_order":"[0]","trial_type":"survey-multi-choice","trial_index":55,"time_elapsed":1994500,"internal_node_id":"0.0-5.0-50.0"},{"rt":2381.7549999803305,"response":{"pregunta19 likert":2},"question_order":[0],"trial_type":"survey-likert","trial_index":56,"time_elapsed":1996884,"internal_node_id":"0.0-5.0-51.0"},{"rt":73111.90499993972,"responses":"{\"pregunta24\":\"c) La publicidad ejerce una influencia positiva sobre la sociedad. \"}","question_order":"[0]","trial_type":"survey-multi-choice","trial_index":57,"time_elapsed":2069997,"internal_node_id":"0.0-5.0-52.0"},{"rt":4115.69500004407,"response":{"pregunta24 likert":2},"question_order":[0],"trial_type":"survey-likert","trial_index":58,"time_elapsed":2074114,"internal_node_id":"0.0-5.0-53.0"},{"rt":35240.62500009313,"responses":"{\"pregunta6\":\"a) La aparición del Diccionario Académico ha sido polémica. \"}","question_order":"[0]","trial_type":"survey-multi-choice","trial_index":59,"time_elapsed":2109357,"internal_node_id":"0.0-5.0-54.0"},{"rt":2674.2700000759214,"response":{"pregunta6 likert":1},"question_order":[0],"trial_type":"survey-likert","trial_index":60,"time_elapsed":2112033,"internal_node_id":"0.0-5.0-55.0"},{"rt":75079.60499997716,"responses":"{\"pregunta12\":\"a) se da como existente, y sólo se discute su relación con el cuerpo. \"}","question_order":"[0]","trial_type":"survey-multi-choice","trial_index":61,"time_elapsed":2187114,"internal_node_id":"0.0-5.0-56.0"},{"rt":2836.280000046827,"response":{"pregunta12 likert":1},"question_order":[0],"trial_type":"survey-likert","trial_index":62,"time_elapsed":2189952,"internal_node_id":"0.0-5.0-57.0"},{"rt":39561.27499998547,"responses":"{\"pregunta22\":\"a) Bomberos debería tener acceso a un seguro médico, al que pueda recurrir en caso de accidente. \"}","question_order":"[0]","trial_type":"survey-multi-choice","trial_index":63,"time_elapsed":2229515,"internal_node_id":"0.0-5.0-58.0"},{"rt":2597.025000024587,"response":{"pregunta22 likert":3},"question_order":[0],"trial_type":"survey-likert","trial_index":64,"time_elapsed":2232114,"internal_node_id":"0.0-5.0-59.0"},{"rt":3532.0649999193847,"stimulus":"<p style=\"font-size: 120%\">Gracias por completar esta etapa del estudio. Ahora te invitamos a responder el cuestionario.<br><br></p>","response":0,"trial_type":"html-button-response","trial_index":65,"time_elapsed":2235753,"internal_node_id":"0.0-6.0"},{"rt":6219.464999972843,"stimulus":"<h1 style=\"margin-top: 5%\">Cuestionario para la Evaluación de Metas Académicas</h1><p style=\"font-size: 120%; margin-left: 3%; margin-top: 5%\">Este es un cuestionario que permite conocer cuáles son los principales motivos por los que los estudiantes se esfuerzan en su trabajo académico. A continuación, se te presentarán una serie de afirmaciones acerca de los motivos que puedes tener para estudiar.<br>Te pedimos que contestes a dichas afirmaciones reflexionando sobre el contenido de cada una de ellas, que, aunque te parezcan semejantes, en realidad, no lo son.<br>NO HAY RESPUESTAS CORRECTAS o INCORRECTAS, sólo queremos que respondas con la mayor precisión y sinceridad posible a las preguntas que se plantean.","response":0,"trial_type":"html-button-response","trial_index":66,"time_elapsed":2241974,"internal_node_id":"0.0-7.0"},{"rt":123065.47000003047,"response":{"Metas cuestionario pregunta1":3,"Metas cuestionario pregunta2":4,"Metas cuestionario pregunta3":4,"Metas cuestionario pregunta4":3,"Metas cuestionario pregunta5":4,"Metas cuestionario pregunta6":3,"Metas cuestionario pregunta7":3,"Metas cuestionario pregunta8":4,"Metas cuestionario pregunta9":4,"Metas cuestionario pregunta10":4,"Metas cuestionario pregunta11":0,"Metas cuestionario pregunta12":0,"Metas cuestionario pregunta13":0,"Metas cuestionario pregunta14":0,"Metas cuestionario pregunta15":4,"Metas cuestionario pregunta16":4,"Metas cuestionario pregunta17":4,"Metas cuestionario pregunta18":4,"Metas cuestionario pregunta19":4,"Metas cuestionario pregunta20":3},"question_order":[0,1,2,3,4,5,6,7,8,9,10,11,12,13,14,15,16,17,18,19],"trial_type":"survey-likert","trial_index":67,"time_elapsed":2365044,"internal_node_id":"0.0-8.0"},{"rt":3988.859999924898,"stimulus":"<p style=\"font-size: 120%\">Gracias por responder el cuestionario. Ahora te invitamos a seguir con el juego, que es muy breve.<br><br></p>","response":0,"trial_type":"html-button-response","trial_index":68,"time_elapsed":2369037,"internal_node_id":"0.0-9.0"},{"rt":10774.160000029951,"stimulus":"<h1>Juego</h1><p style=\"font-size: 120%;\">A continuación se te presentarán 16 pequeñas historias.<br>Por favor lee el texto presentado en cada una de ellas y luego haz click en el objeto de tu elección.<br>Si estás listo(a),<span style=\"color:red;\"> haz click en \"comenzar\"</span>.</p>","response":0,"trial_type":"html-button-response","trial_index":69,"time_elapsed":2379812,"internal_node_id":"0.0-10.0"},{"rt":16595.020000007935,"grid":[[1],[1],[1],[1],[1],[1]],"target":[0,0],"response":[2,0],"correct":false,"juego":5,"trial_type":"serial-reaction-time-mouse","trial_index":70,"time_elapsed":2396439,"internal_node_id":"0.0-11.0-0.0"},{"rt":19274.330000043847,"grid":[[1,1,1]],"target":[0,0],"response":[0,1],"correct":false,"juego":12,"trial_type":"serial-reaction-time-mouse","trial_index":71,"time_elapsed":2415715,"internal_node_id":"0.0-11.0-1.0"},{"rt":7195.085000013933,"grid":[[1,1,1]],"target":[0,2],"response":[0,1],"correct":false,"juego":1,"trial_type":"serial-reaction-time-mouse","trial_index":72,"time_elapsed":2422911,"internal_node_id":"0.0-11.0-2.0"},{"rt":8503.045000019483,"grid":[[1,1],[1,1],[1,1],[1,1],[1,1],[1,1],[1,1]],"target":[0,0],"response":[1,1],"correct":false,"juego":14,"trial_type":"serial-reaction-time-mouse","trial_index":73,"time_elapsed":2431416,"internal_node_id":"0.0-11.0-3.0"},{"rt":8817.099999985658,"grid":[[1,1,1]],"target":[0,2],"response":[0,1],"correct":false,"juego":8,"trial_type":"serial-reaction-time-mouse","trial_index":74,"time_elapsed":2440234,"internal_node_id":"0.0-11.0-4.0"},{"rt":11815.844999975525,"grid":[[1,1,1],[1,1,1],[1,1,1]],"target":[0,0],"response":[0,2],"correct":false,"juego":10,"trial_type":"serial-reaction-time-mouse","trial_index":75,"time_elapsed":2452051,"internal_node_id":"0.0-11.0-5.0"},{"rt":14445.14500000514,"grid":[[1,1,1]],"target":[0,0],"response":[0,1],"correct":false,"juego":11,"trial_type":"serial-reaction-time-mouse","trial_index":76,"time_elapsed":2466497,"internal_node_id":"0.0-11.0-6.0"},{"rt":19027.010000078008,"grid":[[1,1],[1,1],[1,1],[1,1],[1,1],[1,1],[1,1]],"target":[0,0],"response":[5,1],"correct":false,"juego":15,"trial_type":"serial-reaction-time-mouse","trial_index":77,"time_elapsed":2485526,"internal_node_id":"0.0-11.0-7.0"},{"rt":12927.625000011176,"grid":[[1,1,1]],"target":[0,2],"response":[0,1],"correct":false,"juego":7,"trial_type":"serial-reaction-time-mouse","trial_index":78,"time_elapsed":2498454,"internal_node_id":"0.0-11.0-8.0"},{"rt":8625.819999957457,"grid":[[1,1,1],[1,1,1],[1,1,1],[1,1,1],[1,1,1],[1,1,1],[1,1,1]],"target":[0,0],"response":[5,1],"correct":false,"juego":13,"trial_type":"serial-reaction-time-mouse","trial_index":79,"time_elapsed":2507081,"internal_node_id":"0.0-11.0-9.0"},{"rt":4945.420000003651,"grid":[[1,1,1]],"target":[0,2],"response":[0,2],"correct":true,"juego":3,"trial_type":"serial-reaction-time-mouse","trial_index":80,"time_elapsed":2512027,"internal_node_id":"0.0-11.0-10.0"},{"rt":8066.244999994524,"grid":[[1,1,1]],"target":[0,2],"response":[0,1],"correct":false,"juego":2,"trial_type":"serial-reaction-time-mouse","trial_index":81,"time_elapsed":2520095,"internal_node_id":"0.0-11.0-11.0"},{"rt":3095.7150000613183,"grid":[[1],[1],[1]],"target":[0,2],"response":[1,0],"correct":false,"juego":4,"trial_type":"serial-reaction-time-mouse","trial_index":82,"time_elapsed":2523192,"internal_node_id":"0.0-11.0-12.0"},{"rt":6994.655000045896,"grid":[[1,1,1],[1,1,1],[1,1,1],[1,1,1],[1,1,1],[1,1,1],[1,1,1]],"target":[0,0],"response":[1,1],"correct":false,"juego":6,"trial_type":"serial-reaction-time-mouse","trial_index":83,"time_elapsed":2530188,"internal_node_id":"0.0-11.0-13.0"},{"rt":7729.425000026822,"grid":[[1,1,1]],"target":[0,0],"response":[0,0],"correct":true,"juego":9,"trial_type":"serial-reaction-time-mouse","trial_index":84,"time_elapsed":2537918,"internal_node_id":"0.0-11.0-14.0"},{"rt":10099.280000082217,"stimulus":"<h1>Último juego</h1><p style=\"font-size: 130%;\">Tienes <span style=\"color:red\">20</span> segundos para recordar los pares de palabras que aparecerán a continuación. <br></p>","response":0,"trial_type":"html-button-response","trial_index":85,"time_elapsed":2548020,"internal_node_id":"0.0-12.0"},{"animation_sequence":[{"stimulus":"imagen_juego_interferencia.jpg","time":625.5400000372902},{"stimulus":"imagen_juego_interferencia.jpg","time":1002.7000000700355},{"stimulus":"imagen_juego_interferencia.jpg","time":1502.115000039339},{"stimulus":"imagen_juego_interferencia.jpg","time":2002.8400000883266},{"stimulus":"imagen_juego_interferencia.jpg","time":2501.6400000313297},{"stimulus":"imagen_juego_interferencia.jpg","time":3001.9250001059845},{"stimulus":"imagen_juego_interferencia.jpg","time":3501.9000000320375},{"stimulus":"imagen_juego_interferencia.jpg","time":4001.600000075996},{"stimulus":"imagen_juego_interferencia.jpg","time":4501.545000006445},{"stimulus":"imagen_juego_interferencia.jpg","time":5001.690000062808},{"stimulus":"imagen_juego_interferencia.jpg","time":5502.845000009984},{"stimulus":"imagen_juego_interferencia.jpg","time":6001.7900000093505},{"stimulus":"imagen_juego_interferencia.jpg","time":6501.550000044517},{"stimulus":"imagen_juego_interferencia.jpg","time":7017.175000044517},{"stimulus":"imagen_juego_interferencia.jpg","time":7502.025000052527},{"stimulus":"imagen_juego_interferencia.jpg","time":8002.040000050329},{"stimulus":"imagen_juego_interferencia.jpg","time":8501.775000011548},{"stimulus":"imagen_juego_interferencia.jpg","time":9001.470000017434},{"stimulus":"imagen_juego_interferencia.jpg","time":9501.380000030622},{"stimulus":"imagen_juego_interferencia.jpg","time":10001.710000098683},{"stimulus":"imagen_juego_interferencia.jpg","time":10501.470000017434},{"stimulus":"imagen_juego_interferencia.jpg","time":11001.84000004083},{"stimulus":"imagen_juego_interferencia.jpg","time":11502.54000001587},{"stimulus":"imagen_juego_interferencia.jpg","time":12001.495000091381},{"stimulus":"imagen_juego_interferencia.jpg","time":12502.695000031963},{"stimulus":"imagen_juego_interferencia.jpg","time":13001.255000010133},{"stimulus":"imagen_juego_interferencia.jpg","time":13501.550000044517},{"stimulus":"imagen_juego_interferencia.jpg","time":14002.015000092797},{"stimulus":"imagen_juego_interferencia.jpg","time":14501.79000000935},{"stimulus":"imagen_juego_interferencia.jpg","time":15001.950000063516},{"stimulus":"imagen_juego_interferencia.jpg","time":15501.44000002183},{"stimulus":"imagen_juego_interferencia.jpg","time":16001.795000047423},{"stimulus":"imagen_juego_interferencia.jpg","time":16501.825000043027},{"stimulus":"imagen_juego_interferencia.jpg","time":17001.62000011187},{"stimulus":"imagen_juego_interferencia.jpg","time":17502.33000004664},{"stimulus":"imagen_juego_interferencia.jpg","time":18001.30000000354},{"stimulus":"imagen_juego_interferencia.jpg","time":18502.12499999907},{"stimulus":"imagen_juego_interferencia.jpg","time":19002.345000044443},{"stimulus":"imagen_juego_interferencia.jpg","time":19501.465000095777},{"stimulus":"imagen_juego_interferencia.jpg","time":20001.28000008408}],"response":[],"trial_type":"animation","trial_index":86,"time_elapsed":2568523,"internal_node_id":"0.0-13.0"},{"rt":9825.910000014119,"responses":"{\"pregunta interferencia2\":\"saltamontes\"}","question_order":"[0]","trial_type":"survey-multi-choice-cuest","trial_index":87,"time_elapsed":2578351,"internal_node_id":"0.0-14.0-0.0"},{"rt":7350.279999896884,"responses":"{\"pregunta interferencia1\":\"naranja\"}","question_order":"[0]","trial_type":"survey-multi-choice-cuest","trial_index":88,"time_elapsed":2585703,"internal_node_id":"0.0-14.0-1.0"},{"rt":3847.3449999000877,"responses":"{\"pregunta interferencia3\":\"plata\"}","question_order":"[0]","trial_type":"survey-multi-choice-cuest","trial_index":89,"time_elapsed":2589552,"internal_node_id":"0.0-14.0-2.0"},{"rt":4134.375000023283,"responses":"{\"pregunta interferencia4\":\"conserje\"}","question_order":"[0]","trial_type":"survey-multi-choice-cuest","trial_index":90,"time_elapsed":2593687,"internal_node_id":"0.0-14.0-3.0"},{"success":true,"trial_type":"fullscreen","trial_index":91,"time_elapsed":2594690,"internal_node_id":"0.0-15.0"},{"rt":14364.234999986365,"responses":"{\"Telefono\":\"959010067\"}","trial_type":"survey-text","trial_index":92,"time_elapsed":2609061,"internal_node_id":"0.0-16.0"}]