[{"rt":40415.140000000065,"stimulus":"<h1 style=\"color:red; margin-top: 3%;\">¡Bienvenido(a)!</h1><p style=\"text-align:left; justify-content:space-between; margin-right: 5%; margin-left: 5%; margin-top: 5%\"> Antes de empezar el estudio, necesitamos que nos confirmes que estás de acuerdo con participar. Recuerda que tu participación es 100% voluntaria y que lo único que te pedimos es responder lo mejor que puedas. Recuerda también que el estudio incluye:</p><ol style=\"text-align:left; justify-content:space-between; margin-right: 5%; margin-left: 5%;\"><li> un ejercicio de resolución de preguntas de selección múltiple (30’),</li><li>un cuestionario breve (5’),</li><li>un juego muy breve (3’),</li></ol><p style=\"text-align:left; justify-content:space-between; margin-right: 5%; margin-left: 5%;\">Si quieres participar, haz clic en “Acepto” luego de leer lo siguiente:<br></p><p style=\"text-align:left; justify-content:space-between; margin-right: 5%; margin-left: 5%;\">Acepto participar en el estudio “Estrategias de lectura y resolución de preguntas de selección múltiple”, en los términos aquí señalados:<br></p><p style=\"text-align:left; justify-content:space-between; margin-right: 5%; margin-left: 5%;\"><a href=\"http://ciae.uchile.cl/download.php?file=noticias/Asentimiento.pdf\" target=\"_blank\">Link a la hoja de información del Consentimiento.</a></p><p style=\"text-align:left; justify-content:space-between; margin-right: 5%; margin-left: 5%;\">Declaro que he leído (o se me ha leído) y (he) comprendido, las condiciones de mi participación en este estudio. He tenido la oportunidad de hacer preguntas y éstas han sido respondidas. No tengo dudas al respecto.</p>","response":0,"condicion_MCQ":1,"condicion_INTER":7,"numero_participante":7,"numero_version":1,"dimx":1366,"dimy":768,"color_profundidad":24,"pixel_profundidad":24,"Browser":"Google Chrome","trial_type":"html-button-response","trial_index":0,"time_elapsed":40422,"internal_node_id":"0.0-0.0"},{"success":true,"trial_type":"fullscreen","trial_index":1,"time_elapsed":43716,"internal_node_id":"0.0-1.0"},{"rt":170628.91499999998,"responses":"{\"Nombres\":\"Valentina Elizabeth De Lourdes\",\"Apellidos\":\"Machmar Díaz\",\"Edad\":\"18\",\"Sexo\":\"mujer\",\"Curso\":\"primer semestre psico. \",\"Colegio\":\"Universidad Andres Bello\",\"Contacto\":\"tinamachmar@gmail.com\"}","trial_type":"survey-text","trial_index":2,"time_elapsed":214368,"internal_node_id":"0.0-2.0"},{"success":true,"timeout":false,"failed_images":[],"failed_audio":[],"failed_video":[],"trial_type":"preload","trial_index":3,"time_elapsed":216355,"internal_node_id":"0.0-3.0"},{"rt":74475.69,"stimulus":"<h1 style:\"margin-top: 5%;\">Ejercicios de Comprensión de Lectura de la Universidad de Chile</h1><p style=\"font-size: 120%;\">En esta actividad, debes responder 30 preguntas de selección múltiple. Cada pregunta presenta 3 respuestas alternativas, pero sólo una de ellas es correcta. Por lo tanto, debes escoger una sola alternativa para cada pregunta. Además, debes reportar qué tan seguro(a) estás de la respuesta que das, con un:</p><ol style=\"font-size: 120%;text-align:left;margin-left: 40%;\"><li>No estoy seguro(a) para nada</li><li>No estoy muy seguro(a)</li><li>Estoy bastante seguro(a)</li><li>Estoy totalmente seguro(a)</li></ol><p style=\"font-size: 120%;\">Por favor lee bien los enunciados antes de responder. ¡Éxito!</p>","response":0,"trial_type":"html-button-response","trial_index":4,"time_elapsed":290833,"internal_node_id":"0.0-4.0"},{"rt":86172.10499999986,"responses":"{\"pregunta24\":\"a) La publicidad es dañina para sus receptores. \"}","question_order":"[0]","trial_type":"survey-multi-choice","trial_index":5,"time_elapsed":377011,"internal_node_id":"0.0-5.0-0.0"},{"rt":3419.570000000007,"response":{"pregunta24 likert":3},"question_order":[0],"trial_type":"survey-likert","trial_index":6,"time_elapsed":380436,"internal_node_id":"0.0-5.0-1.0"},{"rt":96823.94,"responses":"{\"pregunta1\":\"b) Aportan informaciones con las que se reconstruye el personaje dentro de un relato. \"}","question_order":"[0]","trial_type":"survey-multi-choice","trial_index":7,"time_elapsed":477265,"internal_node_id":"0.0-5.0-2.0"},{"rt":6001.415000000154,"response":{"pregunta1 likert":2},"question_order":[0],"trial_type":"survey-likert","trial_index":8,"time_elapsed":483270,"internal_node_id":"0.0-5.0-3.0"},{"rt":254355.19500000007,"responses":"{\"pregunta6\":\"a) La aparición del Diccionario Académico ha sido polémica. \"}","question_order":"[0]","trial_type":"survey-multi-choice","trial_index":9,"time_elapsed":737628,"internal_node_id":"0.0-5.0-4.0"},{"rt":3684.085000000079,"response":{"pregunta6 likert":2},"question_order":[0],"trial_type":"survey-likert","trial_index":10,"time_elapsed":741316,"internal_node_id":"0.0-5.0-5.0"},{"rt":240353.69999999995,"responses":"{\"pregunta12\":\"b) se da como existente, y sólo se discute su relación con el cuerpo. \"}","question_order":"[0]","trial_type":"survey-multi-choice","trial_index":11,"time_elapsed":981673,"internal_node_id":"0.0-5.0-6.0"},{"rt":3031.195000000065,"response":{"pregunta12 likert":1},"question_order":[0],"trial_type":"survey-likert","trial_index":12,"time_elapsed":984708,"internal_node_id":"0.0-5.0-7.0"},{"rt":32575.804999999935,"responses":"{\"pregunta30\":\"a) para el mexicano, la muerte es cotidiana. \"}","question_order":"[0]","trial_type":"survey-multi-choice","trial_index":13,"time_elapsed":1017287,"internal_node_id":"0.0-5.0-8.0"},{"rt":3404.4349999999395,"response":{"pregunta30 likert":3},"question_order":[0],"trial_type":"survey-likert","trial_index":14,"time_elapsed":1020696,"internal_node_id":"0.0-5.0-9.0"},{"rt":117597.64500000025,"responses":"{\"pregunta20\":\"a) sólo las leyes bastan para gobernarse. \"}","question_order":"[0]","trial_type":"survey-multi-choice","trial_index":15,"time_elapsed":1138298,"internal_node_id":"0.0-5.0-10.0"},{"rt":4043.5550000004005,"response":{"pregunta20 likert":1},"question_order":[0],"trial_type":"survey-likert","trial_index":16,"time_elapsed":1142345,"internal_node_id":"0.0-5.0-11.0"},{"rt":105728.41000000015,"responses":"{\"pregunta3\":\"b) El inicio de la civilización china. \"}","question_order":"[0]","trial_type":"survey-multi-choice","trial_index":17,"time_elapsed":1248076,"internal_node_id":"0.0-5.0-12.0"},{"rt":2683.1999999999534,"response":{"pregunta3 likert":3},"question_order":[0],"trial_type":"survey-likert","trial_index":18,"time_elapsed":1250763,"internal_node_id":"0.0-5.0-13.0"},{"rt":109129.0550000004,"responses":"{\"pregunta17\":\"b) Homenajear a quienes murieron. \"}","question_order":"[0]","trial_type":"survey-multi-choice","trial_index":19,"time_elapsed":1359899,"internal_node_id":"0.0-5.0-14.0"},{"rt":3253.7299999999814,"response":{"pregunta17 likert":3},"question_order":[0],"trial_type":"survey-likert","trial_index":20,"time_elapsed":1363157,"internal_node_id":"0.0-5.0-15.0"},{"rt":56528.10499999998,"responses":"{\"pregunta18\":\"a) Al premio merecido después de tantos esfuerzos. \"}","question_order":"[0]","trial_type":"survey-multi-choice","trial_index":21,"time_elapsed":1419687,"internal_node_id":"0.0-5.0-16.0"},{"rt":2505.9749999998603,"response":{"pregunta18 likert":3},"question_order":[0],"trial_type":"survey-likert","trial_index":22,"time_elapsed":1422197,"internal_node_id":"0.0-5.0-17.0"},{"rt":126776.80000000005,"responses":"{\"pregunta26\":\"a) para Aristóteles la virtud estaba en el justo equilibrio. \"}","question_order":"[0]","trial_type":"survey-multi-choice","trial_index":23,"time_elapsed":1548978,"internal_node_id":"0.0-5.0-18.0"},{"rt":2394.850000000326,"response":{"pregunta26 likert":3},"question_order":[0],"trial_type":"survey-likert","trial_index":24,"time_elapsed":1551377,"internal_node_id":"0.0-5.0-19.0"},{"rt":123901.1399999999,"responses":"{\"pregunta10\":\"b) La biónica puede asegurar nuestra existencia mediante la aplicación de técnicas copiadas de la naturaleza. \"}","question_order":"[0]","trial_type":"survey-multi-choice","trial_index":25,"time_elapsed":1675281,"internal_node_id":"0.0-5.0-20.0"},{"rt":5216.784999999916,"response":{"pregunta10 likert":3},"question_order":[0],"trial_type":"survey-likert","trial_index":26,"time_elapsed":1680502,"internal_node_id":"0.0-5.0-21.0"},{"rt":76438.6799999997,"responses":"{\"pregunta14\":\"b) un recuerdo nostálgico. \"}","question_order":"[0]","trial_type":"survey-multi-choice","trial_index":27,"time_elapsed":1756943,"internal_node_id":"0.0-5.0-22.0"},{"rt":4055.7450000001118,"response":{"pregunta14 likert":2},"question_order":[0],"trial_type":"survey-likert","trial_index":28,"time_elapsed":1761002,"internal_node_id":"0.0-5.0-23.0"},{"rt":43845.87000000011,"responses":"{\"pregunta22\":\"b) Bomberos debería tener acceso a un seguro médico, al que pueda recurrir en caso de accidente. \"}","question_order":"[0]","trial_type":"survey-multi-choice","trial_index":29,"time_elapsed":1804852,"internal_node_id":"0.0-5.0-24.0"},{"rt":2727.3549999999814,"response":{"pregunta22 likert":3},"question_order":[0],"trial_type":"survey-likert","trial_index":30,"time_elapsed":1807585,"internal_node_id":"0.0-5.0-25.0"},{"rt":78554.02000000025,"responses":"{\"pregunta15\":\"a) ritualistas y obsesivos. \"}","question_order":"[0]","trial_type":"survey-multi-choice","trial_index":31,"time_elapsed":1886146,"internal_node_id":"0.0-5.0-26.0"},{"rt":2540.385000000242,"response":{"pregunta15 likert":3},"question_order":[0],"trial_type":"survey-likert","trial_index":32,"time_elapsed":1888690,"internal_node_id":"0.0-5.0-27.0"},{"rt":87232.60499999975,"responses":"{\"pregunta13\":\"b) El concepto de normalidad es diferente para un psiquiatra que para nosotros. \"}","question_order":"[0]","trial_type":"survey-multi-choice","trial_index":33,"time_elapsed":1975927,"internal_node_id":"0.0-5.0-28.0"},{"rt":2894.760000000242,"response":{"pregunta13 likert":2},"question_order":[0],"trial_type":"survey-likert","trial_index":34,"time_elapsed":1978826,"internal_node_id":"0.0-5.0-29.0"},{"rt":131889.7799999998,"responses":"{\"pregunta21\":\"a) el uranio es el elemento natural con el mayor número de protones en el núcleo. \"}","question_order":"[0]","trial_type":"survey-multi-choice","trial_index":35,"time_elapsed":2110718,"internal_node_id":"0.0-5.0-30.0"},{"rt":5082.459999999963,"response":{"pregunta21 likert":3},"question_order":[0],"trial_type":"survey-likert","trial_index":36,"time_elapsed":2115805,"internal_node_id":"0.0-5.0-31.0"},{"rt":103755.01500000013,"responses":"{\"pregunta29\":\"c) el jardinero estará muerto al día siguiente. \"}","question_order":"[0]","trial_type":"survey-multi-choice","trial_index":37,"time_elapsed":2219563,"internal_node_id":"0.0-5.0-32.0"},{"rt":3023.9249999998137,"response":{"pregunta29 likert":3},"question_order":[0],"trial_type":"survey-likert","trial_index":38,"time_elapsed":2222591,"internal_node_id":"0.0-5.0-33.0"},{"rt":57969.669999999925,"responses":"{\"pregunta23\":\"b) A la inexistencia de un recinto adecuado para el recital. \"}","question_order":"[0]","trial_type":"survey-multi-choice","trial_index":39,"time_elapsed":2280566,"internal_node_id":"0.0-5.0-34.0"},{"rt":2658.8199999998324,"response":{"pregunta23 likert":3},"question_order":[0],"trial_type":"survey-likert","trial_index":40,"time_elapsed":2283228,"internal_node_id":"0.0-5.0-35.0"},{"rt":123075.94999999972,"responses":"{\"pregunta25\":\"b) sufren dolores de espalda. \"}","question_order":"[0]","trial_type":"survey-multi-choice","trial_index":41,"time_elapsed":2406305,"internal_node_id":"0.0-5.0-36.0"},{"rt":4681.305000000168,"response":{"pregunta25 likert":2},"question_order":[0],"trial_type":"survey-likert","trial_index":42,"time_elapsed":2410990,"internal_node_id":"0.0-5.0-37.0"},{"rt":44117.55500000017,"responses":"{\"pregunta8\":\"c) Dar a conocer al ganador del premio Cervantes. \"}","question_order":"[0]","trial_type":"survey-multi-choice","trial_index":43,"time_elapsed":2455112,"internal_node_id":"0.0-5.0-38.0"},{"rt":2510.4849999998696,"response":{"pregunta8 likert":3},"question_order":[0],"trial_type":"survey-likert","trial_index":44,"time_elapsed":2457626,"internal_node_id":"0.0-5.0-39.0"},{"rt":66765.67000000039,"responses":"{\"pregunta28\":\"b) Se necesita un marco legal para delimitar lo público y lo privado en materia informativa. \"}","question_order":"[0]","trial_type":"survey-multi-choice","trial_index":45,"time_elapsed":2524395,"internal_node_id":"0.0-5.0-40.0"},{"rt":9535.964999999851,"response":{"pregunta28 likert":2},"question_order":[0],"trial_type":"survey-likert","trial_index":46,"time_elapsed":2533934,"internal_node_id":"0.0-5.0-41.0"},{"rt":163701.17499999935,"responses":"{\"pregunta11\":\"a) Promover la asistencia a un evento específico de decoración a través de una atractiva descripción. \"}","question_order":"[0]","trial_type":"survey-multi-choice","trial_index":47,"time_elapsed":2697637,"internal_node_id":"0.0-5.0-42.0"},{"rt":4623.050000000279,"response":{"pregunta11 likert":2},"question_order":[0],"trial_type":"survey-likert","trial_index":48,"time_elapsed":2702264,"internal_node_id":"0.0-5.0-43.0"},{"rt":77591.29999999981,"responses":"{\"pregunta27\":\"a) Nuestra economía vivirá un proceso de ajuste a la nueva realidad. \"}","question_order":"[0]","trial_type":"survey-multi-choice","trial_index":49,"time_elapsed":2779859,"internal_node_id":"0.0-5.0-44.0"},{"rt":5675.549999999814,"response":{"pregunta27 likert":3},"question_order":[0],"trial_type":"survey-likert","trial_index":50,"time_elapsed":2785539,"internal_node_id":"0.0-5.0-45.0"},{"rt":51131.68000000063,"responses":"{\"pregunta2\":\"c) A la relación entre sociedad y constitución social. \"}","question_order":"[0]","trial_type":"survey-multi-choice","trial_index":51,"time_elapsed":2836678,"internal_node_id":"0.0-5.0-46.0"},{"rt":4038.8900000001304,"response":{"pregunta2 likert":3},"question_order":[0],"trial_type":"survey-likert","trial_index":52,"time_elapsed":2840720,"internal_node_id":"0.0-5.0-47.0"},{"rt":141239.91999999993,"responses":"{\"pregunta19\":\"c) Las personas que leen son más flexibles en sus ideas y autónomas en su accionar. \"}","question_order":"[0]","trial_type":"survey-multi-choice","trial_index":53,"time_elapsed":2981960,"internal_node_id":"0.0-5.0-48.0"},{"rt":8660.935000000056,"response":{"pregunta19 likert":2},"question_order":[0],"trial_type":"survey-likert","trial_index":54,"time_elapsed":2990624,"internal_node_id":"0.0-5.0-49.0"},{"rt":59837.98499999987,"responses":"{\"pregunta4\":\"c) En la literatura como en la vida, lo importante son las preguntas. \"}","question_order":"[0]","trial_type":"survey-multi-choice","trial_index":55,"time_elapsed":3050467,"internal_node_id":"0.0-5.0-50.0"},{"rt":3488.0500000002794,"response":{"pregunta4 likert":3},"question_order":[0],"trial_type":"survey-likert","trial_index":56,"time_elapsed":3053958,"internal_node_id":"0.0-5.0-51.0"},{"rt":69195,"responses":"{\"pregunta9\":\"c) pueden ejercer profesiones científicas de la misma forma en que lo hacen los hombres. \"}","question_order":"[0]","trial_type":"survey-multi-choice","trial_index":57,"time_elapsed":3123159,"internal_node_id":"0.0-5.0-52.0"},{"rt":4573.359999999404,"response":{"pregunta9 likert":3},"question_order":[0],"trial_type":"survey-likert","trial_index":58,"time_elapsed":3127736,"internal_node_id":"0.0-5.0-53.0"},{"rt":66229.25500000035,"responses":"{\"pregunta16\":\"c) Provocar el deseo de la adquisición vertiginosa. \"}","question_order":"[0]","trial_type":"survey-multi-choice","trial_index":59,"time_elapsed":3193968,"internal_node_id":"0.0-5.0-54.0"},{"rt":2693.9499999997206,"response":{"pregunta16 likert":3},"question_order":[0],"trial_type":"survey-likert","trial_index":60,"time_elapsed":3196666,"internal_node_id":"0.0-5.0-55.0"},{"rt":71160.50999999931,"responses":"{\"pregunta5\":\"b) En los viajes es esencial el momento mismo de la escritura. \"}","question_order":"[0]","trial_type":"survey-multi-choice","trial_index":61,"time_elapsed":3267827,"internal_node_id":"0.0-5.0-56.0"},{"rt":4583.479999999981,"response":{"pregunta5 likert":2},"question_order":[0],"trial_type":"survey-likert","trial_index":62,"time_elapsed":3272415,"internal_node_id":"0.0-5.0-57.0"},{"rt":177619.33500000043,"responses":"{\"pregunta7\":\"b) La imprenta y el papel han permitido el desarrollo de la civilización y la conservación de su cultura, y ambos son inventos chinos. \"}","question_order":"[0]","trial_type":"survey-multi-choice","trial_index":63,"time_elapsed":3450038,"internal_node_id":"0.0-5.0-58.0"},{"rt":2070.540000000503,"response":{"pregunta7 likert":2},"question_order":[0],"trial_type":"survey-likert","trial_index":64,"time_elapsed":3452113,"internal_node_id":"0.0-5.0-59.0"},{"rt":3145.1550000002608,"stimulus":"<p style=\"font-size: 120%\">Gracias por completar esta etapa del estudio. Ahora te invitamos a responder el cuestionario.<br><br></p>","response":0,"trial_type":"html-button-response","trial_index":65,"time_elapsed":3455270,"internal_node_id":"0.0-6.0"},{"rt":40775.30000000028,"stimulus":"<h1 style=\"margin-top: 5%\">Cuestionario para la Evaluación de Metas Académicas</h1><p style=\"font-size: 120%; margin-left: 3%; margin-top: 5%\">Este es un cuestionario que permite conocer cuáles son los principales motivos por los que los estudiantes se esfuerzan en su trabajo académico. A continuación, se te presentarán una serie de afirmaciones acerca de los motivos que puedes tener para estudiar.<br>Te pedimos que contestes a dichas afirmaciones reflexionando sobre el contenido de cada una de ellas, que, aunque te parezcan semejantes, en realidad, no lo son.<br>NO HAY RESPUESTAS CORRECTAS o INCORRECTAS, sólo queremos que respondas con la mayor precisión y sinceridad posible a las preguntas que se plantean.","response":0,"trial_type":"html-button-response","trial_index":66,"time_elapsed":3496048,"internal_node_id":"0.0-7.0"},{"rt":119299.9849999994,"response":{"Metas cuestionario pregunta1":2,"Metas cuestionario pregunta2":4,"Metas cuestionario pregunta3":4,"Metas cuestionario pregunta4":3,"Metas cuestionario pregunta5":4,"Metas cuestionario pregunta6":4,"Metas cuestionario pregunta7":4,"Metas cuestionario pregunta8":4,"Metas cuestionario pregunta9":2,"Metas cuestionario pregunta10":1,"Metas cuestionario pregunta11":0,"Metas cuestionario pregunta12":2,"Metas cuestionario pregunta13":4,"Metas cuestionario pregunta14":2,"Metas cuestionario pregunta15":4,"Metas cuestionario pregunta16":4,"Metas cuestionario pregunta17":4,"Metas cuestionario pregunta18":4,"Metas cuestionario pregunta19":4,"Metas cuestionario pregunta20":3},"question_order":[0,1,2,3,4,5,6,7,8,9,10,11,12,13,14,15,16,17,18,19],"trial_type":"survey-likert","trial_index":67,"time_elapsed":3615363,"internal_node_id":"0.0-8.0"}]