[{"rt":2164.199999999255,"stimulus":"<h1 style=\"color:red; margin-top: 3%;\">¡Bienvenido(a)!</h1><p style=\"text-align:left; justify-content:space-between; margin-right: 5%; margin-left: 5%; margin-top: 5%\"> Antes de empezar el estudio, necesitamos que nos confirmes que estás de acuerdo con participar. Recuerda que tu participación es 100% voluntaria y que lo único que te pedimos es responder lo mejor que puedas. Recuerda también que el estudio incluye:</p><ol style=\"text-align:left; justify-content:space-between; margin-right: 5%; margin-left: 5%;\"><li> un ejercicio de resolución de preguntas de selección múltiple (30’),</li><li>un cuestionario breve (5’),</li><li>un juego muy breve (3’),</li></ol><p style=\"text-align:left; justify-content:space-between; margin-right: 5%; margin-left: 5%;\">Si quieres participar, haz clic en “Acepto” luego de leer lo siguiente:<br></p><p style=\"text-align:left; justify-content:space-between; margin-right: 5%; margin-left: 5%;\">Acepto participar en el estudio “Estrategias de lectura y resolución de preguntas de selección múltiple”, en los términos aquí señalados:<br></p><p style=\"text-align:left; justify-content:space-between; margin-right: 5%; margin-left: 5%;\"><a href=\"http://ciae.uchile.cl/download.php?file=noticias/Asentimiento.pdf\" target=\"_blank\">Link a la hoja de información del Consentimiento.</a></p><p style=\"text-align:left; justify-content:space-between; margin-right: 5%; margin-left: 5%;\">Declaro que he leído (o se me ha leído) y (he) comprendido, las condiciones de mi participación en este estudio. He tenido la oportunidad de hacer preguntas y éstas han sido respondidas. No tengo dudas al respecto.</p>","response":0,"condicion_MCQ":6,"condicion_INTER":6,"numero_participante":6,"numero_version":2,"dimx":360,"dimy":760,"color_profundidad":24,"pixel_profundidad":24,"Browser":"Google Chrome","trial_type":"html-button-response","trial_index":0,"time_elapsed":2175,"internal_node_id":"0.0-0.0"},{"success":true,"trial_type":"fullscreen","trial_index":1,"time_elapsed":4990,"internal_node_id":"0.0-1.0"},{"rt":33195.60000021011,"responses":"{\"Nombres\":\"Camila Ignacia \",\"Apellidos\":\"Cabrera Elizondo \",\"Edad\":\"18\",\"Sexo\":\"Mujer\",\"Curso\":\"Primero de U\",\"Colegio\":\"Andrés Bello \",\"Contacto\":\"camycabreraelizondo@gmail.com\"}","trial_type":"survey-text","trial_index":2,"time_elapsed":38235,"internal_node_id":"0.0-2.0"},{"success":true,"timeout":false,"failed_images":[],"failed_audio":[],"failed_video":[],"trial_type":"preload","trial_index":3,"time_elapsed":39003,"internal_node_id":"0.0-3.0"},{"rt":9946.90000033006,"stimulus":"<h1 style:\"margin-top: 5%;\">Ejercicios de Comprensión de Lectura de la Universidad de Chile</h1><p style=\"font-size: 120%;\">En esta actividad, debes responder 30 preguntas de selección múltiple. Cada pregunta presenta 3 respuestas alternativas, pero sólo una de ellas es correcta. Por lo tanto, debes escoger una sola alternativa para cada pregunta. Además, debes reportar qué tan seguro(a) estás de la respuesta que das, con un:</p><ol style=\"font-size: 120%;text-align:left;margin-left: 40%;\"><li>No estoy seguro(a) para nada</li><li>No estoy muy seguro(a)</li><li>Estoy bastante seguro(a)</li><li>Estoy totalmente seguro(a)</li></ol><p style=\"font-size: 120%;\">Por favor lee bien los enunciados antes de responder. ¡Éxito!</p>","response":0,"trial_type":"html-button-response","trial_index":4,"time_elapsed":48955,"internal_node_id":"0.0-4.0"},{"rt":19433.09999955818,"responses":"{\"pregunta27\":\"c) Nuestra economía vivirá un proceso de ajuste a la nueva realidad. \"}","question_order":"[0]","trial_type":"survey-multi-choice","trial_index":5,"time_elapsed":68410,"internal_node_id":"0.0-5.0-0.0"},{"rt":2871.5999997220933,"response":{"pregunta27 likert":2},"question_order":[0],"trial_type":"survey-likert","trial_index":6,"time_elapsed":71299,"internal_node_id":"0.0-5.0-1.0"},{"rt":114893.29999964684,"responses":"{\"pregunta28\":\"b) El derecho a informar y el derecho a la privacidad son inconciliables. \"}","question_order":"[0]","trial_type":"survey-multi-choice","trial_index":7,"time_elapsed":186199,"internal_node_id":"0.0-5.0-2.0"},{"rt":1791.2000003270805,"response":{"pregunta28 likert":3},"question_order":[0],"trial_type":"survey-likert","trial_index":8,"time_elapsed":188001,"internal_node_id":"0.0-5.0-3.0"},{"rt":41713.80000002682,"responses":"{\"pregunta6\":\"b) Las voces extranjeras viven una tensión entre la aceptación y el rechazo. \"}","question_order":"[0]","trial_type":"survey-multi-choice","trial_index":9,"time_elapsed":229729,"internal_node_id":"0.0-5.0-4.0"},{"rt":1624.1000001318753,"response":{"pregunta6 likert":1},"question_order":[0],"trial_type":"survey-likert","trial_index":10,"time_elapsed":231360,"internal_node_id":"0.0-5.0-5.0"},{"rt":8676.800000015646,"responses":"{\"pregunta12\":\"a) se da como existente, y sólo se discute su relación con el cuerpo. \"}","question_order":"[0]","trial_type":"survey-multi-choice","trial_index":11,"time_elapsed":240045,"internal_node_id":"0.0-5.0-6.0"},{"rt":1432.5000001117587,"response":{"pregunta12 likert":2},"question_order":[0],"trial_type":"survey-likert","trial_index":12,"time_elapsed":241486,"internal_node_id":"0.0-5.0-7.0"},{"rt":2025.7999999448657,"responses":"{\"pregunta5\":\"b) Los momentos triviales de los viajes, en la escritura se vuelven significativos. \"}","question_order":"[0]","trial_type":"survey-multi-choice","trial_index":13,"time_elapsed":243524,"internal_node_id":"0.0-5.0-8.0"},{"rt":1065.8999998122454,"response":{"pregunta5 likert":1},"question_order":[0],"trial_type":"survey-likert","trial_index":14,"time_elapsed":244598,"internal_node_id":"0.0-5.0-9.0"},{"rt":12902.699999976903,"responses":"{\"pregunta17\":\"c) Revivir un periodo histórico. \"}","question_order":"[0]","trial_type":"survey-multi-choice","trial_index":15,"time_elapsed":257509,"internal_node_id":"0.0-5.0-10.0"},{"rt":1421.8999999575317,"response":{"pregunta17 likert":3},"question_order":[0],"trial_type":"survey-likert","trial_index":16,"time_elapsed":258938,"internal_node_id":"0.0-5.0-11.0"},{"rt":4245.899999979883,"responses":"{\"pregunta19\":\"b) Las personas que leen son más flexibles en sus ideas y autónomas en su accionar. \"}","question_order":"[0]","trial_type":"survey-multi-choice","trial_index":17,"time_elapsed":263193,"internal_node_id":"0.0-5.0-12.0"},{"rt":1475.4000003449619,"response":{"pregunta19 likert":2},"question_order":[0],"trial_type":"survey-likert","trial_index":18,"time_elapsed":264678,"internal_node_id":"0.0-5.0-13.0"},{"rt":14455.399999860674,"responses":"{\"pregunta29\":\"a) la Muerte vaticina el futuro mediante gestos. \"}","question_order":"[0]","trial_type":"survey-multi-choice","trial_index":19,"time_elapsed":279145,"internal_node_id":"0.0-5.0-14.0"},{"rt":1071.6999997384846,"response":{"pregunta29 likert":1},"question_order":[0],"trial_type":"survey-likert","trial_index":20,"time_elapsed":280224,"internal_node_id":"0.0-5.0-15.0"},{"rt":2207.2999998927116,"responses":"{\"pregunta9\":\"c) pueden rendir exámenes para optar y obtener títulos profesionales igual que los hombres. \"}","question_order":"[0]","trial_type":"survey-multi-choice","trial_index":21,"time_elapsed":282443,"internal_node_id":"0.0-5.0-16.0"},{"rt":1017.6999997347593,"response":{"pregunta9 likert":2},"question_order":[0],"trial_type":"survey-likert","trial_index":22,"time_elapsed":283470,"internal_node_id":"0.0-5.0-17.0"},{"rt":2150.100000202656,"responses":"{\"pregunta21\":\"b) la creación de elementos químicos artificiales ha resultado de la manipulación del uranio. \"}","question_order":"[0]","trial_type":"survey-multi-choice","trial_index":23,"time_elapsed":285633,"internal_node_id":"0.0-5.0-18.0"},{"rt":4107.600000221282,"response":{"pregunta21 likert":3},"question_order":[0],"trial_type":"survey-likert","trial_index":24,"time_elapsed":289749,"internal_node_id":"0.0-5.0-19.0"},{"rt":22188.89999995008,"responses":"{\"pregunta25\":\"b) tienen dificultades durante el parto. \"}","question_order":"[0]","trial_type":"survey-multi-choice","trial_index":25,"time_elapsed":311947,"internal_node_id":"0.0-5.0-20.0"},{"rt":1626.6999999061227,"response":{"pregunta25 likert":2},"question_order":[0],"trial_type":"survey-likert","trial_index":26,"time_elapsed":313583,"internal_node_id":"0.0-5.0-21.0"},{"rt":3876.000000163913,"responses":"{\"pregunta13\":\"a) Lo que es normal en un asilo es anormal en un campo de concentración. \"}","question_order":"[0]","trial_type":"survey-multi-choice","trial_index":27,"time_elapsed":317466,"internal_node_id":"0.0-5.0-22.0"},{"rt":2539.2999998293817,"response":{"pregunta13 likert":3},"question_order":[0],"trial_type":"survey-likert","trial_index":28,"time_elapsed":320012,"internal_node_id":"0.0-5.0-23.0"},{"rt":4504.100000020117,"responses":"{\"pregunta22\":\"a) Bomberos debería tener acceso a un seguro médico, al que pueda recurrir en caso de accidente. \"}","question_order":"[0]","trial_type":"survey-multi-choice","trial_index":29,"time_elapsed":324525,"internal_node_id":"0.0-5.0-24.0"},{"rt":1178.7999998778105,"response":{"pregunta22 likert":1},"question_order":[0],"trial_type":"survey-likert","trial_index":30,"time_elapsed":325736,"internal_node_id":"0.0-5.0-25.0"},{"rt":1833.9999997988343,"responses":"{\"pregunta10\":\"c) La biónica es una disciplina que tiene su origen en la ecología. \"}","question_order":"[0]","trial_type":"survey-multi-choice","trial_index":31,"time_elapsed":327578,"internal_node_id":"0.0-5.0-26.0"},{"rt":998.8999995402992,"response":{"pregunta10 likert":2},"question_order":[0],"trial_type":"survey-likert","trial_index":32,"time_elapsed":328583,"internal_node_id":"0.0-5.0-27.0"},{"rt":2443.8000000081956,"responses":"{\"pregunta23\":\"a) A la temática satánica de las canciones del grupo. \"}","question_order":"[0]","trial_type":"survey-multi-choice","trial_index":33,"time_elapsed":331034,"internal_node_id":"0.0-5.0-28.0"},{"rt":1042.9000002332032,"response":{"pregunta23 likert":1},"question_order":[0],"trial_type":"survey-likert","trial_index":34,"time_elapsed":332084,"internal_node_id":"0.0-5.0-29.0"},{"rt":2686.000000219792,"responses":"{\"pregunta8\":\"a) Caracterizar al Quijote como un pelmazo. \"}","question_order":"[0]","trial_type":"survey-multi-choice","trial_index":35,"time_elapsed":334779,"internal_node_id":"0.0-5.0-30.0"},{"rt":2711.499999742955,"response":{"pregunta8 likert":2},"question_order":[0],"trial_type":"survey-likert","trial_index":36,"time_elapsed":337498,"internal_node_id":"0.0-5.0-31.0"},{"rt":3017.7000002004206,"responses":"{\"pregunta14\":\"a) la persistencia de la melancolía y la desesperanza. \"}","question_order":"[0]","trial_type":"survey-multi-choice","trial_index":37,"time_elapsed":340523,"internal_node_id":"0.0-5.0-32.0"},{"rt":3413.8000002130866,"response":{"pregunta14 likert":3},"question_order":[0],"trial_type":"survey-likert","trial_index":38,"time_elapsed":343946,"internal_node_id":"0.0-5.0-33.0"},{"rt":2427.3999999277294,"responses":"{\"pregunta24\":\"a) El receptor es habitualmente pasivo frente a la publicidad. \"}","question_order":"[0]","trial_type":"survey-multi-choice","trial_index":39,"time_elapsed":346381,"internal_node_id":"0.0-5.0-34.0"},{"rt":839.9999998509884,"response":{"pregunta24 likert":3},"question_order":[0],"trial_type":"survey-likert","trial_index":40,"time_elapsed":347231,"internal_node_id":"0.0-5.0-35.0"},{"rt":1570.4000000841916,"responses":"{\"pregunta2\":\"b) A la relación entre civilización y sociedad. \"}","question_order":"[0]","trial_type":"survey-multi-choice","trial_index":41,"time_elapsed":348809,"internal_node_id":"0.0-5.0-36.0"},{"rt":1874.2999997921288,"response":{"pregunta2 likert":1},"question_order":[0],"trial_type":"survey-likert","trial_index":42,"time_elapsed":350692,"internal_node_id":"0.0-5.0-37.0"},{"rt":1857.000000309199,"responses":"{\"pregunta7\":\"c) Si desaparecieran el papel y la imprenta, se produciría un gran retraso en nuestra civilización. \"}","question_order":"[0]","trial_type":"survey-multi-choice","trial_index":43,"time_elapsed":352561,"internal_node_id":"0.0-5.0-38.0"},{"rt":788.500000257045,"response":{"pregunta7 likert":2},"question_order":[0],"trial_type":"survey-likert","trial_index":44,"time_elapsed":353362,"internal_node_id":"0.0-5.0-39.0"},{"rt":1603.3000000752509,"responses":"{\"pregunta20\":\"a) sólo las leyes bastan para gobernarse. \"}","question_order":"[0]","trial_type":"survey-multi-choice","trial_index":45,"time_elapsed":354975,"internal_node_id":"0.0-5.0-40.0"},{"rt":863.9000002294779,"response":{"pregunta20 likert":1},"question_order":[0],"trial_type":"survey-likert","trial_index":46,"time_elapsed":355850,"internal_node_id":"0.0-5.0-41.0"},{"rt":1394.8999997228384,"responses":"{\"pregunta11\":\"c) Promover la asistencia a un evento específico de decoración a través de una atractiva descripción. \"}","question_order":"[0]","trial_type":"survey-multi-choice","trial_index":47,"time_elapsed":357256,"internal_node_id":"0.0-5.0-42.0"},{"rt":704.4999999925494,"response":{"pregunta11 likert":2},"question_order":[0],"trial_type":"survey-likert","trial_index":48,"time_elapsed":357970,"internal_node_id":"0.0-5.0-43.0"},{"rt":1309.4000001437962,"responses":"{\"pregunta18\":\"a) A la inutilidad de tanto esfuerzo si el objetivo es el reposo. \"}","question_order":"[0]","trial_type":"survey-multi-choice","trial_index":49,"time_elapsed":359288,"internal_node_id":"0.0-5.0-44.0"},{"rt":656.6000003367662,"response":{"pregunta18 likert":1},"question_order":[0],"trial_type":"survey-likert","trial_index":50,"time_elapsed":359956,"internal_node_id":"0.0-5.0-45.0"},{"rt":1994.100000243634,"responses":"{\"pregunta15\":\"a) religiosos y precavidos. \"}","question_order":"[0]","trial_type":"survey-multi-choice","trial_index":51,"time_elapsed":361957,"internal_node_id":"0.0-5.0-46.0"},{"rt":681.7000000737607,"response":{"pregunta15 likert":2},"question_order":[0],"trial_type":"survey-likert","trial_index":52,"time_elapsed":362647,"internal_node_id":"0.0-5.0-47.0"},{"rt":1470.1000000350177,"responses":"{\"pregunta26\":\"b) el sujeto sufre con su modo de vida. \"}","question_order":"[0]","trial_type":"survey-multi-choice","trial_index":53,"time_elapsed":364126,"internal_node_id":"0.0-5.0-48.0"},{"rt":600.6000000052154,"response":{"pregunta26 likert":1},"question_order":[0],"trial_type":"survey-likert","trial_index":54,"time_elapsed":364738,"internal_node_id":"0.0-5.0-49.0"},{"rt":2048.0000004172325,"responses":"{\"pregunta3\":\"a) El inicio de la civilización china. \"}","question_order":"[0]","trial_type":"survey-multi-choice","trial_index":55,"time_elapsed":366794,"internal_node_id":"0.0-5.0-50.0"},{"rt":693.2999999262393,"response":{"pregunta3 likert":2},"question_order":[0],"trial_type":"survey-likert","trial_index":56,"time_elapsed":367496,"internal_node_id":"0.0-5.0-51.0"},{"rt":1361.0000000335276,"responses":"{\"pregunta4\":\"b) En la literatura como en la vida, lo importante son las preguntas. \"}","question_order":"[0]","trial_type":"survey-multi-choice","trial_index":57,"time_elapsed":368865,"internal_node_id":"0.0-5.0-52.0"},{"rt":1531.2000000849366,"response":{"pregunta4 likert":1},"question_order":[0],"trial_type":"survey-likert","trial_index":58,"time_elapsed":370403,"internal_node_id":"0.0-5.0-53.0"},{"rt":1615.5999996699393,"responses":"{\"pregunta16\":\"c) Deleitar a sus receptores por medio de la belleza y el confort. \"}","question_order":"[0]","trial_type":"survey-multi-choice","trial_index":59,"time_elapsed":372025,"internal_node_id":"0.0-5.0-54.0"},{"rt":702.3000000044703,"response":{"pregunta16 likert":2},"question_order":[0],"trial_type":"survey-likert","trial_index":60,"time_elapsed":372734,"internal_node_id":"0.0-5.0-55.0"},{"rt":2075.500000268221,"responses":"{\"pregunta1\":\"c) Muestran las opiniones expuestas por los personajes en un relato. \"}","question_order":"[0]","trial_type":"survey-multi-choice","trial_index":61,"time_elapsed":374816,"internal_node_id":"0.0-5.0-56.0"},{"rt":850.8000001311302,"response":{"pregunta1 likert":2},"question_order":[0],"trial_type":"survey-likert","trial_index":62,"time_elapsed":375674,"internal_node_id":"0.0-5.0-57.0"},{"rt":1372.8999998420477,"responses":"{\"pregunta30\":\"b) la muerte es distinta en las grandes ciudades. \"}","question_order":"[0]","trial_type":"survey-multi-choice","trial_index":63,"time_elapsed":377058,"internal_node_id":"0.0-5.0-58.0"},{"rt":777.4999998509884,"response":{"pregunta30 likert":1},"question_order":[0],"trial_type":"survey-likert","trial_index":64,"time_elapsed":377843,"internal_node_id":"0.0-5.0-59.0"},{"rt":1805.000000167638,"stimulus":"<p style=\"font-size: 120%\">Gracias por completar esta etapa del estudio. Ahora te invitamos a responder el cuestionario.<br><br></p>","response":0,"trial_type":"html-button-response","trial_index":65,"time_elapsed":379678,"internal_node_id":"0.0-6.0"},{"rt":1518.8000001944602,"stimulus":"<h1 style=\"margin-top: 5%\">Cuestionario para la Evaluación de Metas Académicas</h1><p style=\"font-size: 120%; margin-left: 3%; margin-top: 5%\">Este es un cuestionario que permite conocer cuáles son los principales motivos por los que los estudiantes se esfuerzan en su trabajo académico. A continuación, se te presentarán una serie de afirmaciones acerca de los motivos que puedes tener para estudiar.<br>Te pedimos que contestes a dichas afirmaciones reflexionando sobre el contenido de cada una de ellas, que, aunque te parezcan semejantes, en realidad, no lo son.<br>NO HAY RESPUESTAS CORRECTAS o INCORRECTAS, sólo queremos que respondas con la mayor precisión y sinceridad posible a las preguntas que se plantean.","response":0,"trial_type":"html-button-response","trial_index":66,"time_elapsed":381203,"internal_node_id":"0.0-7.0"},{"rt":66006.00000005215,"response":{"Metas cuestionario pregunta1":2,"Metas cuestionario pregunta2":3,"Metas cuestionario pregunta3":3,"Metas cuestionario pregunta4":3,"Metas cuestionario pregunta5":3,"Metas cuestionario pregunta6":3,"Metas cuestionario pregunta7":3,"Metas cuestionario pregunta8":2,"Metas cuestionario pregunta9":4,"Metas cuestionario pregunta10":4,"Metas cuestionario pregunta11":4,"Metas cuestionario pregunta12":4,"Metas cuestionario pregunta13":4,"Metas cuestionario pregunta14":4,"Metas cuestionario pregunta15":4,"Metas cuestionario pregunta16":4,"Metas cuestionario pregunta17":4,"Metas cuestionario pregunta18":4,"Metas cuestionario pregunta19":4,"Metas cuestionario pregunta20":4},"question_order":[0,1,2,3,4,5,6,7,8,9,10,11,12,13,14,15,16,17,18,19],"trial_type":"survey-likert","trial_index":67,"time_elapsed":447244,"internal_node_id":"0.0-8.0"}]