[{"rt":71350.8299999994,"stimulus":"<h1 style=\"color:red; margin-top: 3%;\">¡Bienvenido(a)!</h1><p style=\"text-align:left; justify-content:space-between; margin-right: 5%; margin-left: 5%; margin-top: 5%\"> Antes de empezar el estudio, necesitamos que nos confirmes que estás de acuerdo con participar. Recuerda que tu participación es 100% voluntaria y que lo único que te pedimos es responder lo mejor que puedas. Recuerda también que el estudio incluye:</p><ol style=\"text-align:left; justify-content:space-between; margin-right: 5%; margin-left: 5%;\"><li> un ejercicio de resolución de preguntas de selección múltiple (30’),</li><li>un cuestionario breve (5’),</li><li>un juego muy breve (3’),</li></ol><p style=\"text-align:left; justify-content:space-between; margin-right: 5%; margin-left: 5%;\">Si quieres participar, haz clic en “Acepto” luego de leer lo siguiente:<br></p><p style=\"text-align:left; justify-content:space-between; margin-right: 5%; margin-left: 5%;\">Acepto participar en el estudio “Estrategias de lectura y resolución de preguntas de selección múltiple”, en los términos aquí señalados:<br></p><p style=\"text-align:left; justify-content:space-between; margin-right: 5%; margin-left: 5%;\"><a href=\"http://ciae.uchile.cl/download.php?file=noticias/Asentimiento.pdf\" target=\"_blank\">Link a la hoja de información del Consentimiento.</a></p><p style=\"text-align:left; justify-content:space-between; margin-right: 5%; margin-left: 5%;\">Declaro que he leído (o se me ha leído) y (he) comprendido, las condiciones de mi participación en este estudio. He tenido la oportunidad de hacer preguntas y éstas han sido respondidas. No tengo dudas al respecto.</p>","response":0,"condicion_MCQ":4,"condicion_INTER":16,"numero_participante":64,"numero_version":1,"dimx":1440,"dimy":900,"color_profundidad":30,"pixel_profundidad":30,"Browser":"Google Chrome","trial_type":"html-button-response","trial_index":0,"time_elapsed":71363,"internal_node_id":"0.0-0.0"},{"success":true,"trial_type":"fullscreen","trial_index":1,"time_elapsed":75476,"internal_node_id":"0.0-1.0"},{"rt":50891.82999999866,"responses":"{\"Nombres\":\"Maria Belen\",\"Apellidos\":\"Delucchi Silva\",\"Edad\":\"18\",\"Sexo\":\"mujer\",\"Curso\":\"Primer año\",\"Colegio\":\"Universidad Andres Bello \",\"Contacto\":\"belendelucchis@gmail.com\"}","trial_type":"survey-text","trial_index":2,"time_elapsed":126379,"internal_node_id":"0.0-2.0"},{"success":true,"timeout":false,"failed_images":[],"failed_audio":[],"failed_video":[],"trial_type":"preload","trial_index":3,"time_elapsed":127175,"internal_node_id":"0.0-3.0"},{"rt":8571.09500000115,"stimulus":"<h1 style:\"margin-top: 5%;\">Ejercicios de Comprensión de Lectura de la Universidad de Chile</h1><p style=\"font-size: 120%;\">En esta actividad, debes responder 30 preguntas de selección múltiple. Cada pregunta presenta 3 respuestas alternativas, pero sólo una de ellas es correcta. Por lo tanto, debes escoger una sola alternativa para cada pregunta. Además, debes reportar qué tan seguro(a) estás de la respuesta que das, con un:</p><ol style=\"font-size: 120%;text-align:left;margin-left: 40%;\"><li>No estoy seguro(a) para nada</li><li>No estoy muy seguro(a)</li><li>Estoy bastante seguro(a)</li><li>Estoy totalmente seguro(a)</li></ol><p style=\"font-size: 120%;\">Por favor lee bien los enunciados antes de responder. ¡Éxito!</p>","response":0,"trial_type":"html-button-response","trial_index":4,"time_elapsed":135748,"internal_node_id":"0.0-4.0"},{"rt":65065.59999999992,"responses":"{\"pregunta6\":\"b) La aparición del Diccionario Académico ha sido polémica. \"}","question_order":"[0]","trial_type":"survey-multi-choice","trial_index":5,"time_elapsed":200818,"internal_node_id":"0.0-5.0-0.0"},{"rt":3921.4100000008475,"response":{"pregunta6 likert":1},"question_order":[0],"trial_type":"survey-likert","trial_index":6,"time_elapsed":204742,"internal_node_id":"0.0-5.0-1.0"},{"rt":41183.56999999925,"responses":"{\"pregunta8\":\"a) Comparar a Cervantes con Quevedo. \"}","question_order":"[0]","trial_type":"survey-multi-choice","trial_index":7,"time_elapsed":245929,"internal_node_id":"0.0-5.0-2.0"},{"rt":1813.889999999432,"response":{"pregunta8 likert":2},"question_order":[0],"trial_type":"survey-likert","trial_index":8,"time_elapsed":247746,"internal_node_id":"0.0-5.0-3.0"},{"rt":3606.8799999993644,"responses":"{\"pregunta12\":\"b) se da como existente, y sólo se discute su relación con el cuerpo. \"}","question_order":"[0]","trial_type":"survey-multi-choice","trial_index":9,"time_elapsed":251355,"internal_node_id":"0.0-5.0-4.0"},{"rt":1346.840000000142,"response":{"pregunta12 likert":1},"question_order":[0],"trial_type":"survey-likert","trial_index":10,"time_elapsed":252704,"internal_node_id":"0.0-5.0-5.0"},{"rt":2347.0399999987276,"responses":"{\"pregunta4\":\"a) Las personas importantes comparten el gusto por la literatura. \"}","question_order":"[0]","trial_type":"survey-multi-choice","trial_index":11,"time_elapsed":255054,"internal_node_id":"0.0-5.0-6.0"},{"rt":1612.714999999298,"response":{"pregunta4 likert":1},"question_order":[0],"trial_type":"survey-likert","trial_index":12,"time_elapsed":256669,"internal_node_id":"0.0-5.0-7.0"},{"rt":2654.819999999745,"responses":"{\"pregunta14\":\"c) un recuerdo nostálgico. \"}","question_order":"[0]","trial_type":"survey-multi-choice","trial_index":13,"time_elapsed":259326,"internal_node_id":"0.0-5.0-8.0"},{"rt":2323.179999999411,"response":{"pregunta14 likert":1},"question_order":[0],"trial_type":"survey-likert","trial_index":14,"time_elapsed":261651,"internal_node_id":"0.0-5.0-9.0"},{"rt":2321.889999999199,"responses":"{\"pregunta11\":\"a) Promover la asistencia a un evento específico de decoración a través de una atractiva descripción. \"}","question_order":"[0]","trial_type":"survey-multi-choice","trial_index":15,"time_elapsed":263975,"internal_node_id":"0.0-5.0-10.0"},{"rt":2873.679999998829,"response":{"pregunta11 likert":2},"question_order":[0],"trial_type":"survey-likert","trial_index":16,"time_elapsed":266850,"internal_node_id":"0.0-5.0-11.0"},{"rt":15601.26000000129,"responses":"{\"pregunta2\":\"b) A la relación entre sociedad y constitución social. \"}","question_order":"[0]","trial_type":"survey-multi-choice","trial_index":17,"time_elapsed":282453,"internal_node_id":"0.0-5.0-12.0"},{"rt":1661.4900000003981,"response":{"pregunta2 likert":2},"question_order":[0],"trial_type":"survey-likert","trial_index":18,"time_elapsed":284117,"internal_node_id":"0.0-5.0-13.0"},{"rt":2121.4349999991246,"responses":"{\"pregunta18\":\"b) A la inutilidad de tanto esfuerzo si el objetivo es el reposo. \"}","question_order":"[0]","trial_type":"survey-multi-choice","trial_index":19,"time_elapsed":286241,"internal_node_id":"0.0-5.0-14.0"},{"rt":1273.5899999988615,"response":{"pregunta18 likert":1},"question_order":[0],"trial_type":"survey-likert","trial_index":20,"time_elapsed":287516,"internal_node_id":"0.0-5.0-15.0"},{"rt":1854.9800000000396,"responses":"{\"pregunta13\":\"b) Lo que es normal en un asilo es anormal en un campo de concentración. \"}","question_order":"[0]","trial_type":"survey-multi-choice","trial_index":21,"time_elapsed":289375,"internal_node_id":"0.0-5.0-16.0"},{"rt":2135.7649999990826,"response":{"pregunta13 likert":1},"question_order":[0],"trial_type":"survey-likert","trial_index":22,"time_elapsed":291514,"internal_node_id":"0.0-5.0-17.0"},{"rt":1652.7400000013877,"responses":"{\"pregunta24\":\"c) La publicidad es dañina para sus receptores. \"}","question_order":"[0]","trial_type":"survey-multi-choice","trial_index":23,"time_elapsed":293169,"internal_node_id":"0.0-5.0-18.0"},{"rt":1184.7799999995623,"response":{"pregunta24 likert":1},"question_order":[0],"trial_type":"survey-likert","trial_index":24,"time_elapsed":294356,"internal_node_id":"0.0-5.0-19.0"},{"rt":2645.6500000003725,"responses":"{\"pregunta7\":\"b) La imprenta y el papel han permitido el desarrollo de la civilización y la conservación de su cultura, y ambos son inventos chinos. \"}","question_order":"[0]","trial_type":"survey-multi-choice","trial_index":25,"time_elapsed":297004,"internal_node_id":"0.0-5.0-20.0"},{"rt":2234.875000000058,"response":{"pregunta7 likert":1},"question_order":[0],"trial_type":"survey-likert","trial_index":26,"time_elapsed":299241,"internal_node_id":"0.0-5.0-21.0"},{"rt":1854.6200000000536,"responses":"{\"pregunta27\":\"b) Será difícil que las empresas nacionales compitan con las estadounidenses. \"}","question_order":"[0]","trial_type":"survey-multi-choice","trial_index":27,"time_elapsed":301098,"internal_node_id":"0.0-5.0-22.0"},{"rt":1831.179999999178,"response":{"pregunta27 likert":2},"question_order":[0],"trial_type":"survey-likert","trial_index":28,"time_elapsed":302932,"internal_node_id":"0.0-5.0-23.0"},{"rt":2541.255000000121,"responses":"{\"pregunta16\":\"a) Deleitar a sus receptores por medio de la belleza y el confort. \"}","question_order":"[0]","trial_type":"survey-multi-choice","trial_index":29,"time_elapsed":305475,"internal_node_id":"0.0-5.0-24.0"},{"rt":1509.2100000001374,"response":{"pregunta16 likert":2},"question_order":[0],"trial_type":"survey-likert","trial_index":30,"time_elapsed":306987,"internal_node_id":"0.0-5.0-25.0"},{"rt":1966.764999999199,"responses":"{\"pregunta19\":\"c) Las personas que leen son más flexibles en sus ideas y autónomas en su accionar. \"}","question_order":"[0]","trial_type":"survey-multi-choice","trial_index":31,"time_elapsed":308956,"internal_node_id":"0.0-5.0-26.0"},{"rt":1047.7799999989802,"response":{"pregunta19 likert":1},"question_order":[0],"trial_type":"survey-likert","trial_index":32,"time_elapsed":310006,"internal_node_id":"0.0-5.0-27.0"},{"rt":1603.9199999995762,"responses":"{\"pregunta9\":\"b) pueden ejercer profesiones científicas de la misma forma en que lo hacen los hombres. \"}","question_order":"[0]","trial_type":"survey-multi-choice","trial_index":33,"time_elapsed":311612,"internal_node_id":"0.0-5.0-28.0"},{"rt":1492.529999999504,"response":{"pregunta9 likert":2},"question_order":[0],"trial_type":"survey-likert","trial_index":34,"time_elapsed":313106,"internal_node_id":"0.0-5.0-29.0"},{"rt":1499.0699999998324,"responses":"{\"pregunta5\":\"a) En los viajes es esencial el momento mismo de la escritura. \"}","question_order":"[0]","trial_type":"survey-multi-choice","trial_index":35,"time_elapsed":314608,"internal_node_id":"0.0-5.0-30.0"},{"rt":1451.7699999996694,"response":{"pregunta5 likert":2},"question_order":[0],"trial_type":"survey-likert","trial_index":36,"time_elapsed":316062,"internal_node_id":"0.0-5.0-31.0"},{"rt":1515.3600000012666,"responses":"{\"pregunta29\":\"a) el jardinero era un hombre viejo. \"}","question_order":"[0]","trial_type":"survey-multi-choice","trial_index":37,"time_elapsed":317579,"internal_node_id":"0.0-5.0-32.0"},{"rt":1168.8450000001467,"response":{"pregunta29 likert":1},"question_order":[0],"trial_type":"survey-likert","trial_index":38,"time_elapsed":318750,"internal_node_id":"0.0-5.0-33.0"},{"rt":1548.0999999999767,"responses":"{\"pregunta15\":\"c) hedonistas y soñadores. \"}","question_order":"[0]","trial_type":"survey-multi-choice","trial_index":39,"time_elapsed":320301,"internal_node_id":"0.0-5.0-34.0"},{"rt":2178.4200000002165,"response":{"pregunta15 likert":1},"question_order":[0],"trial_type":"survey-likert","trial_index":40,"time_elapsed":322481,"internal_node_id":"0.0-5.0-35.0"},{"rt":1249.4449999994831,"responses":"{\"pregunta21\":\"a) el uranio es el elemento natural con el mayor número de protones en el núcleo. \"}","question_order":"[0]","trial_type":"survey-multi-choice","trial_index":41,"time_elapsed":323733,"internal_node_id":"0.0-5.0-36.0"},{"rt":1475.840000000957,"response":{"pregunta21 likert":2},"question_order":[0],"trial_type":"survey-likert","trial_index":42,"time_elapsed":325211,"internal_node_id":"0.0-5.0-37.0"},{"rt":2290.704999999434,"responses":"{\"pregunta25\":\"a) llevan un control grupal de su embarazo. \"}","question_order":"[0]","trial_type":"survey-multi-choice","trial_index":43,"time_elapsed":327504,"internal_node_id":"0.0-5.0-38.0"},{"rt":1702.1400000012363,"response":{"pregunta25 likert":1},"question_order":[0],"trial_type":"survey-likert","trial_index":44,"time_elapsed":329208,"internal_node_id":"0.0-5.0-39.0"},{"rt":1547.6850000013364,"responses":"{\"pregunta1\":\"b) Aportan informaciones con las que se reconstruye el personaje dentro de un relato. \"}","question_order":"[0]","trial_type":"survey-multi-choice","trial_index":45,"time_elapsed":330758,"internal_node_id":"0.0-5.0-40.0"},{"rt":1096.4299999995856,"response":{"pregunta1 likert":2},"question_order":[0],"trial_type":"survey-likert","trial_index":46,"time_elapsed":331856,"internal_node_id":"0.0-5.0-41.0"},{"rt":1370.830000001646,"responses":"{\"pregunta20\":\"a) la muerte de Wu Ti fue una bendición. \"}","question_order":"[0]","trial_type":"survey-multi-choice","trial_index":47,"time_elapsed":333229,"internal_node_id":"0.0-5.0-42.0"},{"rt":1064.1450000002515,"response":{"pregunta20 likert":2},"question_order":[0],"trial_type":"survey-likert","trial_index":48,"time_elapsed":334295,"internal_node_id":"0.0-5.0-43.0"},{"rt":1967.4049999994459,"responses":"{\"pregunta3\":\"c) El origen de las grandes civilizaciones. \"}","question_order":"[0]","trial_type":"survey-multi-choice","trial_index":49,"time_elapsed":336265,"internal_node_id":"0.0-5.0-44.0"},{"rt":1015.4449999991339,"response":{"pregunta3 likert":1},"question_order":[0],"trial_type":"survey-likert","trial_index":50,"time_elapsed":337282,"internal_node_id":"0.0-5.0-45.0"},{"rt":1895.2499999995343,"responses":"{\"pregunta23\":\"a) A la inexistencia de un recinto adecuado para el recital. \"}","question_order":"[0]","trial_type":"survey-multi-choice","trial_index":51,"time_elapsed":339180,"internal_node_id":"0.0-5.0-46.0"},{"rt":1588.955000001064,"response":{"pregunta23 likert":2},"question_order":[0],"trial_type":"survey-likert","trial_index":52,"time_elapsed":340771,"internal_node_id":"0.0-5.0-47.0"},{"rt":1467.5250000000233,"responses":"{\"pregunta10\":\"b) La biónica puede asegurar nuestra existencia mediante la aplicación de técnicas copiadas de la naturaleza. \"}","question_order":"[0]","trial_type":"survey-multi-choice","trial_index":53,"time_elapsed":342240,"internal_node_id":"0.0-5.0-48.0"},{"rt":1556.2750000008382,"response":{"pregunta10 likert":1},"question_order":[0],"trial_type":"survey-likert","trial_index":54,"time_elapsed":343799,"internal_node_id":"0.0-5.0-49.0"},{"rt":2056.875000000233,"responses":"{\"pregunta28\":\"a) La prensa tiene derecho a meter sus narices en todos lados. \"}","question_order":"[0]","trial_type":"survey-multi-choice","trial_index":55,"time_elapsed":345858,"internal_node_id":"0.0-5.0-50.0"},{"rt":1901.5400000007357,"response":{"pregunta28 likert":2},"question_order":[0],"trial_type":"survey-likert","trial_index":56,"time_elapsed":347761,"internal_node_id":"0.0-5.0-51.0"},{"rt":1541.2149999993271,"responses":"{\"pregunta26\":\"c) el sujeto sufre con su modo de vida. \"}","question_order":"[0]","trial_type":"survey-multi-choice","trial_index":57,"time_elapsed":349304,"internal_node_id":"0.0-5.0-52.0"},{"rt":1647.4600000000792,"response":{"pregunta26 likert":1},"question_order":[0],"trial_type":"survey-likert","trial_index":58,"time_elapsed":350953,"internal_node_id":"0.0-5.0-53.0"},{"rt":1451.3849999984377,"responses":"{\"pregunta22\":\"a) Por el riesgo que corren diariamente, los bomberos deberían tener mejores condiciones de seguridad. \"}","question_order":"[0]","trial_type":"survey-multi-choice","trial_index":59,"time_elapsed":352406,"internal_node_id":"0.0-5.0-54.0"},{"rt":2226.744999999937,"response":{"pregunta22 likert":2},"question_order":[0],"trial_type":"survey-likert","trial_index":60,"time_elapsed":354635,"internal_node_id":"0.0-5.0-55.0"},{"rt":1547.8700000002864,"responses":"{\"pregunta17\":\"b) Homenajear a quienes murieron. \"}","question_order":"[0]","trial_type":"survey-multi-choice","trial_index":61,"time_elapsed":356185,"internal_node_id":"0.0-5.0-56.0"},{"rt":1597.2599999986123,"response":{"pregunta17 likert":1},"question_order":[0],"trial_type":"survey-likert","trial_index":62,"time_elapsed":357785,"internal_node_id":"0.0-5.0-57.0"},{"rt":2573.739999999816,"responses":"{\"pregunta30\":\"a) para el mexicano, la muerte es cotidiana. \"}","question_order":"[0]","trial_type":"survey-multi-choice","trial_index":63,"time_elapsed":360361,"internal_node_id":"0.0-5.0-58.0"},{"rt":1047.709999998915,"response":{"pregunta30 likert":2},"question_order":[0],"trial_type":"survey-likert","trial_index":64,"time_elapsed":361410,"internal_node_id":"0.0-5.0-59.0"}]