[{"rt":61027.939999999944,"stimulus":"<h1 style=\"color:red; margin-top: 3%;\">¡Bienvenido(a)!</h1><p style=\"text-align:left; justify-content:space-between; margin-right: 5%; margin-left: 5%; margin-top: 5%\"> Antes de empezar el estudio, necesitamos que nos confirmes que estás de acuerdo con participar. Recuerda que tu participación es 100% voluntaria y que lo único que te pedimos es responder lo mejor que puedas. Recuerda también que el estudio incluye:</p><ol style=\"text-align:left; justify-content:space-between; margin-right: 5%; margin-left: 5%;\"><li> un ejercicio de resolución de preguntas de selección múltiple (30’),</li><li>un cuestionario breve (5’),</li><li>un juego muy breve (3’),</li></ol><p style=\"text-align:left; justify-content:space-between; margin-right: 5%; margin-left: 5%;\">Si quieres participar, haz clic en “Acepto” luego de leer lo siguiente:<br></p><p style=\"text-align:left; justify-content:space-between; margin-right: 5%; margin-left: 5%;\">Acepto participar en el estudio “Estrategias de lectura y resolución de preguntas de selección múltiple”, en los términos aquí señalados:<br></p><p style=\"text-align:left; justify-content:space-between; margin-right: 5%; margin-left: 5%;\"><a href=\"http://ciae.uchile.cl/download.php?file=noticias/Asentimiento.pdf\" target=\"_blank\">Link a la hoja de información del Consentimiento.</a></p><p style=\"text-align:left; justify-content:space-between; margin-right: 5%; margin-left: 5%;\">Declaro que he leído (o se me ha leído) y (he) comprendido, las condiciones de mi participación en este estudio. He tenido la oportunidad de hacer preguntas y éstas han sido respondidas. No tengo dudas al respecto.</p>","response":0,"condicion_MCQ":4,"condicion_INTER":16,"numero_participante":16,"numero_version":1,"dimx":1536,"dimy":864,"color_profundidad":24,"pixel_profundidad":24,"Browser":"Google Chrome","trial_type":"html-button-response","trial_index":0,"time_elapsed":61028,"internal_node_id":"0.0-0.0"},{"success":true,"trial_type":"fullscreen","trial_index":1,"time_elapsed":71915,"internal_node_id":"0.0-1.0"},{"rt":79220.86000000127,"responses":"{\"Nombres\":\"Yasna Belen\",\"Apellidos\":\"Centeno Montecinos\",\"Edad\":\"19\",\"Sexo\":\"mujer\",\"Curso\":\"psicologia\",\"Colegio\":\"UNAB\",\"Contacto\":\"centenoyasna12@gmail.com\"}","trial_type":"survey-text","trial_index":2,"time_elapsed":151171,"internal_node_id":"0.0-2.0"},{"success":true,"timeout":false,"failed_images":[],"failed_audio":[],"failed_video":[],"trial_type":"preload","trial_index":3,"time_elapsed":154936,"internal_node_id":"0.0-3.0"},{"rt":20096.825000000536,"stimulus":"<h1 style:\"margin-top: 5%;\">Ejercicios de Comprensión de Lectura de la Universidad de Chile</h1><p style=\"font-size: 120%;\">En esta actividad, debes responder 30 preguntas de selección múltiple. Cada pregunta presenta 3 respuestas alternativas, pero sólo una de ellas es correcta. Por lo tanto, debes escoger una sola alternativa para cada pregunta. Además, debes reportar qué tan seguro(a) estás de la respuesta que das, con un:</p><ol style=\"font-size: 120%;text-align:left;margin-left: 40%;\"><li>No estoy seguro(a) para nada</li><li>No estoy muy seguro(a)</li><li>Estoy bastante seguro(a)</li><li>Estoy totalmente seguro(a)</li></ol><p style=\"font-size: 120%;\">Por favor lee bien los enunciados antes de responder. ¡Éxito!</p>","response":0,"trial_type":"html-button-response","trial_index":4,"time_elapsed":175033,"internal_node_id":"0.0-4.0"},{"rt":68192.32000000193,"responses":"{\"pregunta6\":\"c) Las voces extranjeras viven una tensión entre la aceptación y el rechazo. \"}","question_order":"[0]","trial_type":"survey-multi-choice","trial_index":5,"time_elapsed":243229,"internal_node_id":"0.0-5.0-0.0"},{"rt":5037.7299999963725,"response":{"pregunta6 likert":2},"question_order":[0],"trial_type":"survey-likert","trial_index":6,"time_elapsed":248269,"internal_node_id":"0.0-5.0-1.0"},{"rt":59014.35499999934,"responses":"{\"pregunta4\":\"c) En la literatura como en la vida, lo importante son las preguntas. \"}","question_order":"[0]","trial_type":"survey-multi-choice","trial_index":7,"time_elapsed":307285,"internal_node_id":"0.0-5.0-2.0"},{"rt":3509.8350000043865,"response":{"pregunta4 likert":1},"question_order":[0],"trial_type":"survey-likert","trial_index":8,"time_elapsed":310797,"internal_node_id":"0.0-5.0-3.0"},{"rt":158207.31499999965,"responses":"{\"pregunta5\":\"c) Los momentos triviales de los viajes, en la escritura se vuelven significativos. \"}","question_order":"[0]","trial_type":"survey-multi-choice","trial_index":9,"time_elapsed":469006,"internal_node_id":"0.0-5.0-4.0"},{"rt":3405.3249999997206,"response":{"pregunta5 likert":1},"question_order":[0],"trial_type":"survey-likert","trial_index":10,"time_elapsed":472413,"internal_node_id":"0.0-5.0-5.0"},{"rt":91287.0350000012,"responses":"{\"pregunta17\":\"b) Homenajear a quienes murieron. \"}","question_order":"[0]","trial_type":"survey-multi-choice","trial_index":11,"time_elapsed":563701,"internal_node_id":"0.0-5.0-6.0"},{"rt":4933.74000000034,"response":{"pregunta17 likert":1},"question_order":[0],"trial_type":"survey-likert","trial_index":12,"time_elapsed":568636,"internal_node_id":"0.0-5.0-7.0"},{"rt":67309.85999999382,"responses":"{\"pregunta29\":\"c) el jardinero estará muerto al día siguiente. \"}","question_order":"[0]","trial_type":"survey-multi-choice","trial_index":13,"time_elapsed":635948,"internal_node_id":"0.0-5.0-8.0"},{"rt":2775.5600000019185,"response":{"pregunta29 likert":2},"question_order":[0],"trial_type":"survey-likert","trial_index":14,"time_elapsed":638725,"internal_node_id":"0.0-5.0-9.0"},{"rt":57653.27500000433,"responses":"{\"pregunta25\":\"a) llevan un control grupal de su embarazo. \"}","question_order":"[0]","trial_type":"survey-multi-choice","trial_index":15,"time_elapsed":696381,"internal_node_id":"0.0-5.0-10.0"},{"rt":2399.15000000468,"response":{"pregunta25 likert":2},"question_order":[0],"trial_type":"survey-likert","trial_index":16,"time_elapsed":698781,"internal_node_id":"0.0-5.0-11.0"},{"rt":58270.48499999358,"responses":"{\"pregunta13\":\"c) El ser humano se comporta de acuerdo con las circunstancias. \"}","question_order":"[0]","trial_type":"survey-multi-choice","trial_index":17,"time_elapsed":757053,"internal_node_id":"0.0-5.0-12.0"},{"rt":2070.4249999980675,"response":{"pregunta13 likert":2},"question_order":[0],"trial_type":"survey-likert","trial_index":18,"time_elapsed":759125,"internal_node_id":"0.0-5.0-13.0"},{"rt":52846.02499999886,"responses":"{\"pregunta2\":\"a) A la relación entre pensamiento y estructura social. \"}","question_order":"[0]","trial_type":"survey-multi-choice","trial_index":19,"time_elapsed":811972,"internal_node_id":"0.0-5.0-14.0"},{"rt":2870.504999998957,"response":{"pregunta2 likert":2},"question_order":[0],"trial_type":"survey-likert","trial_index":20,"time_elapsed":814844,"internal_node_id":"0.0-5.0-15.0"},{"rt":89814.58000000566,"responses":"{\"pregunta28\":\"b) Se necesita un marco legal para delimitar lo público y lo privado en materia informativa. \"}","question_order":"[0]","trial_type":"survey-multi-choice","trial_index":21,"time_elapsed":904660,"internal_node_id":"0.0-5.0-16.0"},{"rt":2326.565000002971,"response":{"pregunta28 likert":2},"question_order":[0],"trial_type":"survey-likert","trial_index":22,"time_elapsed":906989,"internal_node_id":"0.0-5.0-17.0"},{"rt":70469.93500000099,"responses":"{\"pregunta24\":\"b) El receptor es habitualmente pasivo frente a la publicidad. \"}","question_order":"[0]","trial_type":"survey-multi-choice","trial_index":23,"time_elapsed":977460,"internal_node_id":"0.0-5.0-18.0"},{"rt":2254.1200000051176,"response":{"pregunta24 likert":2},"question_order":[0],"trial_type":"survey-likert","trial_index":24,"time_elapsed":979716,"internal_node_id":"0.0-5.0-19.0"},{"rt":99526.5149999978,"responses":"{\"pregunta26\":\"c) el sujeto sufre con su modo de vida. \"}","question_order":"[0]","trial_type":"survey-multi-choice","trial_index":25,"time_elapsed":1079245,"internal_node_id":"0.0-5.0-20.0"},{"rt":3254.2699999976903,"response":{"pregunta26 likert":1},"question_order":[0],"trial_type":"survey-likert","trial_index":26,"time_elapsed":1082501,"internal_node_id":"0.0-5.0-21.0"},{"rt":86876.9799999937,"responses":"{\"pregunta11\":\"b) Presentar positivamente las diversas tendencias del diseño de interiores a través de un comentario. \"}","question_order":"[0]","trial_type":"survey-multi-choice","trial_index":27,"time_elapsed":1169379,"internal_node_id":"0.0-5.0-22.0"},{"rt":5895.969999997644,"response":{"pregunta11 likert":1},"question_order":[0],"trial_type":"survey-likert","trial_index":28,"time_elapsed":1175277,"internal_node_id":"0.0-5.0-23.0"},{"rt":52157.11500000185,"responses":"{\"pregunta15\":\"a) ritualistas y obsesivos. \"}","question_order":"[0]","trial_type":"survey-multi-choice","trial_index":29,"time_elapsed":1227435,"internal_node_id":"0.0-5.0-24.0"},{"rt":2959.7500000018626,"response":{"pregunta15 likert":2},"question_order":[0],"trial_type":"survey-likert","trial_index":30,"time_elapsed":1230396,"internal_node_id":"0.0-5.0-25.0"},{"rt":93471.06000000355,"responses":"{\"pregunta7\":\"a) Si desaparecieran el papel y la imprenta, se produciría un gran retraso en nuestra civilización. \"}","question_order":"[0]","trial_type":"survey-multi-choice","trial_index":31,"time_elapsed":1323868,"internal_node_id":"0.0-5.0-26.0"},{"rt":1718.9949999954551,"response":{"pregunta7 likert":2},"question_order":[0],"trial_type":"survey-likert","trial_index":32,"time_elapsed":1325589,"internal_node_id":"0.0-5.0-27.0"},{"rt":37606.37499999581,"responses":"{\"pregunta23\":\"a) A la inexistencia de un recinto adecuado para el recital. \"}","question_order":"[0]","trial_type":"survey-multi-choice","trial_index":33,"time_elapsed":1363196,"internal_node_id":"0.0-5.0-28.0"},{"rt":2926.250000004191,"response":{"pregunta23 likert":2},"question_order":[0],"trial_type":"survey-likert","trial_index":34,"time_elapsed":1366124,"internal_node_id":"0.0-5.0-29.0"},{"rt":50542.485000005225,"responses":"{\"pregunta9\":\"b) pueden ejercer profesiones científicas de la misma forma en que lo hacen los hombres. \"}","question_order":"[0]","trial_type":"survey-multi-choice","trial_index":35,"time_elapsed":1416669,"internal_node_id":"0.0-5.0-30.0"},{"rt":2102.289999995148,"response":{"pregunta9 likert":2},"question_order":[0],"trial_type":"survey-likert","trial_index":36,"time_elapsed":1418773,"internal_node_id":"0.0-5.0-31.0"},{"rt":22878.369999998482,"responses":"{\"pregunta30\":\"c) la muerte es distinta en las grandes ciudades. \"}","question_order":"[0]","trial_type":"survey-multi-choice","trial_index":37,"time_elapsed":1441653,"internal_node_id":"0.0-5.0-32.0"},{"rt":2782.72999999905,"response":{"pregunta30 likert":2},"question_order":[0],"trial_type":"survey-likert","trial_index":38,"time_elapsed":1444437,"internal_node_id":"0.0-5.0-33.0"},{"rt":69141.62999999849,"responses":"{\"pregunta1\":\"b) Aportan informaciones con las que se reconstruye el personaje dentro de un relato. \"}","question_order":"[0]","trial_type":"survey-multi-choice","trial_index":39,"time_elapsed":1513580,"internal_node_id":"0.0-5.0-34.0"},{"rt":2231.7499999990687,"response":{"pregunta1 likert":2},"question_order":[0],"trial_type":"survey-likert","trial_index":40,"time_elapsed":1515813,"internal_node_id":"0.0-5.0-35.0"},{"rt":37542.67000000249,"responses":"{\"pregunta21\":\"b) a partir de la manipulación del núcleo se han creado elementos químicos naturales. \"}","question_order":"[0]","trial_type":"survey-multi-choice","trial_index":41,"time_elapsed":1553357,"internal_node_id":"0.0-5.0-36.0"},{"rt":1590.1499999964144,"response":{"pregunta21 likert":1},"question_order":[0],"trial_type":"survey-likert","trial_index":42,"time_elapsed":1554949,"internal_node_id":"0.0-5.0-37.0"},{"rt":104366.57499999995,"responses":"{\"pregunta19\":\"c) Las personas que leen son más flexibles en sus ideas y autónomas en su accionar. \"}","question_order":"[0]","trial_type":"survey-multi-choice","trial_index":43,"time_elapsed":1659316,"internal_node_id":"0.0-5.0-38.0"},{"rt":2702.3499999996275,"response":{"pregunta19 likert":2},"question_order":[0],"trial_type":"survey-likert","trial_index":44,"time_elapsed":1662020,"internal_node_id":"0.0-5.0-39.0"},{"rt":30462.170000006212,"responses":"{\"pregunta27\":\"c) El TLC causará una completa transformación de la economía chilena. \"}","question_order":"[0]","trial_type":"survey-multi-choice","trial_index":45,"time_elapsed":1692484,"internal_node_id":"0.0-5.0-40.0"},{"rt":1583.1949999991339,"response":{"pregunta27 likert":1},"question_order":[0],"trial_type":"survey-likert","trial_index":46,"time_elapsed":1694068,"internal_node_id":"0.0-5.0-41.0"},{"rt":24862.33999999985,"responses":"{\"pregunta22\":\"c) Se debe crear un seguro médico especial para esta institución, pues es de alto riesgo. \"}","question_order":"[0]","trial_type":"survey-multi-choice","trial_index":47,"time_elapsed":1718932,"internal_node_id":"0.0-5.0-42.0"},{"rt":1622.0400000021327,"response":{"pregunta22 likert":2},"question_order":[0],"trial_type":"survey-likert","trial_index":48,"time_elapsed":1720556,"internal_node_id":"0.0-5.0-43.0"},{"rt":50839.03000000282,"responses":"{\"pregunta18\":\"a) Al premio merecido después de tantos esfuerzos. \"}","question_order":"[0]","trial_type":"survey-multi-choice","trial_index":49,"time_elapsed":1771396,"internal_node_id":"0.0-5.0-44.0"},{"rt":2910.1650000012014,"response":{"pregunta18 likert":2},"question_order":[0],"trial_type":"survey-likert","trial_index":50,"time_elapsed":1774308,"internal_node_id":"0.0-5.0-45.0"},{"rt":41832.11999999918,"responses":"{\"pregunta8\":\"c) Dar a conocer al ganador del premio Cervantes. \"}","question_order":"[0]","trial_type":"survey-multi-choice","trial_index":51,"time_elapsed":1816142,"internal_node_id":"0.0-5.0-46.0"},{"rt":3828.5650000034366,"response":{"pregunta8 likert":1},"question_order":[0],"trial_type":"survey-likert","trial_index":52,"time_elapsed":1819973,"internal_node_id":"0.0-5.0-47.0"},{"rt":320733.46999999904,"responses":"{\"pregunta16\":\"c) Provocar el deseo de la adquisición vertiginosa. \"}","question_order":"[0]","trial_type":"survey-multi-choice","trial_index":53,"time_elapsed":2140707,"internal_node_id":"0.0-5.0-48.0"},{"rt":2528.7750000059605,"response":{"pregunta16 likert":2},"question_order":[0],"trial_type":"survey-likert","trial_index":54,"time_elapsed":2143238,"internal_node_id":"0.0-5.0-49.0"},{"rt":59826.03499999782,"responses":"{\"pregunta20\":\"c) el mejor emperador es el que está muerto. \"}","question_order":"[0]","trial_type":"survey-multi-choice","trial_index":55,"time_elapsed":2203065,"internal_node_id":"0.0-5.0-50.0"},{"rt":7365.509999996051,"response":{"pregunta20 likert":1},"question_order":[0],"trial_type":"survey-likert","trial_index":56,"time_elapsed":2210432,"internal_node_id":"0.0-5.0-51.0"},{"rt":44523.6449999935,"responses":"{\"pregunta10\":\"b) La biónica puede asegurar nuestra existencia mediante la aplicación de técnicas copiadas de la naturaleza. \"}","question_order":"[0]","trial_type":"survey-multi-choice","trial_index":57,"time_elapsed":2254958,"internal_node_id":"0.0-5.0-52.0"},{"rt":2413.5349999996834,"response":{"pregunta10 likert":2},"question_order":[0],"trial_type":"survey-likert","trial_index":58,"time_elapsed":2257373,"internal_node_id":"0.0-5.0-53.0"},{"rt":49238.889999993145,"responses":"{\"pregunta14\":\"a) preparar los recuerdos del mañana. \"}","question_order":"[0]","trial_type":"survey-multi-choice","trial_index":59,"time_elapsed":2306613,"internal_node_id":"0.0-5.0-54.0"},{"rt":1405.4849999956787,"response":{"pregunta14 likert":2},"question_order":[0],"trial_type":"survey-likert","trial_index":60,"time_elapsed":2308020,"internal_node_id":"0.0-5.0-55.0"},{"rt":30887.46999999415,"responses":"{\"pregunta3\":\"c) El origen de las grandes civilizaciones. \"}","question_order":"[0]","trial_type":"survey-multi-choice","trial_index":61,"time_elapsed":2338909,"internal_node_id":"0.0-5.0-56.0"},{"rt":2654.215000002645,"response":{"pregunta3 likert":2},"question_order":[0],"trial_type":"survey-likert","trial_index":62,"time_elapsed":2341565,"internal_node_id":"0.0-5.0-57.0"},{"rt":91055.18999999901,"responses":"{\"pregunta12\":\"a) es una noción que obedece a una visión pesimista de la vida. \"}","question_order":"[0]","trial_type":"survey-multi-choice","trial_index":63,"time_elapsed":2432621,"internal_node_id":"0.0-5.0-58.0"},{"rt":1653.6200000047684,"response":{"pregunta12 likert":1},"question_order":[0],"trial_type":"survey-likert","trial_index":64,"time_elapsed":2434277,"internal_node_id":"0.0-5.0-59.0"},{"rt":1595.2699999976903,"stimulus":"<p style=\"font-size: 120%\">Gracias por completar esta etapa del estudio. Ahora te invitamos a responder el cuestionario.<br><br></p>","response":0,"trial_type":"html-button-response","trial_index":65,"time_elapsed":2435877,"internal_node_id":"0.0-6.0"},{"rt":7629.560000000987,"stimulus":"<h1 style=\"margin-top: 5%\">Cuestionario para la Evaluación de Metas Académicas</h1><p style=\"font-size: 120%; margin-left: 3%; margin-top: 5%\">Este es un cuestionario que permite conocer cuáles son los principales motivos por los que los estudiantes se esfuerzan en su trabajo académico. A continuación, se te presentarán una serie de afirmaciones acerca de los motivos que puedes tener para estudiar.<br>Te pedimos que contestes a dichas afirmaciones reflexionando sobre el contenido de cada una de ellas, que, aunque te parezcan semejantes, en realidad, no lo son.<br>NO HAY RESPUESTAS CORRECTAS o INCORRECTAS, sólo queremos que respondas con la mayor precisión y sinceridad posible a las preguntas que se plantean.","response":0,"trial_type":"html-button-response","trial_index":66,"time_elapsed":2443507,"internal_node_id":"0.0-7.0"},{"rt":93825.0449999976,"response":{"Metas cuestionario pregunta1":3,"Metas cuestionario pregunta2":4,"Metas cuestionario pregunta3":3,"Metas cuestionario pregunta4":2,"Metas cuestionario pregunta5":4,"Metas cuestionario pregunta6":3,"Metas cuestionario pregunta7":4,"Metas cuestionario pregunta8":4,"Metas cuestionario pregunta9":2,"Metas cuestionario pregunta10":0,"Metas cuestionario pregunta11":1,"Metas cuestionario pregunta12":2,"Metas cuestionario pregunta13":1,"Metas cuestionario pregunta14":0,"Metas cuestionario pregunta15":4,"Metas cuestionario pregunta16":4,"Metas cuestionario pregunta17":4,"Metas cuestionario pregunta18":4,"Metas cuestionario pregunta19":4,"Metas cuestionario pregunta20":4},"question_order":[0,1,2,3,4,5,6,7,8,9,10,11,12,13,14,15,16,17,18,19],"trial_type":"survey-likert","trial_index":67,"time_elapsed":2537337,"internal_node_id":"0.0-8.0"},{"rt":1768.4200000003912,"stimulus":"<p style=\"font-size: 120%\">Gracias por responder el cuestionario. Ahora te invitamos a seguir con el juego, que es muy breve.<br><br></p>","response":0,"trial_type":"html-button-response","trial_index":68,"time_elapsed":2539110,"internal_node_id":"0.0-9.0"},{"rt":3973.494999998249,"stimulus":"<h1>Juego</h1><p style=\"font-size: 120%;\">A continuación se te presentarán 16 pequeñas historias.<br>Por favor lee el texto presentado en cada una de ellas y luego haz click en el objeto de tu elección.<br>Si estás listo(a),<span style=\"color:red;\"> haz click en \"comenzar\"</span>.</p>","response":0,"trial_type":"html-button-response","trial_index":69,"time_elapsed":2543084,"internal_node_id":"0.0-10.0"},{"rt":6618.139999998733,"grid":[[1,1,1],[1,1,1],[1,1,1],[1,1,1],[1,1,1],[1,1,1],[1,1,1]],"target":[0,0],"response":[3,1],"correct":false,"juego":6,"trial_type":"serial-reaction-time-mouse","trial_index":70,"time_elapsed":2549705,"internal_node_id":"0.0-11.0-0.0"},{"rt":23992.064999998547,"grid":[[1,1,1]],"target":[0,0],"response":[0,0],"correct":true,"juego":11,"trial_type":"serial-reaction-time-mouse","trial_index":71,"time_elapsed":2573699,"internal_node_id":"0.0-11.0-1.0"},{"rt":8725.129999998957,"grid":[[1,1,1]],"target":[0,2],"response":[0,0],"correct":false,"juego":1,"trial_type":"serial-reaction-time-mouse","trial_index":72,"time_elapsed":2582425,"internal_node_id":"0.0-11.0-2.0"},{"rt":13259.699999995064,"grid":[[1,1,1]],"target":[0,2],"response":[0,0],"correct":false,"juego":3,"trial_type":"serial-reaction-time-mouse","trial_index":73,"time_elapsed":2595686,"internal_node_id":"0.0-11.0-3.0"},{"rt":15305.55499999877,"grid":[[1,1,1],[1,1,1],[1,1,1],[1,1,1],[1,1,1],[1,1,1],[1,1,1]],"target":[0,0],"response":[1,1],"correct":false,"juego":13,"trial_type":"serial-reaction-time-mouse","trial_index":74,"time_elapsed":2610993,"internal_node_id":"0.0-11.0-4.0"},{"rt":19380.554999995977,"grid":[[1],[1],[1]],"target":[0,2],"response":[0,0],"correct":false,"juego":4,"trial_type":"serial-reaction-time-mouse","trial_index":75,"time_elapsed":2630376,"internal_node_id":"0.0-11.0-5.0"},{"rt":13791.68000000203,"grid":[[1,1,1]],"target":[0,2],"response":[0,1],"correct":false,"juego":2,"trial_type":"serial-reaction-time-mouse","trial_index":76,"time_elapsed":2644169,"internal_node_id":"0.0-11.0-6.0"},{"rt":8118.860000002198,"grid":[[1,1,1]],"target":[0,2],"response":[0,2],"correct":true,"juego":7,"trial_type":"serial-reaction-time-mouse","trial_index":77,"time_elapsed":2652289,"internal_node_id":"0.0-11.0-7.0"},{"rt":7630.039999996312,"grid":[[1,1,1]],"target":[0,0],"response":[0,2],"correct":false,"juego":9,"trial_type":"serial-reaction-time-mouse","trial_index":78,"time_elapsed":2659920,"internal_node_id":"0.0-11.0-8.0"},{"rt":31374.434999997728,"grid":[[1,1],[1,1],[1,1],[1,1],[1,1],[1,1],[1,1]],"target":[0,0],"response":[5,1],"correct":false,"juego":14,"trial_type":"serial-reaction-time-mouse","trial_index":79,"time_elapsed":2691298,"internal_node_id":"0.0-11.0-9.0"},{"rt":14005.12500000326,"grid":[[1,1,1],[1,1,1],[1,1,1]],"target":[0,0],"response":[1,0],"correct":false,"juego":10,"trial_type":"serial-reaction-time-mouse","trial_index":80,"time_elapsed":2705305,"internal_node_id":"0.0-11.0-10.0"},{"rt":13693.709999999963,"grid":[[1,1,1]],"target":[0,2],"response":[0,2],"correct":true,"juego":8,"trial_type":"serial-reaction-time-mouse","trial_index":81,"time_elapsed":2719001,"internal_node_id":"0.0-11.0-11.0"},{"rt":15740.480000000447,"grid":[[1,1,1]],"target":[0,0],"response":[0,0],"correct":true,"juego":12,"trial_type":"serial-reaction-time-mouse","trial_index":82,"time_elapsed":2734743,"internal_node_id":"0.0-11.0-12.0"},{"rt":10909.220000001136,"grid":[[1,1],[1,1],[1,1],[1,1],[1,1],[1,1],[1,1]],"target":[0,0],"response":[1,1],"correct":false,"juego":15,"trial_type":"serial-reaction-time-mouse","trial_index":83,"time_elapsed":2745653,"internal_node_id":"0.0-11.0-13.0"},{"rt":22545.575000003446,"grid":[[1],[1],[1],[1],[1],[1]],"target":[0,0],"response":[0,0],"correct":true,"juego":5,"trial_type":"serial-reaction-time-mouse","trial_index":84,"time_elapsed":2768200,"internal_node_id":"0.0-11.0-14.0"},{"rt":7822.709999999963,"stimulus":"<h1>Último juego</h1><p style=\"font-size: 130%;\">Tienes <span style=\"color:red\">20</span> segundos para recordar los pares de palabras que aparecerán a continuación. <br></p>","response":0,"trial_type":"html-button-response","trial_index":85,"time_elapsed":2776028,"internal_node_id":"0.0-12.0"},{"animation_sequence":[{"stimulus":"imagen_juego_interferencia.jpg","time":509.644999998156},{"stimulus":"imagen_juego_interferencia.jpg","time":1005.7349999984726},{"stimulus":"imagen_juego_interferencia.jpg","time":1503.4400000004098},{"stimulus":"imagen_juego_interferencia.jpg","time":2014.309999998659},{"stimulus":"imagen_juego_interferencia.jpg","time":2517.390000000596},{"stimulus":"imagen_juego_interferencia.jpg","time":3027.135000003502},{"stimulus":"imagen_juego_interferencia.jpg","time":3514.244999998249},{"stimulus":"imagen_juego_interferencia.jpg","time":4004.930000002496},{"stimulus":"imagen_juego_interferencia.jpg","time":4502.650000002235},{"stimulus":"imagen_juego_interferencia.jpg","time":5010.25500000082},{"stimulus":"imagen_juego_interferencia.jpg","time":5513.265000001062},{"stimulus":"imagen_juego_interferencia.jpg","time":6010.3999999989755},{"stimulus":"imagen_juego_interferencia.jpg","time":6510.309999997728},{"stimulus":"imagen_juego_interferencia.jpg","time":7013.019999998156},{"stimulus":"imagen_juego_interferencia.jpg","time":7503.409999997355},{"stimulus":"imagen_juego_interferencia.jpg","time":8002.449999999721},{"stimulus":"imagen_juego_interferencia.jpg","time":8512.954999998212},{"stimulus":"imagen_juego_interferencia.jpg","time":9015.565000001341},{"stimulus":"imagen_juego_interferencia.jpg","time":9503.199999999255},{"stimulus":"imagen_juego_interferencia.jpg","time":10013.42999999877},{"stimulus":"imagen_juego_interferencia.jpg","time":10509.595000002999},{"stimulus":"imagen_juego_interferencia.jpg","time":11012.39499999769},{"stimulus":"imagen_juego_interferencia.jpg","time":11510.32999999728},{"stimulus":"imagen_juego_interferencia.jpg","time":12013.174999999814},{"stimulus":"imagen_juego_interferencia.jpg","time":12516.020000002347},{"stimulus":"imagen_juego_interferencia.jpg","time":13010.855000000447},{"stimulus":"imagen_juego_interferencia.jpg","time":13508.985000000335},{"stimulus":"imagen_juego_interferencia.jpg","time":14011.83999999892},{"stimulus":"imagen_juego_interferencia.jpg","time":14509.684999997262},{"stimulus":"imagen_juego_interferencia.jpg","time":15012.674999997951},{"stimulus":"imagen_juego_interferencia.jpg","time":15514.69499999797},{"stimulus":"imagen_juego_interferencia.jpg","time":16003.010000000242},{"stimulus":"imagen_juego_interferencia.jpg","time":16513.745000003837},{"stimulus":"imagen_juego_interferencia.jpg","time":17016.04999999795},{"stimulus":"imagen_juego_interferencia.jpg","time":17507.64000000339},{"stimulus":"imagen_juego_interferencia.jpg","time":18007.879999997094},{"stimulus":"imagen_juego_interferencia.jpg","time":18514.199999997392},{"stimulus":"imagen_juego_interferencia.jpg","time":19017.02500000084},{"stimulus":"imagen_juego_interferencia.jpg","time":19515.55499999784},{"stimulus":"imagen_juego_interferencia.jpg","time":20007.929999999702}],"response":[],"trial_type":"animation","trial_index":86,"time_elapsed":2796540,"internal_node_id":"0.0-13.0"},{"rt":7781.174999996554,"responses":"{\"pregunta interferencia4\":\"contador\"}","question_order":"[0]","trial_type":"survey-multi-choice-cuest","trial_index":87,"time_elapsed":2804324,"internal_node_id":"0.0-14.0-0.0"},{"rt":8221.894999995362,"responses":"{\"pregunta interferencia3\":\"aluminio\"}","question_order":"[0]","trial_type":"survey-multi-choice-cuest","trial_index":88,"time_elapsed":2812548,"internal_node_id":"0.0-14.0-1.0"},{"rt":5222.25999999512,"responses":"{\"pregunta interferencia2\":\"saltamontes\"}","question_order":"[0]","trial_type":"survey-multi-choice-cuest","trial_index":89,"time_elapsed":2817771,"internal_node_id":"0.0-14.0-2.0"},{"rt":3031.325000003446,"responses":"{\"pregunta interferencia1\":\"naranja\"}","question_order":"[0]","trial_type":"survey-multi-choice-cuest","trial_index":90,"time_elapsed":2820804,"internal_node_id":"0.0-14.0-3.0"},{"success":true,"trial_type":"fullscreen","trial_index":91,"time_elapsed":2821808,"internal_node_id":"0.0-15.0"}]