[{"rt":238921.42000002787,"stimulus":"<h1 style=\"color:red; margin-top: 3%;\">¡Bienvenido(a)!</h1><p style=\"text-align:left; justify-content:space-between; margin-right: 5%; margin-left: 5%; margin-top: 5%\"> Antes de empezar el estudio, necesitamos que nos confirmes que estás de acuerdo con participar. Recuerda que tu participación es 100% voluntaria y que lo único que te pedimos es responder lo mejor que puedas. Recuerda también que el estudio incluye:</p><ol style=\"text-align:left; justify-content:space-between; margin-right: 5%; margin-left: 5%;\"><li> un ejercicio de resolución de preguntas de selección múltiple (30’),</li><li>un cuestionario breve (5’),</li><li>un juego muy breve (3’),</li></ol><p style=\"text-align:left; justify-content:space-between; margin-right: 5%; margin-left: 5%;\">Si quieres participar, haz clic en “Acepto” luego de leer lo siguiente:<br></p><p style=\"text-align:left; justify-content:space-between; margin-right: 5%; margin-left: 5%;\">Acepto participar en el estudio “Estrategias de lectura y resolución de preguntas de selección múltiple”, en los términos aquí señalados:<br></p><p style=\"text-align:left; justify-content:space-between; margin-right: 5%; margin-left: 5%;\"><a href=\"http://ciae.uchile.cl/download.php?file=noticias/Asentimiento.pdf\" target=\"_blank\">Link a la hoja de información del Consentimiento.</a></p><p style=\"text-align:left; justify-content:space-between; margin-right: 5%; margin-left: 5%;\">Declaro que he leído (o se me ha leído) y (he) comprendido, las condiciones de mi participación en este estudio. He tenido la oportunidad de hacer preguntas y éstas han sido respondidas. No tengo dudas al respecto.</p>","response":0,"condicion_MCQ":1,"condicion_INTER":1,"numero_participante":1,"numero_version":1,"dimx":1536,"dimy":864,"color_profundidad":24,"pixel_profundidad":24,"Browser":"Google Chrome","trial_type":"html-button-response","trial_index":0,"time_elapsed":238925,"internal_node_id":"0.0-0.0"},{"success":true,"trial_type":"fullscreen","trial_index":1,"time_elapsed":339081,"internal_node_id":"0.0-1.0"},{"rt":63218.020000029355,"responses":"{\"Nombres\":\"Dominique Antonia\",\"Apellidos\":\"Laulié Quiceno\",\"Edad\":\"18\",\"Sexo\":\"Mujer\",\"Curso\":\"Primer año\",\"Colegio\":\"Universidad Andrés Bello \",\"Contacto\":\"domilaulie@gmail.com\"}","trial_type":"survey-text","trial_index":2,"time_elapsed":402311,"internal_node_id":"0.0-2.0"},{"success":true,"timeout":false,"failed_images":[],"failed_audio":[],"failed_video":[],"trial_type":"preload","trial_index":3,"time_elapsed":420997,"internal_node_id":"0.0-3.0"},{"rt":15810.279999859631,"stimulus":"<h1 style:\"margin-top: 5%;\">Ejercicios de Comprensión de Lectura de la Universidad de Chile</h1><p style=\"font-size: 120%;\">En esta actividad, debes responder 30 preguntas de selección múltiple. Cada pregunta presenta 3 respuestas alternativas, pero sólo una de ellas es correcta. Por lo tanto, debes escoger una sola alternativa para cada pregunta. Además, debes reportar qué tan seguro(a) estás de la respuesta que das, con un:</p><ol style=\"font-size: 120%;text-align:left;margin-left: 40%;\"><li>No estoy seguro(a) para nada</li><li>No estoy muy seguro(a)</li><li>Estoy bastante seguro(a)</li><li>Estoy totalmente seguro(a)</li></ol><p style=\"font-size: 120%;\">Por favor lee bien los enunciados antes de responder. ¡Éxito!</p>","response":0,"trial_type":"html-button-response","trial_index":4,"time_elapsed":436809,"internal_node_id":"0.0-4.0"},{"rt":100662.96000010334,"responses":"{\"pregunta15\":\"a) ritualistas y obsesivos. \"}","question_order":"[0]","trial_type":"survey-multi-choice","trial_index":5,"time_elapsed":537474,"internal_node_id":"0.0-5.0-0.0"},{"rt":4770.595000125468,"response":{"pregunta15 likert":2},"question_order":[0],"trial_type":"survey-likert","trial_index":6,"time_elapsed":542248,"internal_node_id":"0.0-5.0-1.0"},{"rt":72979.29500020109,"responses":"{\"pregunta12\":\"b) se da como existente, y sólo se discute su relación con el cuerpo. \"}","question_order":"[0]","trial_type":"survey-multi-choice","trial_index":7,"time_elapsed":615230,"internal_node_id":"0.0-5.0-2.0"},{"rt":2020.7999998237938,"response":{"pregunta12 likert":2},"question_order":[0],"trial_type":"survey-likert","trial_index":8,"time_elapsed":617252,"internal_node_id":"0.0-5.0-3.0"},{"rt":259121.0400001146,"responses":"{\"pregunta26\":\"a) para Aristóteles la virtud estaba en el justo equilibrio. \"}","question_order":"[0]","trial_type":"survey-multi-choice","trial_index":9,"time_elapsed":876376,"internal_node_id":"0.0-5.0-4.0"},{"rt":3002.989999949932,"response":{"pregunta26 likert":1},"question_order":[0],"trial_type":"survey-likert","trial_index":10,"time_elapsed":879381,"internal_node_id":"0.0-5.0-5.0"},{"rt":85794.29999995045,"responses":"{\"pregunta14\":\"a) preparar los recuerdos del mañana. \"}","question_order":"[0]","trial_type":"survey-multi-choice","trial_index":11,"time_elapsed":965177,"internal_node_id":"0.0-5.0-6.0"},{"rt":5779.6199999284,"response":{"pregunta14 likert":3},"question_order":[0],"trial_type":"survey-likert","trial_index":12,"time_elapsed":970959,"internal_node_id":"0.0-5.0-7.0"},{"rt":409719.1149999853,"responses":"{\"pregunta1\":\"b) Aportan informaciones con las que se reconstruye el personaje dentro de un relato. \"}","question_order":"[0]","trial_type":"survey-multi-choice","trial_index":13,"time_elapsed":1380680,"internal_node_id":"0.0-5.0-8.0"},{"rt":2702.3849999532104,"response":{"pregunta1 likert":2},"question_order":[0],"trial_type":"survey-likert","trial_index":14,"time_elapsed":1383385,"internal_node_id":"0.0-5.0-9.0"},{"rt":70769.2050000187,"responses":"{\"pregunta24\":\"b) El receptor es habitualmente pasivo frente a la publicidad. \"}","question_order":"[0]","trial_type":"survey-multi-choice","trial_index":15,"time_elapsed":1454156,"internal_node_id":"0.0-5.0-10.0"},{"rt":2701.1299999430776,"response":{"pregunta24 likert":1},"question_order":[0],"trial_type":"survey-likert","trial_index":16,"time_elapsed":1456859,"internal_node_id":"0.0-5.0-11.0"},{"rt":125266.1050001625,"responses":"{\"pregunta9\":\"a) pueden rendir exámenes para optar y obtener títulos profesionales igual que los hombres. \"}","question_order":"[0]","trial_type":"survey-multi-choice","trial_index":17,"time_elapsed":1582127,"internal_node_id":"0.0-5.0-12.0"},{"rt":2040.81999999471,"response":{"pregunta9 likert":2},"question_order":[0],"trial_type":"survey-likert","trial_index":18,"time_elapsed":1584170,"internal_node_id":"0.0-5.0-13.0"},{"rt":65878.8450001739,"responses":"{\"pregunta13\":\"b) El concepto de normalidad es diferente para un psiquiatra que para nosotros. \"}","question_order":"[0]","trial_type":"survey-multi-choice","trial_index":19,"time_elapsed":1650051,"internal_node_id":"0.0-5.0-14.0"},{"rt":2756.359999999404,"response":{"pregunta13 likert":2},"question_order":[0],"trial_type":"survey-likert","trial_index":20,"time_elapsed":1652809,"internal_node_id":"0.0-5.0-15.0"},{"rt":384355.2399999462,"responses":"{\"pregunta11\":\"a) Promover la asistencia a un evento específico de decoración a través de una atractiva descripción. \"}","question_order":"[0]","trial_type":"survey-multi-choice","trial_index":21,"time_elapsed":2037167,"internal_node_id":"0.0-5.0-16.0"},{"rt":1858.6850001011044,"response":{"pregunta11 likert":3},"question_order":[0],"trial_type":"survey-likert","trial_index":22,"time_elapsed":2039028,"internal_node_id":"0.0-5.0-17.0"},{"rt":49857.69999981858,"responses":"{\"pregunta22\":\"b) Bomberos debería tener acceso a un seguro médico, al que pueda recurrir en caso de accidente. \"}","question_order":"[0]","trial_type":"survey-multi-choice","trial_index":23,"time_elapsed":2088888,"internal_node_id":"0.0-5.0-18.0"},{"rt":2198.300000047311,"response":{"pregunta22 likert":3},"question_order":[0],"trial_type":"survey-likert","trial_index":24,"time_elapsed":2091088,"internal_node_id":"0.0-5.0-19.0"},{"rt":113781.74999984913,"responses":"{\"pregunta5\":\"c) Los momentos triviales de los viajes, en la escritura se vuelven significativos. \"}","question_order":"[0]","trial_type":"survey-multi-choice","trial_index":25,"time_elapsed":2204872,"internal_node_id":"0.0-5.0-20.0"},{"rt":3574.3150000926107,"response":{"pregunta5 likert":1},"question_order":[0],"trial_type":"survey-likert","trial_index":26,"time_elapsed":2208449,"internal_node_id":"0.0-5.0-21.0"},{"rt":123252.65999999829,"responses":"{\"pregunta2\":\"a) A la relación entre pensamiento y estructura social. \"}","question_order":"[0]","trial_type":"survey-multi-choice","trial_index":27,"time_elapsed":2331704,"internal_node_id":"0.0-5.0-22.0"},{"rt":2103.750000009313,"response":{"pregunta2 likert":2},"question_order":[0],"trial_type":"survey-likert","trial_index":28,"time_elapsed":2333809,"internal_node_id":"0.0-5.0-23.0"},{"rt":61737.54999996163,"responses":"{\"pregunta8\":\"c) Dar a conocer al ganador del premio Cervantes. \"}","question_order":"[0]","trial_type":"survey-multi-choice","trial_index":29,"time_elapsed":2395546,"internal_node_id":"0.0-5.0-24.0"},{"rt":3964.460000162944,"response":{"pregunta8 likert":3},"question_order":[0],"trial_type":"survey-likert","trial_index":30,"time_elapsed":2399513,"internal_node_id":"0.0-5.0-25.0"},{"rt":293732.9500000924,"responses":"{\"pregunta10\":\"a) La biónica es una disciplina que aprovecha las condiciones del entorno. \"}","question_order":"[0]","trial_type":"survey-multi-choice","trial_index":31,"time_elapsed":2693248,"internal_node_id":"0.0-5.0-26.0"},{"rt":2028.7999999709427,"response":{"pregunta10 likert":2},"question_order":[0],"trial_type":"survey-likert","trial_index":32,"time_elapsed":2695279,"internal_node_id":"0.0-5.0-27.0"},{"rt":136463.0200001411,"responses":"{\"pregunta30\":\"b) la muerte es distinta en las grandes ciudades. \"}","question_order":"[0]","trial_type":"survey-multi-choice","trial_index":33,"time_elapsed":2831746,"internal_node_id":"0.0-5.0-28.0"},{"rt":1810.9900001436472,"response":{"pregunta30 likert":3},"question_order":[0],"trial_type":"survey-likert","trial_index":34,"time_elapsed":2833559,"internal_node_id":"0.0-5.0-29.0"},{"rt":65414.0999999363,"responses":"{\"pregunta28\":\"b) Se necesita un marco legal para delimitar lo público y lo privado en materia informativa. \"}","question_order":"[0]","trial_type":"survey-multi-choice","trial_index":35,"time_elapsed":2898972,"internal_node_id":"0.0-5.0-30.0"},{"rt":3589.2250000033528,"response":{"pregunta28 likert":2},"question_order":[0],"trial_type":"survey-likert","trial_index":36,"time_elapsed":2902563,"internal_node_id":"0.0-5.0-31.0"},{"rt":165828.28500005417,"responses":"{\"pregunta17\":\"b) Homenajear a quienes murieron. \"}","question_order":"[0]","trial_type":"survey-multi-choice","trial_index":37,"time_elapsed":3068391,"internal_node_id":"0.0-5.0-32.0"},{"rt":2606.660000048578,"response":{"pregunta17 likert":3},"question_order":[0],"trial_type":"survey-likert","trial_index":38,"time_elapsed":3071000,"internal_node_id":"0.0-5.0-33.0"},{"rt":205617.79000004753,"responses":"{\"pregunta19\":\"c) Las personas que leen son más flexibles en sus ideas y autónomas en su accionar. \"}","question_order":"[0]","trial_type":"survey-multi-choice","trial_index":39,"time_elapsed":3276625,"internal_node_id":"0.0-5.0-34.0"},{"rt":1719.9250000994653,"response":{"pregunta19 likert":2},"question_order":[0],"trial_type":"survey-likert","trial_index":40,"time_elapsed":3278347,"internal_node_id":"0.0-5.0-35.0"},{"rt":316116.06499995105,"responses":"{\"pregunta7\":\"b) La imprenta y el papel han permitido el desarrollo de la civilización y la conservación de su cultura, y ambos son inventos chinos. \"}","question_order":"[0]","trial_type":"survey-multi-choice","trial_index":41,"time_elapsed":3594463,"internal_node_id":"0.0-5.0-36.0"},{"rt":2926.4599999878556,"response":{"pregunta7 likert":1},"question_order":[0],"trial_type":"survey-likert","trial_index":42,"time_elapsed":3597391,"internal_node_id":"0.0-5.0-37.0"},{"rt":338115.73000019416,"responses":"{\"pregunta29\":\"a) la Muerte vaticina el futuro mediante gestos. \"}","question_order":"[0]","trial_type":"survey-multi-choice","trial_index":43,"time_elapsed":3935507,"internal_node_id":"0.0-5.0-38.0"},{"rt":3731.4549998845905,"response":{"pregunta29 likert":1},"question_order":[0],"trial_type":"survey-likert","trial_index":44,"time_elapsed":3939241,"internal_node_id":"0.0-5.0-39.0"},{"rt":1621089.1650000121,"responses":"{\"pregunta25\":\"b) sufren dolores de espalda. \"}","question_order":"[0]","trial_type":"survey-multi-choice","trial_index":45,"time_elapsed":5560332,"internal_node_id":"0.0-5.0-40.0"},{"rt":2575.124999973923,"response":{"pregunta25 likert":1},"question_order":[0],"trial_type":"survey-likert","trial_index":46,"time_elapsed":5562910,"internal_node_id":"0.0-5.0-41.0"},{"rt":146664.76000007242,"responses":"{\"pregunta3\":\"c) El inicio de la dinastía Chang. \"}","question_order":"[0]","trial_type":"survey-multi-choice","trial_index":47,"time_elapsed":5709579,"internal_node_id":"0.0-5.0-42.0"},{"rt":1876.7399999778718,"response":{"pregunta3 likert":3},"question_order":[0],"trial_type":"survey-likert","trial_index":48,"time_elapsed":5711458,"internal_node_id":"0.0-5.0-43.0"},{"rt":93314.6649999544,"responses":"{\"pregunta21\":\"a) el uranio es el elemento natural con el mayor número de protones en el núcleo. \"}","question_order":"[0]","trial_type":"survey-multi-choice","trial_index":49,"time_elapsed":5804773,"internal_node_id":"0.0-5.0-44.0"},{"rt":2012.17499980703,"response":{"pregunta21 likert":2},"question_order":[0],"trial_type":"survey-likert","trial_index":50,"time_elapsed":5806788,"internal_node_id":"0.0-5.0-45.0"},{"rt":115918.70000003837,"responses":"{\"pregunta18\":\"c) A la inutilidad de tanto esfuerzo si el objetivo es el reposo. \"}","question_order":"[0]","trial_type":"survey-multi-choice","trial_index":51,"time_elapsed":5922711,"internal_node_id":"0.0-5.0-46.0"},{"rt":5385.0700000766665,"response":{"pregunta18 likert":2},"question_order":[0],"trial_type":"survey-likert","trial_index":52,"time_elapsed":5928098,"internal_node_id":"0.0-5.0-47.0"},{"rt":75237.54000011832,"responses":"{\"pregunta23\":\"c) A la influencia de grupos que rechazaban su música. \"}","question_order":"[0]","trial_type":"survey-multi-choice","trial_index":53,"time_elapsed":6003337,"internal_node_id":"0.0-5.0-48.0"},{"rt":3052.614999935031,"response":{"pregunta23 likert":1},"question_order":[0],"trial_type":"survey-likert","trial_index":54,"time_elapsed":6006391,"internal_node_id":"0.0-5.0-49.0"},{"rt":206182.70000000484,"responses":"{\"pregunta6\":\"a) La aparición del Diccionario Académico ha sido polémica. \"}","question_order":"[0]","trial_type":"survey-multi-choice","trial_index":55,"time_elapsed":6212577,"internal_node_id":"0.0-5.0-50.0"},{"rt":3611.250000074506,"response":{"pregunta6 likert":2},"question_order":[0],"trial_type":"survey-likert","trial_index":56,"time_elapsed":6216191,"internal_node_id":"0.0-5.0-51.0"},{"rt":88455.67500009201,"responses":"{\"pregunta4\":\"c) En la literatura como en la vida, lo importante son las preguntas. \"}","question_order":"[0]","trial_type":"survey-multi-choice","trial_index":57,"time_elapsed":6304648,"internal_node_id":"0.0-5.0-52.0"},{"rt":2037.3750000726432,"response":{"pregunta4 likert":1},"question_order":[0],"trial_type":"survey-likert","trial_index":58,"time_elapsed":6306687,"internal_node_id":"0.0-5.0-53.0"},{"rt":236137.30500009842,"responses":"{\"pregunta16\":\"c) Provocar el deseo de la adquisición vertiginosa. \"}","question_order":"[0]","trial_type":"survey-multi-choice","trial_index":59,"time_elapsed":6542821,"internal_node_id":"0.0-5.0-54.0"},{"rt":1900.0450000166893,"response":{"pregunta16 likert":2},"question_order":[0],"trial_type":"survey-likert","trial_index":60,"time_elapsed":6544723,"internal_node_id":"0.0-5.0-55.0"},{"rt":83611.34499986656,"responses":"{\"pregunta20\":\"a) sólo las leyes bastan para gobernarse. \"}","question_order":"[0]","trial_type":"survey-multi-choice","trial_index":61,"time_elapsed":6628342,"internal_node_id":"0.0-5.0-56.0"},{"rt":1864.2799998633564,"response":{"pregunta20 likert":1},"question_order":[0],"trial_type":"survey-likert","trial_index":62,"time_elapsed":6630209,"internal_node_id":"0.0-5.0-57.0"},{"rt":431253.7799999118,"responses":"{\"pregunta27\":\"a) Nuestra economía vivirá un proceso de ajuste a la nueva realidad. \"}","question_order":"[0]","trial_type":"survey-multi-choice","trial_index":63,"time_elapsed":7061465,"internal_node_id":"0.0-5.0-58.0"},{"rt":3018.534999806434,"response":{"pregunta27 likert":1},"question_order":[0],"trial_type":"survey-likert","trial_index":64,"time_elapsed":7064485,"internal_node_id":"0.0-5.0-59.0"}]