[{"rt":67902.60000002384,"stimulus":"<h1 style=\"color:red; margin-top: 3%;\">¡Bienvenido(a)!</h1><p style=\"text-align:left; justify-content:space-between; margin-right: 5%; margin-left: 5%; margin-top: 5%\"> Antes de empezar el estudio, necesitamos que nos confirmes que estás de acuerdo con participar. Recuerda que tu participación es 100% voluntaria y que lo único que te pedimos es responder lo mejor que puedas. Recuerda también que el estudio incluye:</p><ol style=\"text-align:left; justify-content:space-between; margin-right: 5%; margin-left: 5%;\"><li> un ejercicio de resolución de preguntas de selección múltiple (30’),</li><li>un cuestionario breve (5’),</li><li>un juego muy breve (3’),</li></ol><p style=\"text-align:left; justify-content:space-between; margin-right: 5%; margin-left: 5%;\">Si quieres participar, haz clic en “Acepto” luego de leer lo siguiente:<br></p><p style=\"text-align:left; justify-content:space-between; margin-right: 5%; margin-left: 5%;\">Acepto participar en el estudio “Estrategias de lectura y resolución de preguntas de selección múltiple”, en los términos aquí señalados:<br></p><p style=\"text-align:left; justify-content:space-between; margin-right: 5%; margin-left: 5%;\"><a href=\"http://ciae.uchile.cl/download.php?file=noticias/Asentimiento.pdf\" target=\"_blank\">Link a la hoja de información del Consentimiento.</a></p><p style=\"text-align:left; justify-content:space-between; margin-right: 5%; margin-left: 5%;\">Declaro que he leído (o se me ha leído) y (he) comprendido, las condiciones de mi participación en este estudio. He tenido la oportunidad de hacer preguntas y éstas han sido respondidas. No tengo dudas al respecto.</p>","response":0,"condicion_MCQ":4,"condicion_INTER":16,"numero_participante":16,"numero_version":1,"dimx":1536,"dimy":864,"color_profundidad":24,"pixel_profundidad":24,"Browser":"Google Chrome","trial_type":"html-button-response","trial_index":0,"time_elapsed":67905,"internal_node_id":"0.0-0.0"},{"success":true,"trial_type":"fullscreen","trial_index":1,"time_elapsed":75842,"internal_node_id":"0.0-1.0"},{"rt":84790.90000009537,"responses":"{\"Nombres\":\"Alfonso Ignacio\",\"Apellidos\":\"Contreras Sáez\",\"Edad\":\"24\",\"Sexo\":\"hombre\",\"Curso\":\"Primer año\",\"Colegio\":\"Unab\",\"Contacto\":\"a.contrerassaez1@uandresbello.edu\"}","trial_type":"survey-text","trial_index":2,"time_elapsed":160648,"internal_node_id":"0.0-2.0"},{"success":true,"timeout":false,"failed_images":[],"failed_audio":[],"failed_video":[],"trial_type":"preload","trial_index":3,"time_elapsed":161516,"internal_node_id":"0.0-3.0"},{"rt":17985.700000047684,"stimulus":"<h1 style:\"margin-top: 5%;\">Ejercicios de Comprensión de Lectura de la Universidad de Chile</h1><p style=\"font-size: 120%;\">En esta actividad, debes responder 30 preguntas de selección múltiple. Cada pregunta presenta 3 respuestas alternativas, pero sólo una de ellas es correcta. Por lo tanto, debes escoger una sola alternativa para cada pregunta. Además, debes reportar qué tan seguro(a) estás de la respuesta que das, con un:</p><ol style=\"font-size: 120%;text-align:left;margin-left: 40%;\"><li>No estoy seguro(a) para nada</li><li>No estoy muy seguro(a)</li><li>Estoy bastante seguro(a)</li><li>Estoy totalmente seguro(a)</li></ol><p style=\"font-size: 120%;\">Por favor lee bien los enunciados antes de responder. ¡Éxito!</p>","response":0,"trial_type":"html-button-response","trial_index":4,"time_elapsed":179503,"internal_node_id":"0.0-4.0"},{"rt":69107.39999997616,"responses":"{\"pregunta14\":\"a) preparar los recuerdos del mañana. \"}","question_order":"[0]","trial_type":"survey-multi-choice","trial_index":5,"time_elapsed":248612,"internal_node_id":"0.0-5.0-0.0"},{"rt":4501.200000047684,"response":{"pregunta14 likert":1},"question_order":[0],"trial_type":"survey-likert","trial_index":6,"time_elapsed":253115,"internal_node_id":"0.0-5.0-1.0"},{"rt":122097.20000004768,"responses":"{\"pregunta18\":\"b) A la inutilidad de tanto esfuerzo si el objetivo es el reposo. \"}","question_order":"[0]","trial_type":"survey-multi-choice","trial_index":7,"time_elapsed":375212,"internal_node_id":"0.0-5.0-2.0"},{"rt":2386.5,"response":{"pregunta18 likert":0},"question_order":[0],"trial_type":"survey-likert","trial_index":8,"time_elapsed":377600,"internal_node_id":"0.0-5.0-3.0"},{"rt":94645.80000007153,"responses":"{\"pregunta11\":\"a) Promover la asistencia a un evento específico de decoración a través de una atractiva descripción. \"}","question_order":"[0]","trial_type":"survey-multi-choice","trial_index":9,"time_elapsed":472249,"internal_node_id":"0.0-5.0-4.0"},{"rt":1877.5,"response":{"pregunta11 likert":2},"question_order":[0],"trial_type":"survey-likert","trial_index":10,"time_elapsed":474128,"internal_node_id":"0.0-5.0-5.0"},{"rt":132581.80000007153,"responses":"{\"pregunta9\":\"a) pueden rendir exámenes para optar y obtener títulos profesionales igual que los hombres. \"}","question_order":"[0]","trial_type":"survey-multi-choice","trial_index":11,"time_elapsed":606711,"internal_node_id":"0.0-5.0-6.0"},{"rt":4129.299999952316,"response":{"pregunta9 likert":2},"question_order":[0],"trial_type":"survey-likert","trial_index":12,"time_elapsed":610843,"internal_node_id":"0.0-5.0-7.0"},{"rt":85894.10000002384,"responses":"{\"pregunta26\":\"a) para Aristóteles la virtud estaba en el justo equilibrio. \"}","question_order":"[0]","trial_type":"survey-multi-choice","trial_index":13,"time_elapsed":696740,"internal_node_id":"0.0-5.0-8.0"},{"rt":1810.6000000238419,"response":{"pregunta26 likert":3},"question_order":[0],"trial_type":"survey-likert","trial_index":14,"time_elapsed":698552,"internal_node_id":"0.0-5.0-9.0"},{"rt":59429,"responses":"{\"pregunta8\":\"c) Dar a conocer al ganador del premio Cervantes. \"}","question_order":"[0]","trial_type":"survey-multi-choice","trial_index":15,"time_elapsed":757983,"internal_node_id":"0.0-5.0-10.0"},{"rt":1341.9000000953674,"response":{"pregunta8 likert":1},"question_order":[0],"trial_type":"survey-likert","trial_index":16,"time_elapsed":759327,"internal_node_id":"0.0-5.0-11.0"},{"rt":161178.10000002384,"responses":"{\"pregunta1\":\"a) Muestran las opiniones expuestas por los personajes en un relato. \"}","question_order":"[0]","trial_type":"survey-multi-choice","trial_index":17,"time_elapsed":920509,"internal_node_id":"0.0-5.0-12.0"},{"rt":1914.6000000238419,"response":{"pregunta1 likert":1},"question_order":[0],"trial_type":"survey-likert","trial_index":18,"time_elapsed":922425,"internal_node_id":"0.0-5.0-13.0"},{"rt":72350.10000002384,"responses":"{\"pregunta20\":\"c) el mejor emperador es el que está muerto. \"}","question_order":"[0]","trial_type":"survey-multi-choice","trial_index":19,"time_elapsed":994773,"internal_node_id":"0.0-5.0-14.0"},{"rt":2649.7000000476837,"response":{"pregunta20 likert":1},"question_order":[0],"trial_type":"survey-likert","trial_index":20,"time_elapsed":997425,"internal_node_id":"0.0-5.0-15.0"},{"rt":20090.5,"responses":"{\"pregunta16\":\"c) Provocar el deseo de la adquisición vertiginosa. \"}","question_order":"[0]","trial_type":"survey-multi-choice","trial_index":21,"time_elapsed":1017517,"internal_node_id":"0.0-5.0-16.0"},{"rt":2114.600000023842,"response":{"pregunta16 likert":2},"question_order":[0],"trial_type":"survey-likert","trial_index":22,"time_elapsed":1019633,"internal_node_id":"0.0-5.0-17.0"},{"rt":81678.19999992847,"responses":"{\"pregunta10\":\"b) La biónica puede asegurar nuestra existencia mediante la aplicación de técnicas copiadas de la naturaleza. \"}","question_order":"[0]","trial_type":"survey-multi-choice","trial_index":23,"time_elapsed":1101316,"internal_node_id":"0.0-5.0-18.0"},{"rt":1293.6000000238419,"response":{"pregunta10 likert":2},"question_order":[0],"trial_type":"survey-likert","trial_index":24,"time_elapsed":1102611,"internal_node_id":"0.0-5.0-19.0"},{"rt":74458.29999995232,"responses":"{\"pregunta29\":\"c) el jardinero estará muerto al día siguiente. \"}","question_order":"[0]","trial_type":"survey-multi-choice","trial_index":25,"time_elapsed":1177070,"internal_node_id":"0.0-5.0-20.0"},{"rt":1922.1000000238419,"response":{"pregunta29 likert":0},"question_order":[0],"trial_type":"survey-likert","trial_index":26,"time_elapsed":1178994,"internal_node_id":"0.0-5.0-21.0"},{"rt":77318.60000002384,"responses":"{\"pregunta4\":\"c) En la literatura como en la vida, lo importante son las preguntas. \"}","question_order":"[0]","trial_type":"survey-multi-choice","trial_index":27,"time_elapsed":1256313,"internal_node_id":"0.0-5.0-22.0"},{"rt":2594.100000023842,"response":{"pregunta4 likert":1},"question_order":[0],"trial_type":"survey-likert","trial_index":28,"time_elapsed":1258909,"internal_node_id":"0.0-5.0-23.0"},{"rt":329230,"responses":"{\"pregunta25\":\"c) tienen dificultades durante el parto. \"}","question_order":"[0]","trial_type":"survey-multi-choice","trial_index":29,"time_elapsed":1588139,"internal_node_id":"0.0-5.0-24.0"},{"rt":1298.6000000238419,"response":{"pregunta25 likert":0},"question_order":[0],"trial_type":"survey-likert","trial_index":30,"time_elapsed":1589440,"internal_node_id":"0.0-5.0-25.0"},{"rt":202625.79999995232,"responses":"{\"pregunta17\":\"b) Homenajear a quienes murieron. \"}","question_order":"[0]","trial_type":"survey-multi-choice","trial_index":31,"time_elapsed":1792070,"internal_node_id":"0.0-5.0-26.0"},{"rt":2307,"response":{"pregunta17 likert":2},"question_order":[0],"trial_type":"survey-likert","trial_index":32,"time_elapsed":1794379,"internal_node_id":"0.0-5.0-27.0"},{"rt":209190.10000002384,"responses":"{\"pregunta12\":\"b) se da como existente, y sólo se discute su relación con el cuerpo. \"}","question_order":"[0]","trial_type":"survey-multi-choice","trial_index":33,"time_elapsed":2003571,"internal_node_id":"0.0-5.0-28.0"},{"rt":1530.6000000238419,"response":{"pregunta12 likert":1},"question_order":[0],"trial_type":"survey-likert","trial_index":34,"time_elapsed":2005104,"internal_node_id":"0.0-5.0-29.0"},{"rt":112809.69999992847,"responses":"{\"pregunta2\":\"a) A la relación entre pensamiento y estructura social. \"}","question_order":"[0]","trial_type":"survey-multi-choice","trial_index":35,"time_elapsed":2117909,"internal_node_id":"0.0-5.0-30.0"},{"rt":1262.6000000238419,"response":{"pregunta2 likert":1},"question_order":[0],"trial_type":"survey-likert","trial_index":36,"time_elapsed":2119173,"internal_node_id":"0.0-5.0-31.0"},{"rt":101086.89999997616,"responses":"{\"pregunta13\":\"c) El ser humano se comporta de acuerdo con las circunstancias. \"}","question_order":"[0]","trial_type":"survey-multi-choice","trial_index":37,"time_elapsed":2220263,"internal_node_id":"0.0-5.0-32.0"},{"rt":1566.6000000238419,"response":{"pregunta13 likert":1},"question_order":[0],"trial_type":"survey-likert","trial_index":38,"time_elapsed":2221831,"internal_node_id":"0.0-5.0-33.0"},{"rt":79973.90000009537,"responses":"{\"pregunta3\":\"b) El inicio de la civilización china. \"}","question_order":"[0]","trial_type":"survey-multi-choice","trial_index":39,"time_elapsed":2301810,"internal_node_id":"0.0-5.0-34.0"},{"rt":1214.5,"response":{"pregunta3 likert":0},"question_order":[0],"trial_type":"survey-likert","trial_index":40,"time_elapsed":2303026,"internal_node_id":"0.0-5.0-35.0"},{"rt":126350.10000002384,"responses":"{\"pregunta7\":\"b) La imprenta y el papel han permitido el desarrollo de la civilización y la conservación de su cultura, y ambos son inventos chinos. \"}","question_order":"[0]","trial_type":"survey-multi-choice","trial_index":41,"time_elapsed":2429374,"internal_node_id":"0.0-5.0-36.0"},{"rt":1118.3999999761581,"response":{"pregunta7 likert":1},"question_order":[0],"trial_type":"survey-likert","trial_index":42,"time_elapsed":2430495,"internal_node_id":"0.0-5.0-37.0"},{"rt":46522.200000047684,"responses":"{\"pregunta27\":\"c) El TLC causará una completa transformación de la economía chilena. \"}","question_order":"[0]","trial_type":"survey-multi-choice","trial_index":43,"time_elapsed":2477020,"internal_node_id":"0.0-5.0-38.0"},{"rt":1393.8999999761581,"response":{"pregunta27 likert":1},"question_order":[0],"trial_type":"survey-likert","trial_index":44,"time_elapsed":2478416,"internal_node_id":"0.0-5.0-39.0"},{"rt":128102.39999997616,"responses":"{\"pregunta15\":\"a) ritualistas y obsesivos. \"}","question_order":"[0]","trial_type":"survey-multi-choice","trial_index":45,"time_elapsed":2606519,"internal_node_id":"0.0-5.0-40.0"},{"rt":1166.5,"response":{"pregunta15 likert":1},"question_order":[0],"trial_type":"survey-likert","trial_index":46,"time_elapsed":2607688,"internal_node_id":"0.0-5.0-41.0"},{"rt":133642.30000007153,"responses":"{\"pregunta24\":\"b) El receptor es habitualmente pasivo frente a la publicidad. \"}","question_order":"[0]","trial_type":"survey-multi-choice","trial_index":47,"time_elapsed":2741329,"internal_node_id":"0.0-5.0-42.0"},{"rt":2149.399999976158,"response":{"pregunta24 likert":1},"question_order":[0],"trial_type":"survey-likert","trial_index":48,"time_elapsed":2743480,"internal_node_id":"0.0-5.0-43.0"},{"rt":27687.100000023842,"responses":"{\"pregunta30\":\"a) para el mexicano, la muerte es cotidiana. \"}","question_order":"[0]","trial_type":"survey-multi-choice","trial_index":49,"time_elapsed":2771169,"internal_node_id":"0.0-5.0-44.0"},{"rt":2697.899999976158,"response":{"pregunta30 likert":2},"question_order":[0],"trial_type":"survey-likert","trial_index":50,"time_elapsed":2773871,"internal_node_id":"0.0-5.0-45.0"},{"rt":44770.90000009537,"responses":"{\"pregunta22\":\"b) Bomberos debería tener acceso a un seguro médico, al que pueda recurrir en caso de accidente. \"}","question_order":"[0]","trial_type":"survey-multi-choice","trial_index":51,"time_elapsed":2818643,"internal_node_id":"0.0-5.0-46.0"},{"rt":1826.5,"response":{"pregunta22 likert":3},"question_order":[0],"trial_type":"survey-likert","trial_index":52,"time_elapsed":2820471,"internal_node_id":"0.0-5.0-47.0"},{"rt":131654.09999990463,"responses":"{\"pregunta21\":\"c) la creación de elementos químicos artificiales ha resultado de la manipulación del uranio. \"}","question_order":"[0]","trial_type":"survey-multi-choice","trial_index":53,"time_elapsed":2952132,"internal_node_id":"0.0-5.0-48.0"},{"rt":1310.2000000476837,"response":{"pregunta21 likert":1},"question_order":[0],"trial_type":"survey-likert","trial_index":54,"time_elapsed":2953444,"internal_node_id":"0.0-5.0-49.0"},{"rt":1052424.5,"responses":"{\"pregunta5\":\"a) En los viajes es esencial el momento mismo de la escritura. \"}","question_order":"[0]","trial_type":"survey-multi-choice","trial_index":55,"time_elapsed":4005870,"internal_node_id":"0.0-5.0-50.0"},{"rt":1951,"response":{"pregunta5 likert":1},"question_order":[0],"trial_type":"survey-likert","trial_index":56,"time_elapsed":4007822,"internal_node_id":"0.0-5.0-51.0"},{"rt":116918.70000004768,"responses":"{\"pregunta6\":\"c) Las voces extranjeras viven una tensión entre la aceptación y el rechazo. \"}","question_order":"[0]","trial_type":"survey-multi-choice","trial_index":57,"time_elapsed":4124743,"internal_node_id":"0.0-5.0-52.0"},{"rt":2226.2000000476837,"response":{"pregunta6 likert":1},"question_order":[0],"trial_type":"survey-likert","trial_index":58,"time_elapsed":4126971,"internal_node_id":"0.0-5.0-53.0"},{"rt":178345.60000002384,"responses":"{\"pregunta19\":\"c) Las personas que leen son más flexibles en sus ideas y autónomas en su accionar. \"}","question_order":"[0]","trial_type":"survey-multi-choice","trial_index":59,"time_elapsed":4305318,"internal_node_id":"0.0-5.0-54.0"},{"rt":2041.8999999761581,"response":{"pregunta19 likert":2},"question_order":[0],"trial_type":"survey-likert","trial_index":60,"time_elapsed":4307362,"internal_node_id":"0.0-5.0-55.0"},{"rt":66046.89999997616,"responses":"{\"pregunta23\":\"c) A la influencia de grupos que rechazaban su música. \"}","question_order":"[0]","trial_type":"survey-multi-choice","trial_index":61,"time_elapsed":4373410,"internal_node_id":"0.0-5.0-56.0"},{"rt":1794.8000000715256,"response":{"pregunta23 likert":1},"question_order":[0],"trial_type":"survey-likert","trial_index":62,"time_elapsed":4375207,"internal_node_id":"0.0-5.0-57.0"},{"rt":58653.700000047684,"responses":"{\"pregunta28\":\"b) Se necesita un marco legal para delimitar lo público y lo privado en materia informativa. \"}","question_order":"[0]","trial_type":"survey-multi-choice","trial_index":63,"time_elapsed":4433862,"internal_node_id":"0.0-5.0-58.0"},{"rt":2470,"response":{"pregunta28 likert":2},"question_order":[0],"trial_type":"survey-likert","trial_index":64,"time_elapsed":4436334,"internal_node_id":"0.0-5.0-59.0"},{"rt":3890.7000000476837,"stimulus":"<p style=\"font-size: 120%\">Gracias por completar esta etapa del estudio. Ahora te invitamos a responder el cuestionario.<br><br></p>","response":0,"trial_type":"html-button-response","trial_index":65,"time_elapsed":4440231,"internal_node_id":"0.0-6.0"},{"rt":43269.699999928474,"stimulus":"<h1 style=\"margin-top: 5%\">Cuestionario para la Evaluación de Metas Académicas</h1><p style=\"font-size: 120%; margin-left: 3%; margin-top: 5%\">Este es un cuestionario que permite conocer cuáles son los principales motivos por los que los estudiantes se esfuerzan en su trabajo académico. A continuación, se te presentarán una serie de afirmaciones acerca de los motivos que puedes tener para estudiar.<br>Te pedimos que contestes a dichas afirmaciones reflexionando sobre el contenido de cada una de ellas, que, aunque te parezcan semejantes, en realidad, no lo son.<br>NO HAY RESPUESTAS CORRECTAS o INCORRECTAS, sólo queremos que respondas con la mayor precisión y sinceridad posible a las preguntas que se plantean.","response":0,"trial_type":"html-button-response","trial_index":66,"time_elapsed":4483502,"internal_node_id":"0.0-7.0"},{"rt":128102.39999997616,"response":{"Metas cuestionario pregunta1":3,"Metas cuestionario pregunta2":4,"Metas cuestionario pregunta3":4,"Metas cuestionario pregunta4":2,"Metas cuestionario pregunta5":3,"Metas cuestionario pregunta6":2,"Metas cuestionario pregunta7":3,"Metas cuestionario pregunta8":1,"Metas cuestionario pregunta9":3,"Metas cuestionario pregunta10":2,"Metas cuestionario pregunta11":1,"Metas cuestionario pregunta12":2,"Metas cuestionario pregunta13":2,"Metas cuestionario pregunta14":1,"Metas cuestionario pregunta15":3,"Metas cuestionario pregunta16":4,"Metas cuestionario pregunta17":4,"Metas cuestionario pregunta18":3,"Metas cuestionario pregunta19":3,"Metas cuestionario pregunta20":3},"question_order":[0,1,2,3,4,5,6,7,8,9,10,11,12,13,14,15,16,17,18,19],"trial_type":"survey-likert","trial_index":67,"time_elapsed":4611609,"internal_node_id":"0.0-8.0"},{"rt":3230.3000000715256,"stimulus":"<p style=\"font-size: 120%\">Gracias por responder el cuestionario. Ahora te invitamos a seguir con el juego, que es muy breve.<br><br></p>","response":0,"trial_type":"html-button-response","trial_index":68,"time_elapsed":4614842,"internal_node_id":"0.0-9.0"},{"rt":12646.299999952316,"stimulus":"<h1>Juego</h1><p style=\"font-size: 120%;\">A continuación se te presentarán 16 pequeñas historias.<br>Por favor lee el texto presentado en cada una de ellas y luego haz click en el objeto de tu elección.<br>Si estás listo(a),<span style=\"color:red;\"> haz click en \"comenzar\"</span>.</p>","response":0,"trial_type":"html-button-response","trial_index":69,"time_elapsed":4627490,"internal_node_id":"0.0-10.0"},{"rt":8376.5,"grid":[[1,1,1]],"target":[0,2],"response":[0,1],"correct":false,"juego":1,"trial_type":"serial-reaction-time-mouse","trial_index":70,"time_elapsed":4635868,"internal_node_id":"0.0-11.0-0.0"},{"rt":12278,"grid":[[1,1,1],[1,1,1],[1,1,1],[1,1,1],[1,1,1],[1,1,1],[1,1,1]],"target":[0,0],"response":[1,1],"correct":false,"juego":6,"trial_type":"serial-reaction-time-mouse","trial_index":71,"time_elapsed":4648149,"internal_node_id":"0.0-11.0-1.0"},{"rt":23003.5,"grid":[[1,1,1]],"target":[0,0],"response":[0,2],"correct":false,"juego":11,"trial_type":"serial-reaction-time-mouse","trial_index":72,"time_elapsed":4671153,"internal_node_id":"0.0-11.0-2.0"},{"rt":6864.200000047684,"grid":[[1,1,1]],"target":[0,2],"response":[0,0],"correct":false,"juego":8,"trial_type":"serial-reaction-time-mouse","trial_index":73,"time_elapsed":4678019,"internal_node_id":"0.0-11.0-3.0"},{"rt":9552.400000095367,"grid":[[1,1,1]],"target":[0,2],"response":[0,1],"correct":false,"juego":7,"trial_type":"serial-reaction-time-mouse","trial_index":74,"time_elapsed":4687573,"internal_node_id":"0.0-11.0-4.0"},{"rt":15485.799999952316,"grid":[[1,1,1]],"target":[0,0],"response":[0,2],"correct":false,"juego":12,"trial_type":"serial-reaction-time-mouse","trial_index":75,"time_elapsed":4703061,"internal_node_id":"0.0-11.0-5.0"},{"rt":8056.200000047684,"grid":[[1],[1],[1]],"target":[0,2],"response":[1,0],"correct":false,"juego":4,"trial_type":"serial-reaction-time-mouse","trial_index":76,"time_elapsed":4711118,"internal_node_id":"0.0-11.0-6.0"},{"rt":7588.700000047684,"grid":[[1,1,1]],"target":[0,0],"response":[0,2],"correct":false,"juego":9,"trial_type":"serial-reaction-time-mouse","trial_index":77,"time_elapsed":4718708,"internal_node_id":"0.0-11.0-7.0"},{"rt":15240,"grid":[[1,1],[1,1],[1,1],[1,1],[1,1],[1,1],[1,1]],"target":[0,0],"response":[5,1],"correct":false,"juego":15,"trial_type":"serial-reaction-time-mouse","trial_index":78,"time_elapsed":4733951,"internal_node_id":"0.0-11.0-8.0"},{"rt":12093.5,"grid":[[1,1,1]],"target":[0,2],"response":[0,2],"correct":true,"juego":2,"trial_type":"serial-reaction-time-mouse","trial_index":79,"time_elapsed":4746046,"internal_node_id":"0.0-11.0-9.0"},{"rt":10826.199999928474,"grid":[[1,1],[1,1],[1,1],[1,1],[1,1],[1,1],[1,1]],"target":[0,0],"response":[5,1],"correct":false,"juego":14,"trial_type":"serial-reaction-time-mouse","trial_index":80,"time_elapsed":4756875,"internal_node_id":"0.0-11.0-10.0"},{"rt":8821.200000047684,"grid":[[1,1,1],[1,1,1],[1,1,1]],"target":[0,0],"response":[1,0],"correct":false,"juego":10,"trial_type":"serial-reaction-time-mouse","trial_index":81,"time_elapsed":4765697,"internal_node_id":"0.0-11.0-11.0"},{"rt":8402.100000023842,"grid":[[1,1,1]],"target":[0,2],"response":[0,1],"correct":false,"juego":3,"trial_type":"serial-reaction-time-mouse","trial_index":82,"time_elapsed":4774100,"internal_node_id":"0.0-11.0-12.0"},{"rt":12906.900000095367,"grid":[[1],[1],[1],[1],[1],[1]],"target":[0,0],"response":[0,0],"correct":true,"juego":5,"trial_type":"serial-reaction-time-mouse","trial_index":83,"time_elapsed":4787008,"internal_node_id":"0.0-11.0-13.0"},{"rt":11062.5,"grid":[[1,1,1],[1,1,1],[1,1,1],[1,1,1],[1,1,1],[1,1,1],[1,1,1]],"target":[0,0],"response":[3,1],"correct":false,"juego":13,"trial_type":"serial-reaction-time-mouse","trial_index":84,"time_elapsed":4798073,"internal_node_id":"0.0-11.0-14.0"}]