[{"rt":16701.79999998072,"stimulus":"<h1 style=\"color:red; margin-top: 3%;\">¡Bienvenido(a)!</h1><p style=\"text-align:left; justify-content:space-between; margin-right: 5%; margin-left: 5%; margin-top: 5%\"> Antes de empezar el estudio, necesitamos que nos confirmes que estás de acuerdo con participar. Recuerda que tu participación es 100% voluntaria y que lo único que te pedimos es responder lo mejor que puedas. Recuerda también que el estudio incluye:</p><ol style=\"text-align:left; justify-content:space-between; margin-right: 5%; margin-left: 5%;\"><li> un ejercicio de resolución de preguntas de selección múltiple (30’),</li><li>un cuestionario breve (5’),</li><li>un juego muy breve (3’),</li></ol><p style=\"text-align:left; justify-content:space-between; margin-right: 5%; margin-left: 5%;\">Si quieres participar, haz clic en “Acepto” luego de leer lo siguiente:<br></p><p style=\"text-align:left; justify-content:space-between; margin-right: 5%; margin-left: 5%;\">Acepto participar en el estudio “Estrategias de lectura y resolución de preguntas de selección múltiple”, en los términos aquí señalados:<br></p><p style=\"text-align:left; justify-content:space-between; margin-right: 5%; margin-left: 5%;\"><a href=\"http://ciae.uchile.cl/download.php?file=noticias/Asentimiento.pdf\" target=\"_blank\">Link a la hoja de información del Consentimiento.</a></p><p style=\"text-align:left; justify-content:space-between; margin-right: 5%; margin-left: 5%;\">Declaro que he leído (o se me ha leído) y (he) comprendido, las condiciones de mi participación en este estudio. He tenido la oportunidad de hacer preguntas y éstas han sido respondidas. No tengo dudas al respecto.</p>","response":0,"condicion_MCQ":3,"condicion_INTER":9,"numero_participante":57,"numero_version":1,"dimx":393,"dimy":873,"color_profundidad":24,"pixel_profundidad":24,"Browser":"Google Chrome","trial_type":"html-button-response","trial_index":0,"time_elapsed":16724,"internal_node_id":"0.0-0.0"},{"success":true,"trial_type":"fullscreen","trial_index":1,"time_elapsed":21847,"internal_node_id":"0.0-1.0"},{"rt":34564.50000000768,"responses":"{\"Nombres\":\"Renato Joaquin\",\"Apellidos\":\"Contreras Figueroa\",\"Edad\":\"19\",\"Sexo\":\"hombre\",\"Curso\":\"neurobiologia\",\"Colegio\":\"unab\",\"Contacto\":\"renato.contrerasf@gmail.com\"}","trial_type":"survey-text","trial_index":2,"time_elapsed":56467,"internal_node_id":"0.0-2.0"},{"success":true,"timeout":false,"failed_images":[],"failed_audio":[],"failed_video":[],"trial_type":"preload","trial_index":3,"time_elapsed":58531,"internal_node_id":"0.0-3.0"},{"rt":33448.99999999325,"stimulus":"<h1 style:\"margin-top: 5%;\">Ejercicios de Comprensión de Lectura de la Universidad de Chile</h1><p style=\"font-size: 120%;\">En esta actividad, debes responder 30 preguntas de selección múltiple. Cada pregunta presenta 3 respuestas alternativas, pero sólo una de ellas es correcta. Por lo tanto, debes escoger una sola alternativa para cada pregunta. Además, debes reportar qué tan seguro(a) estás de la respuesta que das, con un:</p><ol style=\"font-size: 120%;text-align:left;margin-left: 40%;\"><li>No estoy seguro(a) para nada</li><li>No estoy muy seguro(a)</li><li>Estoy bastante seguro(a)</li><li>Estoy totalmente seguro(a)</li></ol><p style=\"font-size: 120%;\">Por favor lee bien los enunciados antes de responder. ¡Éxito!</p>","response":0,"trial_type":"html-button-response","trial_index":4,"time_elapsed":91987,"internal_node_id":"0.0-4.0"},{"rt":63685.40000001667,"responses":"{\"pregunta14\":\"b) la persistencia de la melancolía y la desesperanza. \"}","question_order":"[0]","trial_type":"survey-multi-choice","trial_index":5,"time_elapsed":155683,"internal_node_id":"0.0-5.0-0.0"},{"rt":3825.8999999961816,"response":{"pregunta14 likert":2},"question_order":[0],"trial_type":"survey-likert","trial_index":6,"time_elapsed":159522,"internal_node_id":"0.0-5.0-1.0"},{"rt":41135.70000001346,"responses":"{\"pregunta1\":\"b) Muestran las opiniones expuestas por los personajes en un relato. \"}","question_order":"[0]","trial_type":"survey-multi-choice","trial_index":7,"time_elapsed":200670,"internal_node_id":"0.0-5.0-2.0"},{"rt":1177.9000000096858,"response":{"pregunta1 likert":2},"question_order":[0],"trial_type":"survey-likert","trial_index":8,"time_elapsed":201857,"internal_node_id":"0.0-5.0-3.0"},{"rt":3339.499999972759,"responses":"{\"pregunta9\":\"c) pueden rendir exámenes para optar y obtener títulos profesionales igual que los hombres. \"}","question_order":"[0]","trial_type":"survey-multi-choice","trial_index":9,"time_elapsed":205206,"internal_node_id":"0.0-5.0-4.0"},{"rt":1446.8000000051688,"response":{"pregunta9 likert":1},"question_order":[0],"trial_type":"survey-likert","trial_index":10,"time_elapsed":206663,"internal_node_id":"0.0-5.0-5.0"},{"rt":2507.6000000117347,"responses":"{\"pregunta23\":\"c) A la temática satánica de las canciones del grupo. \"}","question_order":"[0]","trial_type":"survey-multi-choice","trial_index":11,"time_elapsed":209183,"internal_node_id":"0.0-5.0-6.0"},{"rt":1087.100000004284,"response":{"pregunta23 likert":1},"question_order":[0],"trial_type":"survey-likert","trial_index":12,"time_elapsed":210278,"internal_node_id":"0.0-5.0-7.0"},{"rt":2448.400000022957,"responses":"{\"pregunta26\":\"a) el sujeto sufre con su modo de vida. \"}","question_order":"[0]","trial_type":"survey-multi-choice","trial_index":13,"time_elapsed":212736,"internal_node_id":"0.0-5.0-8.0"},{"rt":1192.6000000094064,"response":{"pregunta26 likert":2},"question_order":[0],"trial_type":"survey-likert","trial_index":14,"time_elapsed":213938,"internal_node_id":"0.0-5.0-9.0"},{"rt":1517.8000000014435,"responses":"{\"pregunta2\":\"c) A la relación entre pensamiento y estructura social. \"}","question_order":"[0]","trial_type":"survey-multi-choice","trial_index":15,"time_elapsed":215465,"internal_node_id":"0.0-5.0-10.0"},{"rt":1629.7999999951571,"response":{"pregunta2 likert":1},"question_order":[0],"trial_type":"survey-likert","trial_index":16,"time_elapsed":217103,"internal_node_id":"0.0-5.0-11.0"},{"rt":2005.700000008801,"responses":"{\"pregunta16\":\"b) Provocar el deseo de la adquisición vertiginosa. \"}","question_order":"[0]","trial_type":"survey-multi-choice","trial_index":17,"time_elapsed":219118,"internal_node_id":"0.0-5.0-12.0"},{"rt":1235.6999999901745,"response":{"pregunta16 likert":2},"question_order":[0],"trial_type":"survey-likert","trial_index":18,"time_elapsed":220363,"internal_node_id":"0.0-5.0-13.0"},{"rt":2338.499999983469,"responses":"{\"pregunta6\":\"a) Las personas escandalosas constantemente critican a la Academia. \"}","question_order":"[0]","trial_type":"survey-multi-choice","trial_index":19,"time_elapsed":222710,"internal_node_id":"0.0-5.0-14.0"},{"rt":949.6999999973923,"response":{"pregunta6 likert":2},"question_order":[0],"trial_type":"survey-likert","trial_index":20,"time_elapsed":223671,"internal_node_id":"0.0-5.0-15.0"},{"rt":2589.399999997113,"responses":"{\"pregunta7\":\"b) Si desaparecieran el papel y la imprenta, se produciría un gran retraso en nuestra civilización. \"}","question_order":"[0]","trial_type":"survey-multi-choice","trial_index":21,"time_elapsed":226271,"internal_node_id":"0.0-5.0-16.0"},{"rt":973.2000000076368,"response":{"pregunta7 likert":2},"question_order":[0],"trial_type":"survey-likert","trial_index":22,"time_elapsed":227253,"internal_node_id":"0.0-5.0-17.0"},{"rt":1633.4999999962747,"responses":"{\"pregunta29\":\"a) el jardinero era un hombre viejo. \"}","question_order":"[0]","trial_type":"survey-multi-choice","trial_index":23,"time_elapsed":228898,"internal_node_id":"0.0-5.0-18.0"},{"rt":1137.5000000116415,"response":{"pregunta29 likert":0},"question_order":[0],"trial_type":"survey-likert","trial_index":24,"time_elapsed":230044,"internal_node_id":"0.0-5.0-19.0"},{"rt":1786.4999999874271,"responses":"{\"pregunta25\":\"c) tienen dificultades durante el parto. \"}","question_order":"[0]","trial_type":"survey-multi-choice","trial_index":25,"time_elapsed":231840,"internal_node_id":"0.0-5.0-20.0"},{"rt":1307.6000000000931,"response":{"pregunta25 likert":0},"question_order":[0],"trial_type":"survey-likert","trial_index":26,"time_elapsed":233159,"internal_node_id":"0.0-5.0-21.0"},{"rt":1662.2999999963213,"responses":"{\"pregunta12\":\"b) es una noción que obedece a una visión pesimista de la vida. \"}","question_order":"[0]","trial_type":"survey-multi-choice","trial_index":27,"time_elapsed":234829,"internal_node_id":"0.0-5.0-22.0"},{"rt":1053.1000000191852,"response":{"pregunta12 likert":2},"question_order":[0],"trial_type":"survey-likert","trial_index":28,"time_elapsed":235893,"internal_node_id":"0.0-5.0-23.0"},{"rt":1646.2000000174157,"responses":"{\"pregunta20\":\"b) el mejor emperador es el que está muerto. \"}","question_order":"[0]","trial_type":"survey-multi-choice","trial_index":29,"time_elapsed":237549,"internal_node_id":"0.0-5.0-24.0"},{"rt":1069.3999999784864,"response":{"pregunta20 likert":1},"question_order":[0],"trial_type":"survey-likert","trial_index":30,"time_elapsed":238628,"internal_node_id":"0.0-5.0-25.0"},{"rt":2109.299999981886,"responses":"{\"pregunta10\":\"b) La biónica es una disciplina que tiene su origen en la ecología. \"}","question_order":"[0]","trial_type":"survey-multi-choice","trial_index":31,"time_elapsed":240746,"internal_node_id":"0.0-5.0-26.0"},{"rt":951.9000000145752,"response":{"pregunta10 likert":2},"question_order":[0],"trial_type":"survey-likert","trial_index":32,"time_elapsed":241707,"internal_node_id":"0.0-5.0-27.0"},{"rt":2002.600000007078,"responses":"{\"pregunta4\":\"a) Las personas importantes comparten el gusto por la literatura. \"}","question_order":"[0]","trial_type":"survey-multi-choice","trial_index":33,"time_elapsed":243719,"internal_node_id":"0.0-5.0-28.0"},{"rt":1134.3999999808148,"response":{"pregunta4 likert":0},"question_order":[0],"trial_type":"survey-likert","trial_index":34,"time_elapsed":244863,"internal_node_id":"0.0-5.0-29.0"},{"rt":1814.0999999886844,"responses":"{\"pregunta5\":\"c) La escritura plasma los mejores momentos de los viajes. \"}","question_order":"[0]","trial_type":"survey-multi-choice","trial_index":35,"time_elapsed":246685,"internal_node_id":"0.0-5.0-30.0"},{"rt":799.1000000038184,"response":{"pregunta5 likert":2},"question_order":[0],"trial_type":"survey-likert","trial_index":36,"time_elapsed":247494,"internal_node_id":"0.0-5.0-31.0"},{"rt":2157.8000000154134,"responses":"{\"pregunta11\":\"c) Promover la asistencia a un evento específico de decoración a través de una atractiva descripción. \"}","question_order":"[0]","trial_type":"survey-multi-choice","trial_index":37,"time_elapsed":249662,"internal_node_id":"0.0-5.0-32.0"},{"rt":1088.5000000125729,"response":{"pregunta11 likert":2},"question_order":[0],"trial_type":"survey-likert","trial_index":38,"time_elapsed":250760,"internal_node_id":"0.0-5.0-33.0"},{"rt":2823.499999998603,"responses":"{\"pregunta15\":\"a) hedonistas y soñadores. \"}","question_order":"[0]","trial_type":"survey-multi-choice","trial_index":39,"time_elapsed":253595,"internal_node_id":"0.0-5.0-34.0"},{"rt":1049.799999978859,"response":{"pregunta15 likert":2},"question_order":[0],"trial_type":"survey-likert","trial_index":40,"time_elapsed":254654,"internal_node_id":"0.0-5.0-35.0"},{"rt":1871.6000000131316,"responses":"{\"pregunta28\":\"b) La prensa tiene derecho a meter sus narices en todos lados. \"}","question_order":"[0]","trial_type":"survey-multi-choice","trial_index":41,"time_elapsed":256535,"internal_node_id":"0.0-5.0-36.0"},{"rt":910.7999999832828,"response":{"pregunta28 likert":2},"question_order":[0],"trial_type":"survey-likert","trial_index":42,"time_elapsed":257455,"internal_node_id":"0.0-5.0-37.0"},{"rt":1576.999999990221,"responses":"{\"pregunta17\":\"a) Homenajear a quienes murieron. \"}","question_order":"[0]","trial_type":"survey-multi-choice","trial_index":43,"time_elapsed":259042,"internal_node_id":"0.0-5.0-38.0"},{"rt":1012.700000021141,"response":{"pregunta17 likert":2},"question_order":[0],"trial_type":"survey-likert","trial_index":44,"time_elapsed":260063,"internal_node_id":"0.0-5.0-39.0"},{"rt":1307.9999999899883,"responses":"{\"pregunta3\":\"b) El inicio de la dinastía Chang. \"}","question_order":"[0]","trial_type":"survey-multi-choice","trial_index":45,"time_elapsed":261381,"internal_node_id":"0.0-5.0-40.0"},{"rt":833.8000000221655,"response":{"pregunta3 likert":2},"question_order":[0],"trial_type":"survey-likert","trial_index":46,"time_elapsed":262224,"internal_node_id":"0.0-5.0-41.0"},{"rt":1394.2000000097323,"responses":"{\"pregunta13\":\"c) Lo que es normal en un asilo es anormal en un campo de concentración. \"}","question_order":"[0]","trial_type":"survey-multi-choice","trial_index":47,"time_elapsed":263626,"internal_node_id":"0.0-5.0-42.0"},{"rt":809.2999999935273,"response":{"pregunta13 likert":1},"question_order":[0],"trial_type":"survey-likert","trial_index":48,"time_elapsed":264445,"internal_node_id":"0.0-5.0-43.0"},{"rt":1312.900000018999,"responses":"{\"pregunta30\":\"a) la muerte es distinta en las grandes ciudades. \"}","question_order":"[0]","trial_type":"survey-multi-choice","trial_index":49,"time_elapsed":265766,"internal_node_id":"0.0-5.0-44.0"},{"rt":1604.399999981979,"response":{"pregunta30 likert":0},"question_order":[0],"trial_type":"survey-likert","trial_index":50,"time_elapsed":267380,"internal_node_id":"0.0-5.0-45.0"},{"rt":1435.3999999875668,"responses":"{\"pregunta21\":\"c) el uranio es el elemento natural con el mayor número de protones en el núcleo. \"}","question_order":"[0]","trial_type":"survey-multi-choice","trial_index":51,"time_elapsed":268824,"internal_node_id":"0.0-5.0-46.0"},{"rt":1126.6999999934342,"response":{"pregunta21 likert":2},"question_order":[0],"trial_type":"survey-likert","trial_index":52,"time_elapsed":269960,"internal_node_id":"0.0-5.0-47.0"},{"rt":1713.3999999787193,"responses":"{\"pregunta24\":\"b) La publicidad ejerce una influencia positiva sobre la sociedad. \"}","question_order":"[0]","trial_type":"survey-multi-choice","trial_index":53,"time_elapsed":271682,"internal_node_id":"0.0-5.0-48.0"},{"rt":841.4000000047963,"response":{"pregunta24 likert":1},"question_order":[0],"trial_type":"survey-likert","trial_index":54,"time_elapsed":272533,"internal_node_id":"0.0-5.0-49.0"},{"rt":1468.0999999982305,"responses":"{\"pregunta18\":\"b) A la inutilidad de tanto esfuerzo si el objetivo es el reposo. \"}","question_order":"[0]","trial_type":"survey-multi-choice","trial_index":55,"time_elapsed":274012,"internal_node_id":"0.0-5.0-50.0"},{"rt":790.1999999885447,"response":{"pregunta18 likert":1},"question_order":[0],"trial_type":"survey-likert","trial_index":56,"time_elapsed":274815,"internal_node_id":"0.0-5.0-51.0"},{"rt":1475.800000014715,"responses":"{\"pregunta27\":\"c) Nuestra economía vivirá un proceso de ajuste a la nueva realidad. \"}","question_order":"[0]","trial_type":"survey-multi-choice","trial_index":57,"time_elapsed":276301,"internal_node_id":"0.0-5.0-52.0"},{"rt":769.5999999996275,"response":{"pregunta27 likert":1},"question_order":[0],"trial_type":"survey-likert","trial_index":58,"time_elapsed":277081,"internal_node_id":"0.0-5.0-53.0"},{"rt":1892.6999999966938,"responses":"{\"pregunta8\":\"a) Comparar a Cervantes con Quevedo. \"}","question_order":"[0]","trial_type":"survey-multi-choice","trial_index":59,"time_elapsed":278983,"internal_node_id":"0.0-5.0-54.0"},{"rt":765.7999999937601,"response":{"pregunta8 likert":1},"question_order":[0],"trial_type":"survey-likert","trial_index":60,"time_elapsed":279760,"internal_node_id":"0.0-5.0-55.0"},{"rt":1510.3999999992084,"responses":"{\"pregunta19\":\"c) El hábito de la lectura y el progreso mantienen una relación inversamente proporcional. \"}","question_order":"[0]","trial_type":"survey-multi-choice","trial_index":61,"time_elapsed":281281,"internal_node_id":"0.0-5.0-56.0"},{"rt":841.6999999899417,"response":{"pregunta19 likert":2},"question_order":[0],"trial_type":"survey-likert","trial_index":62,"time_elapsed":282132,"internal_node_id":"0.0-5.0-57.0"},{"rt":1365.6999999948312,"responses":"{\"pregunta22\":\"c) Se debe crear un seguro médico especial para esta institución, pues es de alto riesgo. \"}","question_order":"[0]","trial_type":"survey-multi-choice","trial_index":63,"time_elapsed":283509,"internal_node_id":"0.0-5.0-58.0"},{"rt":710.9999999811407,"response":{"pregunta22 likert":2},"question_order":[0],"trial_type":"survey-likert","trial_index":64,"time_elapsed":284231,"internal_node_id":"0.0-5.0-59.0"},{"rt":2307.0000000006985,"stimulus":"<p style=\"font-size: 120%\">Gracias por completar esta etapa del estudio. Ahora te invitamos a responder el cuestionario.<br><br></p>","response":0,"trial_type":"html-button-response","trial_index":65,"time_elapsed":286556,"internal_node_id":"0.0-6.0"},{"rt":17152.399999991758,"stimulus":"<h1 style=\"margin-top: 5%\">Cuestionario para la Evaluación de Metas Académicas</h1><p style=\"font-size: 120%; margin-left: 3%; margin-top: 5%\">Este es un cuestionario que permite conocer cuáles son los principales motivos por los que los estudiantes se esfuerzan en su trabajo académico. A continuación, se te presentarán una serie de afirmaciones acerca de los motivos que puedes tener para estudiar.<br>Te pedimos que contestes a dichas afirmaciones reflexionando sobre el contenido de cada una de ellas, que, aunque te parezcan semejantes, en realidad, no lo son.<br>NO HAY RESPUESTAS CORRECTAS o INCORRECTAS, sólo queremos que respondas con la mayor precisión y sinceridad posible a las preguntas que se plantean.","response":0,"trial_type":"html-button-response","trial_index":66,"time_elapsed":303715,"internal_node_id":"0.0-7.0"},{"rt":80041.50000002119,"response":{"Metas cuestionario pregunta1":4,"Metas cuestionario pregunta2":3,"Metas cuestionario pregunta3":4,"Metas cuestionario pregunta4":3,"Metas cuestionario pregunta5":4,"Metas cuestionario pregunta6":4,"Metas cuestionario pregunta7":4,"Metas cuestionario pregunta8":3,"Metas cuestionario pregunta9":2,"Metas cuestionario pregunta10":1,"Metas cuestionario pregunta11":0,"Metas cuestionario pregunta12":0,"Metas cuestionario pregunta13":0,"Metas cuestionario pregunta14":0,"Metas cuestionario pregunta15":2,"Metas cuestionario pregunta16":1,"Metas cuestionario pregunta17":4,"Metas cuestionario pregunta18":4,"Metas cuestionario pregunta19":2,"Metas cuestionario pregunta20":0},"question_order":[0,1,2,3,4,5,6,7,8,9,10,11,12,13,14,15,16,17,18,19],"trial_type":"survey-likert","trial_index":67,"time_elapsed":383794,"internal_node_id":"0.0-8.0"},{"rt":2425.7000000216067,"stimulus":"<p style=\"font-size: 120%\">Gracias por responder el cuestionario. Ahora te invitamos a seguir con el juego, que es muy breve.<br><br></p>","response":0,"trial_type":"html-button-response","trial_index":68,"time_elapsed":386231,"internal_node_id":"0.0-9.0"},{"rt":27163.500000024214,"stimulus":"<h1>Juego</h1><p style=\"font-size: 120%;\">A continuación se te presentarán 16 pequeñas historias.<br>Por favor lee el texto presentado en cada una de ellas y luego haz click en el objeto de tu elección.<br>Si estás listo(a),<span style=\"color:red;\"> haz click en \"comenzar\"</span>.</p>","response":0,"trial_type":"html-button-response","trial_index":69,"time_elapsed":413400,"internal_node_id":"0.0-10.0"},{"rt":8261.499999993248,"grid":[[1,1],[1,1],[1,1],[1,1],[1,1],[1,1],[1,1]],"target":[0,0],"response":[1,1],"correct":false,"juego":15,"trial_type":"serial-reaction-time-mouse","trial_index":70,"time_elapsed":421684,"internal_node_id":"0.0-11.0-0.0"},{"rt":1372.4999999976717,"grid":[[1,1,1]],"target":[0,0],"response":[0,1],"correct":false,"juego":9,"trial_type":"serial-reaction-time-mouse","trial_index":71,"time_elapsed":423061,"internal_node_id":"0.0-11.0-1.0"},{"rt":672.8000000002794,"grid":[[1,1,1]],"target":[0,2],"response":[0,1],"correct":false,"juego":2,"trial_type":"serial-reaction-time-mouse","trial_index":72,"time_elapsed":423738,"internal_node_id":"0.0-11.0-2.0"},{"rt":2690.3000000165775,"grid":[[1,1,1]],"target":[0,2],"response":[0,2],"correct":true,"juego":1,"trial_type":"serial-reaction-time-mouse","trial_index":73,"time_elapsed":426434,"internal_node_id":"0.0-11.0-3.0"},{"rt":1684.399999998277,"grid":[[1],[1],[1]],"target":[0,2],"response":[0,0],"correct":false,"juego":4,"trial_type":"serial-reaction-time-mouse","trial_index":74,"time_elapsed":428123,"internal_node_id":"0.0-11.0-4.0"},{"rt":1818.5999999986961,"grid":[[1,1,1],[1,1,1],[1,1,1],[1,1,1],[1,1,1],[1,1,1],[1,1,1]],"target":[0,0],"response":[3,1],"correct":false,"juego":6,"trial_type":"serial-reaction-time-mouse","trial_index":75,"time_elapsed":429953,"internal_node_id":"0.0-11.0-5.0"},{"rt":536.1000000266358,"grid":[[1,1,1]],"target":[0,2],"response":[0,1],"correct":false,"juego":7,"trial_type":"serial-reaction-time-mouse","trial_index":76,"time_elapsed":430495,"internal_node_id":"0.0-11.0-6.0"},{"rt":928.2999999995809,"grid":[[1,1,1],[1,1,1],[1,1,1]],"target":[0,0],"response":[0,2],"correct":false,"juego":10,"trial_type":"serial-reaction-time-mouse","trial_index":77,"time_elapsed":431432,"internal_node_id":"0.0-11.0-7.0"},{"rt":462.49999999417923,"grid":[[1,1,1]],"target":[0,0],"response":[0,2],"correct":false,"juego":12,"trial_type":"serial-reaction-time-mouse","trial_index":78,"time_elapsed":431898,"internal_node_id":"0.0-11.0-8.0"},{"rt":920.7000000169501,"grid":[[1],[1],[1],[1],[1],[1]],"target":[0,0],"response":[2,0],"correct":false,"juego":5,"trial_type":"serial-reaction-time-mouse","trial_index":79,"time_elapsed":432826,"internal_node_id":"0.0-11.0-9.0"},{"rt":850.8999999903608,"grid":[[1,1],[1,1],[1,1],[1,1],[1,1],[1,1],[1,1]],"target":[0,0],"response":[3,1],"correct":false,"juego":14,"trial_type":"serial-reaction-time-mouse","trial_index":80,"time_elapsed":433684,"internal_node_id":"0.0-11.0-10.0"},{"rt":257.59999998263083,"grid":[[1,1,1]],"target":[0,2],"response":[0,0],"correct":false,"juego":8,"trial_type":"serial-reaction-time-mouse","trial_index":81,"time_elapsed":433946,"internal_node_id":"0.0-11.0-11.0"},{"rt":387.00000001699664,"grid":[[1,1,1]],"target":[0,0],"response":[0,1],"correct":false,"juego":11,"trial_type":"serial-reaction-time-mouse","trial_index":82,"time_elapsed":434339,"internal_node_id":"0.0-11.0-12.0"},{"rt":185.40000001667067,"grid":[[1,1,1]],"target":[0,2],"response":[0,2],"correct":true,"juego":3,"trial_type":"serial-reaction-time-mouse","trial_index":83,"time_elapsed":434532,"internal_node_id":"0.0-11.0-13.0"},{"rt":147.99999998649582,"grid":[[1,1,1],[1,1,1],[1,1,1],[1,1,1],[1,1,1],[1,1,1],[1,1,1]],"target":[0,0],"response":[5,1],"correct":false,"juego":13,"trial_type":"serial-reaction-time-mouse","trial_index":84,"time_elapsed":434689,"internal_node_id":"0.0-11.0-14.0"},{"rt":166.8999999819789,"stimulus":"<h1>Último juego</h1><p style=\"font-size: 130%;\">Tienes <span style=\"color:red\">20</span> segundos para recordar los pares de palabras que aparecerán a continuación. <br></p>","response":0,"trial_type":"html-button-response","trial_index":85,"time_elapsed":434869,"internal_node_id":"0.0-12.0"},{"animation_sequence":[{"stimulus":"imagen_juego_interferencia.jpg","time":545.5000000074506},{"stimulus":"imagen_juego_interferencia.jpg","time":1011.400000017602},{"stimulus":"imagen_juego_interferencia.jpg","time":1506.5000000176951},{"stimulus":"imagen_juego_interferencia.jpg","time":2008.2000000111293},{"stimulus":"imagen_juego_interferencia.jpg","time":2511.5999999979977},{"stimulus":"imagen_juego_interferencia.jpg","time":3008.2000000111293},{"stimulus":"imagen_juego_interferencia.jpg","time":3505.3999999945518},{"stimulus":"imagen_juego_interferencia.jpg","time":4007.500000006985},{"stimulus":"imagen_juego_interferencia.jpg","time":4504.899999999907},{"stimulus":"imagen_juego_interferencia.jpg","time":5006.90000000759},{"stimulus":"imagen_juego_interferencia.jpg","time":5506.599999993341},{"stimulus":"imagen_juego_interferencia.jpg","time":6005.399999994552},{"stimulus":"imagen_juego_interferencia.jpg","time":6506.500000017695},{"stimulus":"imagen_juego_interferencia.jpg","time":7005.700000008801},{"stimulus":"imagen_juego_interferencia.jpg","time":7507.00000001234},{"stimulus":"imagen_juego_interferencia.jpg","time":8008.399999991525},{"stimulus":"imagen_juego_interferencia.jpg","time":8506.099999998696},{"stimulus":"imagen_juego_interferencia.jpg","time":9004.600000014761},{"stimulus":"imagen_juego_interferencia.jpg","time":9506.500000017695},{"stimulus":"imagen_juego_interferencia.jpg","time":10008.10000000638},{"stimulus":"imagen_juego_interferencia.jpg","time":10507.79999999213},{"stimulus":"imagen_juego_interferencia.jpg","time":11007.299999997485},{"stimulus":"imagen_juego_interferencia.jpg","time":11507.00000001234},{"stimulus":"imagen_juego_interferencia.jpg","time":12008.300000015879},{"stimulus":"imagen_juego_interferencia.jpg","time":12506.300000008196},{"stimulus":"imagen_juego_interferencia.jpg","time":13006.400000012945},{"stimulus":"imagen_juego_interferencia.jpg","time":13506.200000003446},{"stimulus":"imagen_juego_interferencia.jpg","time":14006.400000012945},{"stimulus":"imagen_juego_interferencia.jpg","time":14504.899999999907},{"stimulus":"imagen_juego_interferencia.jpg","time":15005.999999993946},{"stimulus":"imagen_juego_interferencia.jpg","time":15506.90000000759},{"stimulus":"imagen_juego_interferencia.jpg","time":16008.300000015879},{"stimulus":"imagen_juego_interferencia.jpg","time":16505.7000000088},{"stimulus":"imagen_juego_interferencia.jpg","time":17007.10000001709},{"stimulus":"imagen_juego_interferencia.jpg","time":17506.200000003446},{"stimulus":"imagen_juego_interferencia.jpg","time":18004.799999995157},{"stimulus":"imagen_juego_interferencia.jpg","time":18749.500000005355},{"stimulus":"imagen_juego_interferencia.jpg","time":19004.000000015367},{"stimulus":"imagen_juego_interferencia.jpg","time":19505.200000014156},{"stimulus":"imagen_juego_interferencia.jpg","time":20007.500000006985}],"response":[],"trial_type":"animation","trial_index":86,"time_elapsed":455378,"internal_node_id":"0.0-13.0"},{"rt":3929.3999999936204,"responses":"{\"pregunta interferencia3\":\"aluminio\"}","question_order":"[0]","trial_type":"survey-multi-choice-cuest","trial_index":87,"time_elapsed":459320,"internal_node_id":"0.0-14.0-0.0"},{"rt":1357.6999999932013,"responses":"{\"pregunta interferencia2\":\"saltamontes\"}","question_order":"[0]","trial_type":"survey-multi-choice-cuest","trial_index":88,"time_elapsed":460697,"internal_node_id":"0.0-14.0-1.0"},{"rt":1244.1000000108033,"responses":"{\"pregunta interferencia4\":\"conserje\"}","question_order":"[0]","trial_type":"survey-multi-choice-cuest","trial_index":89,"time_elapsed":461955,"internal_node_id":"0.0-14.0-2.0"},{"rt":1512.9000000015367,"responses":"{\"pregunta interferencia1\":\"naranja\"}","question_order":"[0]","trial_type":"survey-multi-choice-cuest","trial_index":90,"time_elapsed":463482,"internal_node_id":"0.0-14.0-3.0"},{"success":true,"trial_type":"fullscreen","trial_index":91,"time_elapsed":464494,"internal_node_id":"0.0-15.0"}]