[{"rt":14940.904999966733,"stimulus":"<h1 style=\"color:red; margin-top: 3%;\">¡Bienvenido(a)!</h1><p style=\"text-align:left; justify-content:space-between; margin-right: 5%; margin-left: 5%; margin-top: 5%\"> Antes de empezar el estudio, necesitamos que nos confirmes que estás de acuerdo con participar. Recuerda que tu participación es 100% voluntaria y que lo único que te pedimos es responder lo mejor que puedas. Recuerda también que el estudio incluye:</p><ol style=\"text-align:left; justify-content:space-between; margin-right: 5%; margin-left: 5%;\"><li> un ejercicio de resolución de preguntas de selección múltiple (30’),</li><li>un cuestionario breve (5’),</li><li>un juego muy breve (3’),</li></ol><p style=\"text-align:left; justify-content:space-between; margin-right: 5%; margin-left: 5%;\">Si quieres participar, haz clic en “Acepto” luego de leer lo siguiente:<br></p><p style=\"text-align:left; justify-content:space-between; margin-right: 5%; margin-left: 5%;\">Acepto participar en el estudio “Estrategias de lectura y resolución de preguntas de selección múltiple”, en los términos aquí señalados:<br></p><p style=\"text-align:left; justify-content:space-between; margin-right: 5%; margin-left: 5%;\"><a href=\"http://ciae.uchile.cl/download.php?file=noticias/Asentimiento.pdf\" target=\"_blank\">Link a la hoja de información del Consentimiento.</a></p><p style=\"text-align:left; justify-content:space-between; margin-right: 5%; margin-left: 5%;\">Declaro que he leído (o se me ha leído) y (he) comprendido, las condiciones de mi participación en este estudio. He tenido la oportunidad de hacer preguntas y éstas han sido respondidas. No tengo dudas al respecto.</p>","response":0,"condicion_MCQ":3,"condicion_INTER":9,"numero_participante":9,"numero_version":1,"dimx":1366,"dimy":768,"color_profundidad":24,"pixel_profundidad":24,"Browser":"Google Chrome","trial_type":"html-button-response","trial_index":0,"time_elapsed":14946,"internal_node_id":"0.0-0.0"},{"success":true,"trial_type":"fullscreen","trial_index":1,"time_elapsed":19608,"internal_node_id":"0.0-1.0"},{"rt":71675.58999999892,"responses":"{\"Nombres\":\"Catalina Paz\",\"Apellidos\":\"Gallardo Farías\",\"Edad\":\"18\",\"Sexo\":\"mujer\",\"Curso\":\"primero de universidad\",\"Colegio\":\"UNAB\",\"Contacto\":\"catalinagallardof26@gmail.com\"}","trial_type":"survey-text","trial_index":2,"time_elapsed":91304,"internal_node_id":"0.0-2.0"},{"success":true,"timeout":false,"failed_images":[],"failed_audio":[],"failed_video":[],"trial_type":"preload","trial_index":3,"time_elapsed":92647,"internal_node_id":"0.0-3.0"},{"rt":25222.485000034794,"stimulus":"<h1 style:\"margin-top: 5%;\">Ejercicios de Comprensión de Lectura de la Universidad de Chile</h1><p style=\"font-size: 120%;\">En esta actividad, debes responder 30 preguntas de selección múltiple. Cada pregunta presenta 3 respuestas alternativas, pero sólo una de ellas es correcta. Por lo tanto, debes escoger una sola alternativa para cada pregunta. Además, debes reportar qué tan seguro(a) estás de la respuesta que das, con un:</p><ol style=\"font-size: 120%;text-align:left;margin-left: 40%;\"><li>No estoy seguro(a) para nada</li><li>No estoy muy seguro(a)</li><li>Estoy bastante seguro(a)</li><li>Estoy totalmente seguro(a)</li></ol><p style=\"font-size: 120%;\">Por favor lee bien los enunciados antes de responder. ¡Éxito!</p>","response":0,"trial_type":"html-button-response","trial_index":4,"time_elapsed":117871,"internal_node_id":"0.0-4.0"},{"rt":59914.35500001535,"responses":"{\"pregunta24\":\"a) El receptor es habitualmente pasivo frente a la publicidad. \"}","question_order":"[0]","trial_type":"survey-multi-choice","trial_index":5,"time_elapsed":177787,"internal_node_id":"0.0-5.0-0.0"},{"rt":5485.785000026226,"response":{"pregunta24 likert":2},"question_order":[0],"trial_type":"survey-likert","trial_index":6,"time_elapsed":183275,"internal_node_id":"0.0-5.0-1.0"},{"rt":84029.66500003822,"responses":"{\"pregunta29\":\"b) el jardinero estará muerto al día siguiente. \"}","question_order":"[0]","trial_type":"survey-multi-choice","trial_index":7,"time_elapsed":267306,"internal_node_id":"0.0-5.0-2.0"},{"rt":3074.1750000743195,"response":{"pregunta29 likert":2},"question_order":[0],"trial_type":"survey-likert","trial_index":8,"time_elapsed":270382,"internal_node_id":"0.0-5.0-3.0"},{"rt":78966.23499994166,"responses":"{\"pregunta2\":\"c) A la relación entre pensamiento y estructura social. \"}","question_order":"[0]","trial_type":"survey-multi-choice","trial_index":9,"time_elapsed":349351,"internal_node_id":"0.0-5.0-4.0"},{"rt":2078.139999997802,"response":{"pregunta2 likert":1},"question_order":[0],"trial_type":"survey-likert","trial_index":10,"time_elapsed":351430,"internal_node_id":"0.0-5.0-5.0"},{"rt":78438.25500004459,"responses":"{\"pregunta8\":\"a) Comparar a Cervantes con Quevedo. \"}","question_order":"[0]","trial_type":"survey-multi-choice","trial_index":11,"time_elapsed":429870,"internal_node_id":"0.0-5.0-6.0"},{"rt":2738.325000042096,"response":{"pregunta8 likert":2},"question_order":[0],"trial_type":"survey-likert","trial_index":12,"time_elapsed":432610,"internal_node_id":"0.0-5.0-7.0"},{"rt":70534.0149999829,"responses":"{\"pregunta4\":\"c) En la literatura como en la vida, todo es metáfora. \"}","question_order":"[0]","trial_type":"survey-multi-choice","trial_index":13,"time_elapsed":503146,"internal_node_id":"0.0-5.0-8.0"},{"rt":2418.214999954216,"response":{"pregunta4 likert":1},"question_order":[0],"trial_type":"survey-likert","trial_index":14,"time_elapsed":505566,"internal_node_id":"0.0-5.0-9.0"},{"rt":118949.7149999952,"responses":"{\"pregunta26\":\"c) para Aristóteles la virtud estaba en el justo equilibrio. \"}","question_order":"[0]","trial_type":"survey-multi-choice","trial_index":15,"time_elapsed":624518,"internal_node_id":"0.0-5.0-10.0"},{"rt":2450.3399999812245,"response":{"pregunta26 likert":1},"question_order":[0],"trial_type":"survey-likert","trial_index":16,"time_elapsed":626970,"internal_node_id":"0.0-5.0-11.0"},{"rt":79034.36000004876,"responses":"{\"pregunta16\":\"b) Provocar el deseo de la adquisición vertiginosa. \"}","question_order":"[0]","trial_type":"survey-multi-choice","trial_index":17,"time_elapsed":706006,"internal_node_id":"0.0-5.0-12.0"},{"rt":3266.565000056289,"response":{"pregunta16 likert":2},"question_order":[0],"trial_type":"survey-likert","trial_index":18,"time_elapsed":709274,"internal_node_id":"0.0-5.0-13.0"},{"rt":60078.33000004757,"responses":"{\"pregunta9\":\"c) pueden rendir exámenes para optar y obtener títulos profesionales igual que los hombres. \"}","question_order":"[0]","trial_type":"survey-multi-choice","trial_index":19,"time_elapsed":769354,"internal_node_id":"0.0-5.0-14.0"},{"rt":1650.0450000166893,"response":{"pregunta9 likert":2},"question_order":[0],"trial_type":"survey-likert","trial_index":20,"time_elapsed":771005,"internal_node_id":"0.0-5.0-15.0"},{"rt":245317.87999998778,"responses":"{\"pregunta19\":\"b) Las personas que leen son más flexibles en sus ideas y autónomas en su accionar. \"}","question_order":"[0]","trial_type":"survey-multi-choice","trial_index":21,"time_elapsed":1016325,"internal_node_id":"0.0-5.0-16.0"},{"rt":2290.1500000152737,"response":{"pregunta19 likert":2},"question_order":[0],"trial_type":"survey-likert","trial_index":22,"time_elapsed":1018617,"internal_node_id":"0.0-5.0-17.0"},{"rt":69318.28000000678,"responses":"{\"pregunta17\":\"a) Homenajear a quienes murieron. \"}","question_order":"[0]","trial_type":"survey-multi-choice","trial_index":23,"time_elapsed":1087937,"internal_node_id":"0.0-5.0-18.0"},{"rt":1102.3050000658259,"response":{"pregunta17 likert":2},"question_order":[0],"trial_type":"survey-likert","trial_index":24,"time_elapsed":1089041,"internal_node_id":"0.0-5.0-19.0"},{"rt":42637.38500000909,"responses":"{\"pregunta1\":\"a) Aportan informaciones con las que se reconstruye el personaje dentro de un relato. \"}","question_order":"[0]","trial_type":"survey-multi-choice","trial_index":25,"time_elapsed":1131680,"internal_node_id":"0.0-5.0-20.0"},{"rt":4125.915000098757,"response":{"pregunta1 likert":2},"question_order":[0],"trial_type":"survey-likert","trial_index":26,"time_elapsed":1135809,"internal_node_id":"0.0-5.0-21.0"},{"rt":296357.8700000653,"responses":"{\"pregunta10\":\"a) La biónica puede asegurar nuestra existencia mediante la aplicación de técnicas copiadas de la naturaleza. \"}","question_order":"[0]","trial_type":"survey-multi-choice","trial_index":27,"time_elapsed":1432168,"internal_node_id":"0.0-5.0-22.0"},{"rt":1717.6250000484288,"response":{"pregunta10 likert":1},"question_order":[0],"trial_type":"survey-likert","trial_index":28,"time_elapsed":1433888,"internal_node_id":"0.0-5.0-23.0"},{"rt":40626.270000007935,"responses":"{\"pregunta11\":\"a) Orientar la opción estética de un grupo de personas en lo que se refiere a la decoración de interiores. \"}","question_order":"[0]","trial_type":"survey-multi-choice","trial_index":29,"time_elapsed":1474516,"internal_node_id":"0.0-5.0-24.0"},{"rt":4493.929999996908,"response":{"pregunta11 likert":1},"question_order":[0],"trial_type":"survey-likert","trial_index":30,"time_elapsed":1479013,"internal_node_id":"0.0-5.0-25.0"},{"rt":36869.73500007298,"responses":"{\"pregunta13\":\"b) El ser humano se comporta de acuerdo con las circunstancias. \"}","question_order":"[0]","trial_type":"survey-multi-choice","trial_index":31,"time_elapsed":1515884,"internal_node_id":"0.0-5.0-26.0"},{"rt":1814.475000021048,"response":{"pregunta13 likert":3},"question_order":[0],"trial_type":"survey-likert","trial_index":32,"time_elapsed":1517700,"internal_node_id":"0.0-5.0-27.0"},{"rt":50142.42499996908,"responses":"{\"pregunta12\":\"a) se da como existente, y sólo se discute su relación con el cuerpo. \"}","question_order":"[0]","trial_type":"survey-multi-choice","trial_index":33,"time_elapsed":1567844,"internal_node_id":"0.0-5.0-28.0"},{"rt":1230.2599999820814,"response":{"pregunta12 likert":2},"question_order":[0],"trial_type":"survey-likert","trial_index":34,"time_elapsed":1569076,"internal_node_id":"0.0-5.0-29.0"},{"rt":30190.37000008393,"responses":"{\"pregunta3\":\"a) El inicio de la civilización china. \"}","question_order":"[0]","trial_type":"survey-multi-choice","trial_index":35,"time_elapsed":1599268,"internal_node_id":"0.0-5.0-30.0"},{"rt":2338.4599999990314,"response":{"pregunta3 likert":2},"question_order":[0],"trial_type":"survey-likert","trial_index":36,"time_elapsed":1601608,"internal_node_id":"0.0-5.0-31.0"},{"rt":46910.045000026,"responses":"{\"pregunta14\":\"a) un recuerdo nostálgico. \"}","question_order":"[0]","trial_type":"survey-multi-choice","trial_index":37,"time_elapsed":1648520,"internal_node_id":"0.0-5.0-32.0"},{"rt":2126.425000024028,"response":{"pregunta14 likert":1},"question_order":[0],"trial_type":"survey-likert","trial_index":38,"time_elapsed":1650648,"internal_node_id":"0.0-5.0-33.0"},{"rt":67782.37500006799,"responses":"{\"pregunta5\":\"b) Los momentos triviales de los viajes, en la escritura se vuelven significativos. \"}","question_order":"[0]","trial_type":"survey-multi-choice","trial_index":39,"time_elapsed":1718432,"internal_node_id":"0.0-5.0-34.0"},{"rt":2276.175000006333,"response":{"pregunta5 likert":2},"question_order":[0],"trial_type":"survey-likert","trial_index":40,"time_elapsed":1720710,"internal_node_id":"0.0-5.0-35.0"},{"rt":40383.18000000436,"responses":"{\"pregunta27\":\"a) El TLC causará una completa transformación de la economía chilena. \"}","question_order":"[0]","trial_type":"survey-multi-choice","trial_index":41,"time_elapsed":1761095,"internal_node_id":"0.0-5.0-36.0"},{"rt":1829.9650000408292,"response":{"pregunta27 likert":1},"question_order":[0],"trial_type":"survey-likert","trial_index":42,"time_elapsed":1762926,"internal_node_id":"0.0-5.0-37.0"},{"rt":18794.495000038296,"responses":"{\"pregunta22\":\"a) Bomberos debería tener acceso a un seguro médico, al que pueda recurrir en caso de accidente. \"}","question_order":"[0]","trial_type":"survey-multi-choice","trial_index":43,"time_elapsed":1781722,"internal_node_id":"0.0-5.0-38.0"},{"rt":2604.200000059791,"response":{"pregunta22 likert":2},"question_order":[0],"trial_type":"survey-likert","trial_index":44,"time_elapsed":1784328,"internal_node_id":"0.0-5.0-39.0"},{"rt":75169.75999996066,"responses":"{\"pregunta7\":\"a) La imprenta y el papel han permitido el desarrollo de la civilización y la conservación de su cultura, y ambos son inventos chinos. \"}","question_order":"[0]","trial_type":"survey-multi-choice","trial_index":45,"time_elapsed":1859499,"internal_node_id":"0.0-5.0-40.0"},{"rt":1726.1949999956414,"response":{"pregunta7 likert":1},"question_order":[0],"trial_type":"survey-likert","trial_index":46,"time_elapsed":1861227,"internal_node_id":"0.0-5.0-41.0"},{"rt":55518.260000040755,"responses":"{\"pregunta20\":\"b) el mejor emperador es el que está muerto. \"}","question_order":"[0]","trial_type":"survey-multi-choice","trial_index":47,"time_elapsed":1916747,"internal_node_id":"0.0-5.0-42.0"},{"rt":3266.639999928884,"response":{"pregunta20 likert":0},"question_order":[0],"trial_type":"survey-likert","trial_index":48,"time_elapsed":1920015,"internal_node_id":"0.0-5.0-43.0"},{"rt":19169.244999997318,"responses":"{\"pregunta30\":\"a) la muerte es distinta en las grandes ciudades. \"}","question_order":"[0]","trial_type":"survey-multi-choice","trial_index":49,"time_elapsed":1939187,"internal_node_id":"0.0-5.0-44.0"},{"rt":1894.0199998905882,"response":{"pregunta30 likert":2},"question_order":[0],"trial_type":"survey-likert","trial_index":50,"time_elapsed":1941083,"internal_node_id":"0.0-5.0-45.0"},{"rt":40294.24499999732,"responses":"{\"pregunta23\":\"b) A la influencia de grupos que rechazaban su música. \"}","question_order":"[0]","trial_type":"survey-multi-choice","trial_index":51,"time_elapsed":1981379,"internal_node_id":"0.0-5.0-46.0"},{"rt":1534.1300000436604,"response":{"pregunta23 likert":2},"question_order":[0],"trial_type":"survey-likert","trial_index":52,"time_elapsed":1982914,"internal_node_id":"0.0-5.0-47.0"},{"rt":67586.00000001024,"responses":"{\"pregunta25\":\"a) sufren dolores de espalda. \"}","question_order":"[0]","trial_type":"survey-multi-choice","trial_index":53,"time_elapsed":2050503,"internal_node_id":"0.0-5.0-48.0"},{"rt":1218.5000000754371,"response":{"pregunta25 likert":2},"question_order":[0],"trial_type":"survey-likert","trial_index":54,"time_elapsed":2051723,"internal_node_id":"0.0-5.0-49.0"},{"rt":197106.0849999776,"responses":"{\"pregunta15\":\"a) hedonistas y soñadores. \"}","question_order":"[0]","trial_type":"survey-multi-choice","trial_index":55,"time_elapsed":2248831,"internal_node_id":"0.0-5.0-50.0"},{"rt":2561.375000048429,"response":{"pregunta15 likert":1},"question_order":[0],"trial_type":"survey-likert","trial_index":56,"time_elapsed":2251394,"internal_node_id":"0.0-5.0-51.0"},{"rt":62070.31999994069,"responses":"{\"pregunta21\":\"a) la creación de elementos químicos artificiales ha resultado de la manipulación del uranio. \"}","question_order":"[0]","trial_type":"survey-multi-choice","trial_index":57,"time_elapsed":2313466,"internal_node_id":"0.0-5.0-52.0"},{"rt":1406.180000049062,"response":{"pregunta21 likert":1},"question_order":[0],"trial_type":"survey-likert","trial_index":58,"time_elapsed":2314874,"internal_node_id":"0.0-5.0-53.0"},{"rt":37082.44500006549,"responses":"{\"pregunta18\":\"b) A la inutilidad de tanto esfuerzo si el objetivo es el reposo. \"}","question_order":"[0]","trial_type":"survey-multi-choice","trial_index":59,"time_elapsed":2351958,"internal_node_id":"0.0-5.0-54.0"},{"rt":2266.455000033602,"response":{"pregunta18 likert":2},"question_order":[0],"trial_type":"survey-likert","trial_index":60,"time_elapsed":2354226,"internal_node_id":"0.0-5.0-55.0"},{"rt":29734.370000078343,"responses":"{\"pregunta28\":\"c) El derecho a informar y el derecho a la privacidad son inconciliables. \"}","question_order":"[0]","trial_type":"survey-multi-choice","trial_index":61,"time_elapsed":2383962,"internal_node_id":"0.0-5.0-56.0"},{"rt":1778.5499999299645,"response":{"pregunta28 likert":2},"question_order":[0],"trial_type":"survey-likert","trial_index":62,"time_elapsed":2385742,"internal_node_id":"0.0-5.0-57.0"},{"rt":55314.37999999616,"responses":"{\"pregunta6\":\"b) Las voces extranjeras viven una tensión entre la aceptación y el rechazo. \"}","question_order":"[0]","trial_type":"survey-multi-choice","trial_index":63,"time_elapsed":2441058,"internal_node_id":"0.0-5.0-58.0"},{"rt":2206.2700000824407,"response":{"pregunta6 likert":1},"question_order":[0],"trial_type":"survey-likert","trial_index":64,"time_elapsed":2443266,"internal_node_id":"0.0-5.0-59.0"}]