[{"rt":27834.75499995984,"stimulus":"<h1 style=\"color:red; margin-top: 3%;\">¡Bienvenido(a)!</h1><p style=\"text-align:left; justify-content:space-between; margin-right: 5%; margin-left: 5%; margin-top: 5%\"> Antes de empezar el estudio, necesitamos que nos confirmes que estás de acuerdo con participar. Recuerda que tu participación es 100% voluntaria y que lo único que te pedimos es responder lo mejor que puedas. Recuerda también que el estudio incluye:</p><ol style=\"text-align:left; justify-content:space-between; margin-right: 5%; margin-left: 5%;\"><li> un ejercicio de resolución de preguntas de selección múltiple (30’),</li><li>un cuestionario breve (5’),</li><li>un juego muy breve (3’),</li></ol><p style=\"text-align:left; justify-content:space-between; margin-right: 5%; margin-left: 5%;\">Si quieres participar, haz clic en “Acepto” luego de leer lo siguiente:<br></p><p style=\"text-align:left; justify-content:space-between; margin-right: 5%; margin-left: 5%;\">Acepto participar en el estudio “Estrategias de lectura y resolución de preguntas de selección múltiple”, en los términos aquí señalados:<br></p><p style=\"text-align:left; justify-content:space-between; margin-right: 5%; margin-left: 5%;\"><a href=\"http://ciae.uchile.cl/download.php?file=noticias/Asentimiento.pdf\" target=\"_blank\">Link a la hoja de información del Consentimiento.</a></p><p style=\"text-align:left; justify-content:space-between; margin-right: 5%; margin-left: 5%;\">Declaro que he leído (o se me ha leído) y (he) comprendido, las condiciones de mi participación en este estudio. He tenido la oportunidad de hacer preguntas y éstas han sido respondidas. No tengo dudas al respecto.</p>","response":0,"condicion_MCQ":6,"condicion_INTER":18,"numero_participante":42,"numero_version":1,"dimx":1366,"dimy":768,"color_profundidad":24,"pixel_profundidad":24,"Browser":"Google Chrome","trial_type":"html-button-response","trial_index":0,"time_elapsed":27837,"internal_node_id":"0.0-0.0"},{"success":true,"trial_type":"fullscreen","trial_index":1,"time_elapsed":32491,"internal_node_id":"0.0-1.0"},{"rt":60613.279999932274,"responses":"{\"Nombres\":\"Kamila Jesús\",\"Apellidos\":\"Carales Choque\",\"Edad\":\"19\",\"Sexo\":\"mujer\",\"Curso\":\"egresado\",\"Colegio\":\"North Cross School\",\"Contacto\":\"kamilacarales@gmail.com\"}","trial_type":"survey-text","trial_index":2,"time_elapsed":93126,"internal_node_id":"0.0-2.0"},{"success":true,"timeout":false,"failed_images":[],"failed_audio":[],"failed_video":[],"trial_type":"preload","trial_index":3,"time_elapsed":103800,"internal_node_id":"0.0-3.0"},{"rt":17883.06999998167,"stimulus":"<h1 style:\"margin-top: 5%;\">Ejercicios de Comprensión de Lectura de la Universidad de Chile</h1><p style=\"font-size: 120%;\">En esta actividad, debes responder 30 preguntas de selección múltiple. Cada pregunta presenta 3 respuestas alternativas, pero sólo una de ellas es correcta. Por lo tanto, debes escoger una sola alternativa para cada pregunta. Además, debes reportar qué tan seguro(a) estás de la respuesta que das, con un:</p><ol style=\"font-size: 120%;text-align:left;margin-left: 40%;\"><li>No estoy seguro(a) para nada</li><li>No estoy muy seguro(a)</li><li>Estoy bastante seguro(a)</li><li>Estoy totalmente seguro(a)</li></ol><p style=\"font-size: 120%;\">Por favor lee bien los enunciados antes de responder. ¡Éxito!</p>","response":0,"trial_type":"html-button-response","trial_index":4,"time_elapsed":121684,"internal_node_id":"0.0-4.0"},{"rt":29775.305000017397,"responses":"{\"pregunta30\":\"b) la muerte es distinta en las grandes ciudades. \"}","question_order":"[0]","trial_type":"survey-multi-choice","trial_index":5,"time_elapsed":151477,"internal_node_id":"0.0-5.0-0.0"},{"rt":3958.0100000603124,"response":{"pregunta30 likert":2},"question_order":[0],"trial_type":"survey-likert","trial_index":6,"time_elapsed":155452,"internal_node_id":"0.0-5.0-1.0"},{"rt":30957.905000075698,"responses":"{\"pregunta3\":\"a) El inicio de la civilización china. \"}","question_order":"[0]","trial_type":"survey-multi-choice","trial_index":7,"time_elapsed":186413,"internal_node_id":"0.0-5.0-2.0"},{"rt":1798.0100000277162,"response":{"pregunta3 likert":1},"question_order":[0],"trial_type":"survey-likert","trial_index":8,"time_elapsed":188212,"internal_node_id":"0.0-5.0-3.0"},{"rt":23710.8850000659,"responses":"{\"pregunta28\":\"b) El derecho a informar y el derecho a la privacidad son inconciliables. \"}","question_order":"[0]","trial_type":"survey-multi-choice","trial_index":9,"time_elapsed":211925,"internal_node_id":"0.0-5.0-4.0"},{"rt":3110.4899999918416,"response":{"pregunta28 likert":1},"question_order":[0],"trial_type":"survey-likert","trial_index":10,"time_elapsed":215037,"internal_node_id":"0.0-5.0-5.0"},{"rt":41310.62999996357,"responses":"{\"pregunta6\":\"b) Las voces extranjeras viven una tensión entre la aceptación y el rechazo. \"}","question_order":"[0]","trial_type":"survey-multi-choice","trial_index":11,"time_elapsed":256349,"internal_node_id":"0.0-5.0-6.0"},{"rt":2534.150000079535,"response":{"pregunta6 likert":2},"question_order":[0],"trial_type":"survey-likert","trial_index":12,"time_elapsed":258884,"internal_node_id":"0.0-5.0-7.0"},{"rt":28966.935000033118,"responses":"{\"pregunta24\":\"b) La publicidad es dañina para sus receptores. \"}","question_order":"[0]","trial_type":"survey-multi-choice","trial_index":13,"time_elapsed":287853,"internal_node_id":"0.0-5.0-8.0"},{"rt":1534.1100000077859,"response":{"pregunta24 likert":2},"question_order":[0],"trial_type":"survey-likert","trial_index":14,"time_elapsed":289389,"internal_node_id":"0.0-5.0-9.0"},{"rt":19871.15499994252,"responses":"{\"pregunta1\":\"a) Aportan informaciones con las que se reconstruye el personaje dentro de un relato. \"}","question_order":"[0]","trial_type":"survey-multi-choice","trial_index":15,"time_elapsed":309262,"internal_node_id":"0.0-5.0-10.0"},{"rt":1972.9700000025332,"response":{"pregunta1 likert":2},"question_order":[0],"trial_type":"survey-likert","trial_index":16,"time_elapsed":311237,"internal_node_id":"0.0-5.0-11.0"},{"rt":38414.409999968484,"responses":"{\"pregunta25\":\"c) llevan un control grupal de su embarazo. \"}","question_order":"[0]","trial_type":"survey-multi-choice","trial_index":17,"time_elapsed":349653,"internal_node_id":"0.0-5.0-12.0"},{"rt":2206.2450000084937,"response":{"pregunta25 likert":2},"question_order":[0],"trial_type":"survey-likert","trial_index":18,"time_elapsed":351861,"internal_node_id":"0.0-5.0-13.0"},{"rt":35469.88000010606,"responses":"{\"pregunta5\":\"b) Los momentos triviales de los viajes, en la escritura se vuelven significativos. \"}","question_order":"[0]","trial_type":"survey-multi-choice","trial_index":19,"time_elapsed":387332,"internal_node_id":"0.0-5.0-14.0"},{"rt":1758.170000044629,"response":{"pregunta5 likert":2},"question_order":[0],"trial_type":"survey-likert","trial_index":20,"time_elapsed":389092,"internal_node_id":"0.0-5.0-15.0"},{"rt":96566.47999992128,"responses":"{\"pregunta12\":\"a) se da como existente, y sólo se discute su relación con el cuerpo. \"}","question_order":"[0]","trial_type":"survey-multi-choice","trial_index":21,"time_elapsed":485660,"internal_node_id":"0.0-5.0-16.0"},{"rt":1702.4499999824911,"response":{"pregunta12 likert":1},"question_order":[0],"trial_type":"survey-likert","trial_index":22,"time_elapsed":487364,"internal_node_id":"0.0-5.0-17.0"},{"rt":44838.71999999974,"responses":"{\"pregunta16\":\"c) Deleitar a sus receptores por medio de la belleza y el confort. \"}","question_order":"[0]","trial_type":"survey-multi-choice","trial_index":23,"time_elapsed":532204,"internal_node_id":"0.0-5.0-18.0"},{"rt":1710.579999955371,"response":{"pregunta16 likert":2},"question_order":[0],"trial_type":"survey-likert","trial_index":24,"time_elapsed":533916,"internal_node_id":"0.0-5.0-19.0"},{"rt":143503.12999996822,"responses":"{\"pregunta18\":\"b) Al deseo de privilegiar el ocio por sobre el trabajo. \"}","question_order":"[0]","trial_type":"survey-multi-choice","trial_index":25,"time_elapsed":677421,"internal_node_id":"0.0-5.0-20.0"},{"rt":2205.584999988787,"response":{"pregunta18 likert":1},"question_order":[0],"trial_type":"survey-likert","trial_index":26,"time_elapsed":679629,"internal_node_id":"0.0-5.0-21.0"},{"rt":88029.1000000434,"responses":"{\"pregunta20\":\"b) el mejor emperador es el que está muerto. \"}","question_order":"[0]","trial_type":"survey-multi-choice","trial_index":27,"time_elapsed":767660,"internal_node_id":"0.0-5.0-22.0"},{"rt":2070.1400000834838,"response":{"pregunta20 likert":1},"question_order":[0],"trial_type":"survey-likert","trial_index":28,"time_elapsed":769732,"internal_node_id":"0.0-5.0-23.0"},{"rt":24550.035000080243,"responses":"{\"pregunta23\":\"b) A la influencia de grupos que rechazaban su música. \"}","question_order":"[0]","trial_type":"survey-multi-choice","trial_index":29,"time_elapsed":794283,"internal_node_id":"0.0-5.0-24.0"},{"rt":2366.3899999810383,"response":{"pregunta23 likert":3},"question_order":[0],"trial_type":"survey-likert","trial_index":30,"time_elapsed":796652,"internal_node_id":"0.0-5.0-25.0"},{"rt":110222.40999992937,"responses":"{\"pregunta11\":\"c) Promover la asistencia a un evento específico de decoración a través de una atractiva descripción. \"}","question_order":"[0]","trial_type":"survey-multi-choice","trial_index":31,"time_elapsed":906876,"internal_node_id":"0.0-5.0-26.0"},{"rt":1926.1249999981374,"response":{"pregunta11 likert":1},"question_order":[0],"trial_type":"survey-likert","trial_index":32,"time_elapsed":908804,"internal_node_id":"0.0-5.0-27.0"},{"rt":44174.669999978505,"responses":"{\"pregunta27\":\"a) Será difícil que las empresas nacionales compitan con las estadounidenses. \"}","question_order":"[0]","trial_type":"survey-multi-choice","trial_index":33,"time_elapsed":952980,"internal_node_id":"0.0-5.0-28.0"},{"rt":1534.7100000362843,"response":{"pregunta27 likert":1},"question_order":[0],"trial_type":"survey-likert","trial_index":34,"time_elapsed":954516,"internal_node_id":"0.0-5.0-29.0"},{"rt":7558.019999996759,"responses":"{\"pregunta21\":\"c) el uranio es el elemento natural con el mayor número de protones en el núcleo. \"}","question_order":"[0]","trial_type":"survey-multi-choice","trial_index":35,"time_elapsed":962076,"internal_node_id":"0.0-5.0-30.0"},{"rt":1510.6949999462813,"response":{"pregunta21 likert":1},"question_order":[0],"trial_type":"survey-likert","trial_index":36,"time_elapsed":963588,"internal_node_id":"0.0-5.0-31.0"},{"rt":39646.500000031665,"responses":"{\"pregunta14\":\"a) la persistencia de la melancolía y la desesperanza. \"}","question_order":"[0]","trial_type":"survey-multi-choice","trial_index":37,"time_elapsed":1003236,"internal_node_id":"0.0-5.0-32.0"},{"rt":1718.5049999970943,"response":{"pregunta14 likert":2},"question_order":[0],"trial_type":"survey-likert","trial_index":38,"time_elapsed":1004956,"internal_node_id":"0.0-5.0-33.0"},{"rt":97390.54499997292,"responses":"{\"pregunta17\":\"c) Revivir un periodo histórico. \"}","question_order":"[0]","trial_type":"survey-multi-choice","trial_index":39,"time_elapsed":1102348,"internal_node_id":"0.0-5.0-34.0"},{"rt":2021.9149999320507,"response":{"pregunta17 likert":2},"question_order":[0],"trial_type":"survey-likert","trial_index":40,"time_elapsed":1104372,"internal_node_id":"0.0-5.0-35.0"},{"rt":50998.4500000719,"responses":"{\"pregunta29\":\"b) el jardinero estará muerto al día siguiente. \"}","question_order":"[0]","trial_type":"survey-multi-choice","trial_index":41,"time_elapsed":1155372,"internal_node_id":"0.0-5.0-36.0"},{"rt":2150.9300000034273,"response":{"pregunta29 likert":2},"question_order":[0],"trial_type":"survey-likert","trial_index":42,"time_elapsed":1157524,"internal_node_id":"0.0-5.0-37.0"},{"rt":80925.90999999084,"responses":"{\"pregunta4\":\"a) En la literatura como en la vida, todo es metáfora. \"}","question_order":"[0]","trial_type":"survey-multi-choice","trial_index":43,"time_elapsed":1238452,"internal_node_id":"0.0-5.0-38.0"},{"rt":1366.2799999583513,"response":{"pregunta4 likert":2},"question_order":[0],"trial_type":"survey-likert","trial_index":44,"time_elapsed":1239820,"internal_node_id":"0.0-5.0-39.0"},{"rt":44414.875000016764,"responses":"{\"pregunta2\":\"b) A la relación entre civilización y sociedad. \"}","question_order":"[0]","trial_type":"survey-multi-choice","trial_index":45,"time_elapsed":1284236,"internal_node_id":"0.0-5.0-40.0"},{"rt":2197.634999989532,"response":{"pregunta2 likert":2},"question_order":[0],"trial_type":"survey-likert","trial_index":46,"time_elapsed":1286435,"internal_node_id":"0.0-5.0-41.0"},{"rt":8742.604999919422,"responses":"{\"pregunta8\":\"c) Comparar a Cervantes con Quevedo. \"}","question_order":"[0]","trial_type":"survey-multi-choice","trial_index":47,"time_elapsed":1295180,"internal_node_id":"0.0-5.0-42.0"},{"rt":1366.1299999803305,"response":{"pregunta8 likert":1},"question_order":[0],"trial_type":"survey-likert","trial_index":48,"time_elapsed":1296548,"internal_node_id":"0.0-5.0-43.0"},{"rt":3310.7949999393895,"responses":"{\"pregunta19\":\"b) Las personas que leen son más flexibles en sus ideas y autónomas en su accionar. \"}","question_order":"[0]","trial_type":"survey-multi-choice","trial_index":49,"time_elapsed":1299860,"internal_node_id":"0.0-5.0-44.0"},{"rt":1478.4600000130013,"response":{"pregunta19 likert":1},"question_order":[0],"trial_type":"survey-likert","trial_index":50,"time_elapsed":1301339,"internal_node_id":"0.0-5.0-45.0"},{"rt":6278.8399999262765,"responses":"{\"pregunta15\":\"b) hedonistas y soñadores. \"}","question_order":"[0]","trial_type":"survey-multi-choice","trial_index":51,"time_elapsed":1307620,"internal_node_id":"0.0-5.0-46.0"},{"rt":2566.1300000501797,"response":{"pregunta15 likert":1},"question_order":[0],"trial_type":"survey-likert","trial_index":52,"time_elapsed":1310188,"internal_node_id":"0.0-5.0-47.0"},{"rt":15510.635000071488,"responses":"{\"pregunta7\":\"a) La imprenta y el papel han permitido el desarrollo de la civilización y la conservación de su cultura, y ambos son inventos chinos. \"}","question_order":"[0]","trial_type":"survey-multi-choice","trial_index":53,"time_elapsed":1325700,"internal_node_id":"0.0-5.0-48.0"},{"rt":2765.7849999377504,"response":{"pregunta7 likert":1},"question_order":[0],"trial_type":"survey-likert","trial_index":54,"time_elapsed":1328468,"internal_node_id":"0.0-5.0-49.0"},{"rt":9430.765000055544,"responses":"{\"pregunta10\":\"a) La biónica puede asegurar nuestra existencia mediante la aplicación de técnicas copiadas de la naturaleza. \"}","question_order":"[0]","trial_type":"survey-multi-choice","trial_index":55,"time_elapsed":1337900,"internal_node_id":"0.0-5.0-50.0"},{"rt":1342.339999973774,"response":{"pregunta10 likert":2},"question_order":[0],"trial_type":"survey-likert","trial_index":56,"time_elapsed":1339244,"internal_node_id":"0.0-5.0-51.0"},{"rt":15390.720000024885,"responses":"{\"pregunta9\":\"a) pueden ejercer profesiones científicas de la misma forma en que lo hacen los hombres. \"}","question_order":"[0]","trial_type":"survey-multi-choice","trial_index":57,"time_elapsed":1354626,"internal_node_id":"0.0-5.0-52.0"},{"rt":1910.4750000406057,"response":{"pregunta9 likert":2},"question_order":[0],"trial_type":"survey-likert","trial_index":58,"time_elapsed":1356538,"internal_node_id":"0.0-5.0-53.0"},{"rt":21566.725000040606,"responses":"{\"pregunta22\":\"b) Se debe crear un seguro médico especial para esta institución, pues es de alto riesgo. \"}","question_order":"[0]","trial_type":"survey-multi-choice","trial_index":59,"time_elapsed":1378106,"internal_node_id":"0.0-5.0-54.0"},{"rt":2286.074999952689,"response":{"pregunta22 likert":3},"question_order":[0],"trial_type":"survey-likert","trial_index":60,"time_elapsed":1380393,"internal_node_id":"0.0-5.0-55.0"},{"rt":52926.79999989923,"responses":"{\"pregunta26\":\"c) para Aristóteles la virtud estaba en el justo equilibrio. \"}","question_order":"[0]","trial_type":"survey-multi-choice","trial_index":61,"time_elapsed":1433332,"internal_node_id":"0.0-5.0-56.0"},{"rt":1781.719999969937,"response":{"pregunta26 likert":1},"question_order":[0],"trial_type":"survey-likert","trial_index":62,"time_elapsed":1435115,"internal_node_id":"0.0-5.0-57.0"},{"rt":7158.919999958016,"responses":"{\"pregunta13\":\"a) Lo que es normal en un asilo es anormal en un campo de concentración. \"}","question_order":"[0]","trial_type":"survey-multi-choice","trial_index":63,"time_elapsed":1442275,"internal_node_id":"0.0-5.0-58.0"},{"rt":2142.2800000291318,"response":{"pregunta13 likert":2},"question_order":[0],"trial_type":"survey-likert","trial_index":64,"time_elapsed":1444419,"internal_node_id":"0.0-5.0-59.0"},{"rt":2227.2050000028685,"stimulus":"<p style=\"font-size: 120%\">Gracias por completar esta etapa del estudio. Ahora te invitamos a responder el cuestionario.<br><br></p>","response":0,"trial_type":"html-button-response","trial_index":65,"time_elapsed":1446651,"internal_node_id":"0.0-6.0"},{"rt":8487.08499991335,"stimulus":"<h1 style=\"margin-top: 5%\">Cuestionario para la Evaluación de Metas Académicas</h1><p style=\"font-size: 120%; margin-left: 3%; margin-top: 5%\">Este es un cuestionario que permite conocer cuáles son los principales motivos por los que los estudiantes se esfuerzan en su trabajo académico. A continuación, se te presentarán una serie de afirmaciones acerca de los motivos que puedes tener para estudiar.<br>Te pedimos que contestes a dichas afirmaciones reflexionando sobre el contenido de cada una de ellas, que, aunque te parezcan semejantes, en realidad, no lo son.<br>NO HAY RESPUESTAS CORRECTAS o INCORRECTAS, sólo queremos que respondas con la mayor precisión y sinceridad posible a las preguntas que se plantean.","response":0,"trial_type":"html-button-response","trial_index":66,"time_elapsed":1455139,"internal_node_id":"0.0-7.0"},{"rt":68142.10499997716,"response":{"Metas cuestionario pregunta1":3,"Metas cuestionario pregunta2":3,"Metas cuestionario pregunta3":3,"Metas cuestionario pregunta4":2,"Metas cuestionario pregunta5":3,"Metas cuestionario pregunta6":2,"Metas cuestionario pregunta7":3,"Metas cuestionario pregunta8":3,"Metas cuestionario pregunta9":0,"Metas cuestionario pregunta10":0,"Metas cuestionario pregunta11":0,"Metas cuestionario pregunta12":0,"Metas cuestionario pregunta13":1,"Metas cuestionario pregunta14":2,"Metas cuestionario pregunta15":3,"Metas cuestionario pregunta16":4,"Metas cuestionario pregunta17":4,"Metas cuestionario pregunta18":4,"Metas cuestionario pregunta19":4,"Metas cuestionario pregunta20":3},"question_order":[0,1,2,3,4,5,6,7,8,9,10,11,12,13,14,15,16,17,18,19],"trial_type":"survey-likert","trial_index":67,"time_elapsed":1523288,"internal_node_id":"0.0-8.0"},{"rt":1862.275000079535,"stimulus":"<p style=\"font-size: 120%\">Gracias por responder el cuestionario. Ahora te invitamos a seguir con el juego, que es muy breve.<br><br></p>","response":0,"trial_type":"html-button-response","trial_index":68,"time_elapsed":1525155,"internal_node_id":"0.0-9.0"},{"rt":5039.0149999875575,"stimulus":"<h1>Juego</h1><p style=\"font-size: 120%;\">A continuación se te presentarán 16 pequeñas historias.<br>Por favor lee el texto presentado en cada una de ellas y luego haz click en el objeto de tu elección.<br>Si estás listo(a),<span style=\"color:red;\"> haz click en \"comenzar\"</span>.</p>","response":0,"trial_type":"html-button-response","trial_index":69,"time_elapsed":1530195,"internal_node_id":"0.0-10.0"},{"rt":4527.680000057444,"grid":[[1,1],[1,1],[1,1],[1,1],[1,1],[1,1],[1,1]],"target":[0,0],"response":[5,1],"correct":false,"juego":14,"trial_type":"serial-reaction-time-mouse","trial_index":70,"time_elapsed":1534726,"internal_node_id":"0.0-11.0-0.0"},{"rt":5531.264999997802,"grid":[[1,1,1]],"target":[0,0],"response":[0,0],"correct":true,"juego":12,"trial_type":"serial-reaction-time-mouse","trial_index":71,"time_elapsed":1540259,"internal_node_id":"0.0-11.0-1.0"},{"rt":60936.12500000745,"grid":[[1,1,1],[1,1,1],[1,1,1],[1,1,1],[1,1,1],[1,1,1],[1,1,1]],"target":[0,0],"response":[3,1],"correct":false,"juego":13,"trial_type":"serial-reaction-time-mouse","trial_index":72,"time_elapsed":1601198,"internal_node_id":"0.0-11.0-2.0"},{"rt":3726.120000006631,"grid":[[1],[1],[1]],"target":[0,2],"response":[1,0],"correct":false,"juego":4,"trial_type":"serial-reaction-time-mouse","trial_index":73,"time_elapsed":1604926,"internal_node_id":"0.0-11.0-3.0"},{"rt":7445.390000008047,"grid":[[1,1,1],[1,1,1],[1,1,1]],"target":[0,0],"response":[1,2],"correct":false,"juego":10,"trial_type":"serial-reaction-time-mouse","trial_index":74,"time_elapsed":1612375,"internal_node_id":"0.0-11.0-4.0"},{"rt":3018.24000000488,"grid":[[1,1,1],[1,1,1],[1,1,1],[1,1,1],[1,1,1],[1,1,1],[1,1,1]],"target":[0,0],"response":[1,1],"correct":false,"juego":6,"trial_type":"serial-reaction-time-mouse","trial_index":75,"time_elapsed":1615397,"internal_node_id":"0.0-11.0-5.0"},{"rt":5278.229999938048,"grid":[[1,1,1]],"target":[0,2],"response":[0,2],"correct":true,"juego":2,"trial_type":"serial-reaction-time-mouse","trial_index":76,"time_elapsed":1620676,"internal_node_id":"0.0-11.0-6.0"},{"rt":3949.2900000186637,"grid":[[1,1,1]],"target":[0,0],"response":[0,1],"correct":false,"juego":11,"trial_type":"serial-reaction-time-mouse","trial_index":77,"time_elapsed":1624627,"internal_node_id":"0.0-11.0-7.0"},{"rt":4862.5499999616295,"grid":[[1],[1],[1],[1],[1],[1]],"target":[0,0],"response":[0,0],"correct":true,"juego":5,"trial_type":"serial-reaction-time-mouse","trial_index":78,"time_elapsed":1629491,"internal_node_id":"0.0-11.0-8.0"},{"rt":4214.905000058934,"grid":[[1,1,1]],"target":[0,0],"response":[0,2],"correct":false,"juego":9,"trial_type":"serial-reaction-time-mouse","trial_index":79,"time_elapsed":1633707,"internal_node_id":"0.0-11.0-9.0"},{"rt":4575.040000025183,"grid":[[1,1,1]],"target":[0,2],"response":[0,0],"correct":false,"juego":3,"trial_type":"serial-reaction-time-mouse","trial_index":80,"time_elapsed":1638283,"internal_node_id":"0.0-11.0-10.0"},{"rt":1622.7900000521913,"grid":[[1,1,1]],"target":[0,2],"response":[0,2],"correct":true,"juego":8,"trial_type":"serial-reaction-time-mouse","trial_index":81,"time_elapsed":1639907,"internal_node_id":"0.0-11.0-11.0"},{"rt":1967.3349999357015,"grid":[[1,1,1]],"target":[0,2],"response":[0,1],"correct":false,"juego":7,"trial_type":"serial-reaction-time-mouse","trial_index":82,"time_elapsed":1641875,"internal_node_id":"0.0-11.0-12.0"},{"rt":7471.020000055432,"grid":[[1,1],[1,1],[1,1],[1,1],[1,1],[1,1],[1,1]],"target":[0,0],"response":[1,1],"correct":false,"juego":15,"trial_type":"serial-reaction-time-mouse","trial_index":83,"time_elapsed":1649348,"internal_node_id":"0.0-11.0-13.0"},{"rt":1941.9200000120327,"grid":[[1,1,1]],"target":[0,2],"response":[0,0],"correct":false,"juego":1,"trial_type":"serial-reaction-time-mouse","trial_index":84,"time_elapsed":1651292,"internal_node_id":"0.0-11.0-14.0"},{"rt":3624.1349999327213,"stimulus":"<h1>Último juego</h1><p style=\"font-size: 130%;\">Tienes <span style=\"color:red\">20</span> segundos para recordar los pares de palabras que aparecerán a continuación. <br></p>","response":0,"trial_type":"html-button-response","trial_index":85,"time_elapsed":1654923,"internal_node_id":"0.0-12.0"},{"animation_sequence":[{"stimulus":"imagen_juego_interferencia.jpg","time":525.7050000363961},{"stimulus":"imagen_juego_interferencia.jpg","time":1002.089999965392},{"stimulus":"imagen_juego_interferencia.jpg","time":1501.6799999866635},{"stimulus":"imagen_juego_interferencia.jpg","time":2002.5949999690056},{"stimulus":"imagen_juego_interferencia.jpg","time":2501.09000003431},{"stimulus":"imagen_juego_interferencia.jpg","time":3002.0249999361113},{"stimulus":"imagen_juego_interferencia.jpg","time":3501.634999993257},{"stimulus":"imagen_juego_interferencia.jpg","time":4001.5349999303},{"stimulus":"imagen_juego_interferencia.jpg","time":4512.214999995194},{"stimulus":"imagen_juego_interferencia.jpg","time":5002.845000009984},{"stimulus":"imagen_juego_interferencia.jpg","time":5503.810000023805},{"stimulus":"imagen_juego_interferencia.jpg","time":6001.664999988861},{"stimulus":"imagen_juego_interferencia.jpg","time":6501.25999993179},{"stimulus":"imagen_juego_interferencia.jpg","time":7001.565000042319},{"stimulus":"imagen_juego_interferencia.jpg","time":7503.0649999389425},{"stimulus":"imagen_juego_interferencia.jpg","time":8012.669999967329},{"stimulus":"imagen_juego_interferencia.jpg","time":8501.519999932498},{"stimulus":"imagen_juego_interferencia.jpg","time":9018.03999999538},{"stimulus":"imagen_juego_interferencia.jpg","time":9501.685000024736},{"stimulus":"imagen_juego_interferencia.jpg","time":10001.225000014529},{"stimulus":"imagen_juego_interferencia.jpg","time":10509.429999976419},{"stimulus":"imagen_juego_interferencia.jpg","time":11001.904999953695},{"stimulus":"imagen_juego_interferencia.jpg","time":11502.764999982901},{"stimulus":"imagen_juego_interferencia.jpg","time":12001.71500002034},{"stimulus":"imagen_juego_interferencia.jpg","time":12500.89999998454},{"stimulus":"imagen_juego_interferencia.jpg","time":13000.924999942072},{"stimulus":"imagen_juego_interferencia.jpg","time":13501.79999996908},{"stimulus":"imagen_juego_interferencia.jpg","time":14001.930000027642},{"stimulus":"imagen_juego_interferencia.jpg","time":14501.670000026934},{"stimulus":"imagen_juego_interferencia.jpg","time":15001.189999980852},{"stimulus":"imagen_juego_interferencia.jpg","time":15503.114999970421},{"stimulus":"imagen_juego_interferencia.jpg","time":16001.855000038631},{"stimulus":"imagen_juego_interferencia.jpg","time":16500.995000009425},{"stimulus":"imagen_juego_interferencia.jpg","time":17001.77500001155},{"stimulus":"imagen_juego_interferencia.jpg","time":17501.879999996163},{"stimulus":"imagen_juego_interferencia.jpg","time":18001.52499997057},{"stimulus":"imagen_juego_interferencia.jpg","time":18502.454999950714},{"stimulus":"imagen_juego_interferencia.jpg","time":19014.330000034533},{"stimulus":"imagen_juego_interferencia.jpg","time":19507.52999994438},{"stimulus":"imagen_juego_interferencia.jpg","time":20009.874999988824}],"response":[],"trial_type":"animation","trial_index":86,"time_elapsed":1675426,"internal_node_id":"0.0-13.0"},{"rt":8647.525000036694,"responses":"{\"pregunta interferencia3\":\"aluminio\"}","question_order":"[0]","trial_type":"survey-multi-choice-cuest","trial_index":87,"time_elapsed":1684075,"internal_node_id":"0.0-14.0-0.0"},{"rt":3398.3749999897555,"responses":"{\"pregunta interferencia4\":\"contador\"}","question_order":"[0]","trial_type":"survey-multi-choice-cuest","trial_index":88,"time_elapsed":1687475,"internal_node_id":"0.0-14.0-1.0"},{"rt":3254.3900000164285,"responses":"{\"pregunta interferencia2\":\"saltamontes\"}","question_order":"[0]","trial_type":"survey-multi-choice-cuest","trial_index":89,"time_elapsed":1690731,"internal_node_id":"0.0-14.0-2.0"},{"rt":3638.6599999386817,"responses":"{\"pregunta interferencia1\":\"naranja\"}","question_order":"[0]","trial_type":"survey-multi-choice-cuest","trial_index":90,"time_elapsed":1694372,"internal_node_id":"0.0-14.0-3.0"},{"success":true,"trial_type":"fullscreen","trial_index":91,"time_elapsed":1695379,"internal_node_id":"0.0-15.0"},{"rt":42895.11000004131,"responses":"{\"Telefono\":\"+56950801089\"}","trial_type":"survey-text","trial_index":92,"time_elapsed":1738284,"internal_node_id":"0.0-16.0"}]