[{"rt":2075.4300000844523,"stimulus":"<h1 style=\"color:red; margin-top: 3%;\">¡Bienvenido(a)!</h1><p style=\"text-align:left; justify-content:space-between; margin-right: 5%; margin-left: 5%; margin-top: 5%\"> Antes de empezar el estudio, necesitamos que nos confirmes que estás de acuerdo con participar. Recuerda que tu participación es 100% voluntaria y que lo único que te pedimos es responder lo mejor que puedas. Recuerda también que el estudio incluye:</p><ol style=\"text-align:left; justify-content:space-between; margin-right: 5%; margin-left: 5%;\"><li> un ejercicio de resolución de preguntas de selección múltiple (30’),</li><li>un cuestionario breve (5’),</li><li>un juego muy breve (3’),</li></ol><p style=\"text-align:left; justify-content:space-between; margin-right: 5%; margin-left: 5%;\">Si quieres participar, haz clic en “Acepto” luego de leer lo siguiente:<br></p><p style=\"text-align:left; justify-content:space-between; margin-right: 5%; margin-left: 5%;\">Acepto participar en el estudio “Estrategias de lectura y resolución de preguntas de selección múltiple”, en los términos aquí señalados:<br></p><p style=\"text-align:left; justify-content:space-between; margin-right: 5%; margin-left: 5%;\"><a href=\"http://ciae.uchile.cl/download.php?file=noticias/Asentimiento.pdf\" target=\"_blank\">Link a la hoja de información del Consentimiento.</a></p><p style=\"text-align:left; justify-content:space-between; margin-right: 5%; margin-left: 5%;\">Declaro que he leído (o se me ha leído) y (he) comprendido, las condiciones de mi participación en este estudio. He tenido la oportunidad de hacer preguntas y éstas han sido respondidas. No tengo dudas al respecto.</p>","response":0,"condicion_MCQ":4,"condicion_INTER":22,"numero_participante":46,"numero_version":1,"dimx":1536,"dimy":864,"color_profundidad":24,"pixel_profundidad":24,"Browser":"Google Chrome","trial_type":"html-button-response","trial_index":0,"time_elapsed":2080,"internal_node_id":"0.0-0.0"},{"success":true,"trial_type":"fullscreen","trial_index":1,"time_elapsed":9255,"internal_node_id":"0.0-1.0"},{"rt":129196.91499997862,"responses":"{\"Nombres\":\"tamara montserrat\",\"Apellidos\":\"Sáez Toro\",\"Edad\":\"19\",\"Sexo\":\"mujer\",\"Curso\":\"primer año\",\"Colegio\":\"psicología UNAB\",\"Contacto\":\"tamara.saez.toro@gmail.com\"}","trial_type":"survey-text","trial_index":2,"time_elapsed":138465,"internal_node_id":"0.0-2.0"},{"success":true,"timeout":false,"failed_images":[],"failed_audio":[],"failed_video":[],"trial_type":"preload","trial_index":3,"time_elapsed":139095,"internal_node_id":"0.0-3.0"},{"rt":23108.099999953993,"stimulus":"<h1 style:\"margin-top: 5%;\">Ejercicios de Comprensión de Lectura de la Universidad de Chile</h1><p style=\"font-size: 120%;\">En esta actividad, debes responder 30 preguntas de selección múltiple. Cada pregunta presenta 3 respuestas alternativas, pero sólo una de ellas es correcta. Por lo tanto, debes escoger una sola alternativa para cada pregunta. Además, debes reportar qué tan seguro(a) estás de la respuesta que das, con un:</p><ol style=\"font-size: 120%;text-align:left;margin-left: 40%;\"><li>No estoy seguro(a) para nada</li><li>No estoy muy seguro(a)</li><li>Estoy bastante seguro(a)</li><li>Estoy totalmente seguro(a)</li></ol><p style=\"font-size: 120%;\">Por favor lee bien los enunciados antes de responder. ¡Éxito!</p>","response":0,"trial_type":"html-button-response","trial_index":4,"time_elapsed":162204,"internal_node_id":"0.0-4.0"},{"rt":129137.33000005595,"responses":"{\"pregunta24\":\"b) El receptor es habitualmente pasivo frente a la publicidad. \"}","question_order":"[0]","trial_type":"survey-multi-choice","trial_index":5,"time_elapsed":291344,"internal_node_id":"0.0-5.0-0.0"},{"rt":3345.1799999456853,"response":{"pregunta24 likert":2},"question_order":[0],"trial_type":"survey-likert","trial_index":6,"time_elapsed":294697,"internal_node_id":"0.0-5.0-1.0"},{"rt":62455.910000018775,"responses":"{\"pregunta2\":\"a) A la relación entre pensamiento y estructura social. \"}","question_order":"[0]","trial_type":"survey-multi-choice","trial_index":7,"time_elapsed":357157,"internal_node_id":"0.0-5.0-2.0"},{"rt":1998.520000022836,"response":{"pregunta2 likert":3},"question_order":[0],"trial_type":"survey-likert","trial_index":8,"time_elapsed":359163,"internal_node_id":"0.0-5.0-3.0"},{"rt":107125.43999997433,"responses":"{\"pregunta26\":\"c) el sujeto sufre con su modo de vida. \"}","question_order":"[0]","trial_type":"survey-multi-choice","trial_index":9,"time_elapsed":466297,"internal_node_id":"0.0-5.0-4.0"},{"rt":3084.4550000038,"response":{"pregunta26 likert":2},"question_order":[0],"trial_type":"survey-likert","trial_index":10,"time_elapsed":469389,"internal_node_id":"0.0-5.0-5.0"},{"rt":106269.13000002969,"responses":"{\"pregunta6\":\"c) Las voces extranjeras viven una tensión entre la aceptación y el rechazo. \"}","question_order":"[0]","trial_type":"survey-multi-choice","trial_index":11,"time_elapsed":575665,"internal_node_id":"0.0-5.0-6.0"},{"rt":2654.5550000155345,"response":{"pregunta6 likert":2},"question_order":[0],"trial_type":"survey-likert","trial_index":12,"time_elapsed":578327,"internal_node_id":"0.0-5.0-7.0"},{"rt":92853.86499995366,"responses":"{\"pregunta14\":\"b) la persistencia de la melancolía y la desesperanza. \"}","question_order":"[0]","trial_type":"survey-multi-choice","trial_index":13,"time_elapsed":671188,"internal_node_id":"0.0-5.0-8.0"},{"rt":3286.805000039749,"response":{"pregunta14 likert":3},"question_order":[0],"trial_type":"survey-likert","trial_index":14,"time_elapsed":674483,"internal_node_id":"0.0-5.0-9.0"},{"rt":48680.61499996111,"responses":"{\"pregunta28\":\"b) Se necesita un marco legal para delimitar lo público y lo privado en materia informativa. \"}","question_order":"[0]","trial_type":"survey-multi-choice","trial_index":15,"time_elapsed":723171,"internal_node_id":"0.0-5.0-10.0"},{"rt":1891.910000005737,"response":{"pregunta28 likert":3},"question_order":[0],"trial_type":"survey-likert","trial_index":16,"time_elapsed":725071,"internal_node_id":"0.0-5.0-11.0"},{"rt":51329.43000004161,"responses":"{\"pregunta23\":\"a) A la inexistencia de un recinto adecuado para el recital. \"}","question_order":"[0]","trial_type":"survey-multi-choice","trial_index":17,"time_elapsed":776407,"internal_node_id":"0.0-5.0-12.0"},{"rt":2786.259999964386,"response":{"pregunta23 likert":3},"question_order":[0],"trial_type":"survey-likert","trial_index":18,"time_elapsed":779201,"internal_node_id":"0.0-5.0-13.0"},{"rt":117527.03500003554,"responses":"{\"pregunta19\":\"c) Las personas que leen son más flexibles en sus ideas y autónomas en su accionar. \"}","question_order":"[0]","trial_type":"survey-multi-choice","trial_index":19,"time_elapsed":896735,"internal_node_id":"0.0-5.0-14.0"},{"rt":4477.269999915734,"response":{"pregunta19 likert":2},"question_order":[0],"trial_type":"survey-likert","trial_index":20,"time_elapsed":901221,"internal_node_id":"0.0-5.0-15.0"},{"rt":141439.32500004303,"responses":"{\"pregunta15\":\"a) ritualistas y obsesivos. \"}","question_order":"[0]","trial_type":"survey-multi-choice","trial_index":21,"time_elapsed":1042668,"internal_node_id":"0.0-5.0-16.0"},{"rt":2833.269999944605,"response":{"pregunta15 likert":1},"question_order":[0],"trial_type":"survey-likert","trial_index":22,"time_elapsed":1045509,"internal_node_id":"0.0-5.0-17.0"},{"rt":71692.61500006542,"responses":"{\"pregunta11\":\"c) Orientar la opción estética de un grupo de personas en lo que se refiere a la decoración de interiores. \"}","question_order":"[0]","trial_type":"survey-multi-choice","trial_index":23,"time_elapsed":1117209,"internal_node_id":"0.0-5.0-18.0"},{"rt":1527.8549999929965,"response":{"pregunta11 likert":2},"question_order":[0],"trial_type":"survey-likert","trial_index":24,"time_elapsed":1118744,"internal_node_id":"0.0-5.0-19.0"},{"rt":99623.48499998916,"responses":"{\"pregunta3\":\"b) El inicio de la civilización china. \"}","question_order":"[0]","trial_type":"survey-multi-choice","trial_index":25,"time_elapsed":1218374,"internal_node_id":"0.0-5.0-20.0"},{"rt":1252.449999912642,"response":{"pregunta3 likert":3},"question_order":[0],"trial_type":"survey-likert","trial_index":26,"time_elapsed":1219634,"internal_node_id":"0.0-5.0-21.0"},{"rt":158507.13500007987,"responses":"{\"pregunta10\":\"b) La biónica puede asegurar nuestra existencia mediante la aplicación de técnicas copiadas de la naturaleza. \"}","question_order":"[0]","trial_type":"survey-multi-choice","trial_index":27,"time_elapsed":1378149,"internal_node_id":"0.0-5.0-22.0"},{"rt":7545.999999972992,"response":{"pregunta10 likert":2},"question_order":[0],"trial_type":"survey-likert","trial_index":28,"time_elapsed":1385703,"internal_node_id":"0.0-5.0-23.0"},{"rt":90653.15999998711,"responses":"{\"pregunta5\":\"c) Los momentos triviales de los viajes, en la escritura se vuelven significativos. \"}","question_order":"[0]","trial_type":"survey-multi-choice","trial_index":29,"time_elapsed":1476364,"internal_node_id":"0.0-5.0-24.0"},{"rt":2216.450000065379,"response":{"pregunta5 likert":2},"question_order":[0],"trial_type":"survey-likert","trial_index":30,"time_elapsed":1478588,"internal_node_id":"0.0-5.0-25.0"},{"rt":43369.49999991339,"responses":"{\"pregunta27\":\"a) Nuestra economía vivirá un proceso de ajuste a la nueva realidad. \"}","question_order":"[0]","trial_type":"survey-multi-choice","trial_index":31,"time_elapsed":1521965,"internal_node_id":"0.0-5.0-26.0"},{"rt":2796.889999997802,"response":{"pregunta27 likert":2},"question_order":[0],"trial_type":"survey-likert","trial_index":32,"time_elapsed":1524769,"internal_node_id":"0.0-5.0-27.0"},{"rt":76577.44999998249,"responses":"{\"pregunta8\":\"b) Caracterizar al Quijote como un pelmazo. \"}","question_order":"[0]","trial_type":"survey-multi-choice","trial_index":33,"time_elapsed":1601354,"internal_node_id":"0.0-5.0-28.0"},{"rt":2188.3949999464676,"response":{"pregunta8 likert":1},"question_order":[0],"trial_type":"survey-likert","trial_index":34,"time_elapsed":1603550,"internal_node_id":"0.0-5.0-29.0"},{"rt":83844.06499995384,"responses":"{\"pregunta4\":\"b) En la literatura como en la vida, todo es metáfora. \"}","question_order":"[0]","trial_type":"survey-multi-choice","trial_index":35,"time_elapsed":1687398,"internal_node_id":"0.0-5.0-30.0"},{"rt":3268.6599999433383,"response":{"pregunta4 likert":0},"question_order":[0],"trial_type":"survey-likert","trial_index":36,"time_elapsed":1690674,"internal_node_id":"0.0-5.0-31.0"},{"rt":67456.55000000261,"responses":"{\"pregunta25\":\"b) sufren dolores de espalda. \"}","question_order":"[0]","trial_type":"survey-multi-choice","trial_index":37,"time_elapsed":1758138,"internal_node_id":"0.0-5.0-32.0"},{"rt":1582.425000029616,"response":{"pregunta25 likert":3},"question_order":[0],"trial_type":"survey-likert","trial_index":38,"time_elapsed":1759729,"internal_node_id":"0.0-5.0-33.0"},{"rt":130283.60999992583,"responses":"{\"pregunta7\":\"b) La imprenta y el papel han permitido el desarrollo de la civilización y la conservación de su cultura, y ambos son inventos chinos. \"}","question_order":"[0]","trial_type":"survey-multi-choice","trial_index":39,"time_elapsed":1890020,"internal_node_id":"0.0-5.0-34.0"},{"rt":1782.0400000782683,"response":{"pregunta7 likert":2},"question_order":[0],"trial_type":"survey-likert","trial_index":40,"time_elapsed":1891809,"internal_node_id":"0.0-5.0-35.0"},{"rt":83051.71499995049,"responses":"{\"pregunta16\":\"c) Provocar el deseo de la adquisición vertiginosa. \"}","question_order":"[0]","trial_type":"survey-multi-choice","trial_index":41,"time_elapsed":1974868,"internal_node_id":"0.0-5.0-36.0"},{"rt":1798.3150000218302,"response":{"pregunta16 likert":2},"question_order":[0],"trial_type":"survey-likert","trial_index":42,"time_elapsed":1976674,"internal_node_id":"0.0-5.0-37.0"},{"rt":56018.52499996312,"responses":"{\"pregunta9\":\"b) pueden ejercer profesiones científicas de la misma forma en que lo hacen los hombres. \"}","question_order":"[0]","trial_type":"survey-multi-choice","trial_index":43,"time_elapsed":2032700,"internal_node_id":"0.0-5.0-38.0"},{"rt":1475.319999968633,"response":{"pregunta9 likert":2},"question_order":[0],"trial_type":"survey-likert","trial_index":44,"time_elapsed":2034182,"internal_node_id":"0.0-5.0-39.0"},{"rt":51196.92500005476,"responses":"{\"pregunta30\":\"a) para el mexicano, la muerte es cotidiana. \"}","question_order":"[0]","trial_type":"survey-multi-choice","trial_index":45,"time_elapsed":2085388,"internal_node_id":"0.0-5.0-40.0"},{"rt":3759.4250000547618,"response":{"pregunta30 likert":2},"question_order":[0],"trial_type":"survey-likert","trial_index":46,"time_elapsed":2089155,"internal_node_id":"0.0-5.0-41.0"},{"rt":67898.41499994509,"responses":"{\"pregunta17\":\"b) Homenajear a quienes murieron. \"}","question_order":"[0]","trial_type":"survey-multi-choice","trial_index":47,"time_elapsed":2157060,"internal_node_id":"0.0-5.0-42.0"},{"rt":2251.09000003431,"response":{"pregunta17 likert":2},"question_order":[0],"trial_type":"survey-likert","trial_index":48,"time_elapsed":2159319,"internal_node_id":"0.0-5.0-43.0"},{"rt":155677.15000000317,"responses":"{\"pregunta1\":\"b) Aportan informaciones con las que se reconstruye el personaje dentro de un relato. \"}","question_order":"[0]","trial_type":"survey-multi-choice","trial_index":49,"time_elapsed":2315004,"internal_node_id":"0.0-5.0-44.0"},{"rt":2084.2999999877065,"response":{"pregunta1 likert":2},"question_order":[0],"trial_type":"survey-likert","trial_index":50,"time_elapsed":2317096,"internal_node_id":"0.0-5.0-45.0"},{"rt":43846.21999994852,"responses":"{\"pregunta22\":\"b) Bomberos debería tener acceso a un seguro médico, al que pueda recurrir en caso de accidente. \"}","question_order":"[0]","trial_type":"survey-multi-choice","trial_index":51,"time_elapsed":2360950,"internal_node_id":"0.0-5.0-46.0"},{"rt":2150.069999974221,"response":{"pregunta22 likert":2},"question_order":[0],"trial_type":"survey-likert","trial_index":52,"time_elapsed":2363109,"internal_node_id":"0.0-5.0-47.0"},{"rt":104319.45499998983,"responses":"{\"pregunta13\":\"a) El concepto de normalidad es diferente para un psiquiatra que para nosotros. \"}","question_order":"[0]","trial_type":"survey-multi-choice","trial_index":53,"time_elapsed":2467436,"internal_node_id":"0.0-5.0-48.0"},{"rt":1958.9799999957904,"response":{"pregunta13 likert":1},"question_order":[0],"trial_type":"survey-likert","trial_index":54,"time_elapsed":2469403,"internal_node_id":"0.0-5.0-49.0"},{"rt":58408.16500002984,"responses":"{\"pregunta12\":\"b) se da como existente, y sólo se discute su relación con el cuerpo. \"}","question_order":"[0]","trial_type":"survey-multi-choice","trial_index":55,"time_elapsed":2527819,"internal_node_id":"0.0-5.0-50.0"},{"rt":2674.390000058338,"response":{"pregunta12 likert":0},"question_order":[0],"trial_type":"survey-likert","trial_index":56,"time_elapsed":2530500,"internal_node_id":"0.0-5.0-51.0"},{"rt":76319.7049999144,"responses":"{\"pregunta20\":\"c) el mejor emperador es el que está muerto. \"}","question_order":"[0]","trial_type":"survey-multi-choice","trial_index":57,"time_elapsed":2606828,"internal_node_id":"0.0-5.0-52.0"},{"rt":5033.490000059828,"response":{"pregunta20 likert":0},"question_order":[0],"trial_type":"survey-likert","trial_index":58,"time_elapsed":2611870,"internal_node_id":"0.0-5.0-53.0"},{"rt":46987.835000036284,"responses":"{\"pregunta21\":\"a) el uranio es el elemento natural con el mayor número de protones en el núcleo. \"}","question_order":"[0]","trial_type":"survey-multi-choice","trial_index":59,"time_elapsed":2658866,"internal_node_id":"0.0-5.0-54.0"},{"rt":3105.7099999161437,"response":{"pregunta21 likert":0},"question_order":[0],"trial_type":"survey-likert","trial_index":60,"time_elapsed":2661979,"internal_node_id":"0.0-5.0-55.0"},{"rt":55498.879999970086,"responses":"{\"pregunta18\":\"b) A la inutilidad de tanto esfuerzo si el objetivo es el reposo. \"}","question_order":"[0]","trial_type":"survey-multi-choice","trial_index":61,"time_elapsed":2717485,"internal_node_id":"0.0-5.0-56.0"},{"rt":1556.8600000115111,"response":{"pregunta18 likert":1},"question_order":[0],"trial_type":"survey-likert","trial_index":62,"time_elapsed":2719050,"internal_node_id":"0.0-5.0-57.0"},{"rt":83864.12499996368,"responses":"{\"pregunta29\":\"c) el jardinero estará muerto al día siguiente. \"}","question_order":"[0]","trial_type":"survey-multi-choice","trial_index":63,"time_elapsed":2802922,"internal_node_id":"0.0-5.0-58.0"},{"rt":1753.1750000780448,"response":{"pregunta29 likert":2},"question_order":[0],"trial_type":"survey-likert","trial_index":64,"time_elapsed":2804683,"internal_node_id":"0.0-5.0-59.0"},{"rt":2748.5149999847636,"stimulus":"<p style=\"font-size: 120%\">Gracias por completar esta etapa del estudio. Ahora te invitamos a responder el cuestionario.<br><br></p>","response":0,"trial_type":"html-button-response","trial_index":65,"time_elapsed":2807445,"internal_node_id":"0.0-6.0"},{"rt":885656.0149999568,"stimulus":"<h1 style=\"margin-top: 5%\">Cuestionario para la Evaluación de Metas Académicas</h1><p style=\"font-size: 120%; margin-left: 3%; margin-top: 5%\">Este es un cuestionario que permite conocer cuáles son los principales motivos por los que los estudiantes se esfuerzan en su trabajo académico. A continuación, se te presentarán una serie de afirmaciones acerca de los motivos que puedes tener para estudiar.<br>Te pedimos que contestes a dichas afirmaciones reflexionando sobre el contenido de cada una de ellas, que, aunque te parezcan semejantes, en realidad, no lo son.<br>NO HAY RESPUESTAS CORRECTAS o INCORRECTAS, sólo queremos que respondas con la mayor precisión y sinceridad posible a las preguntas que se plantean.","response":0,"trial_type":"html-button-response","trial_index":66,"time_elapsed":3693102,"internal_node_id":"0.0-7.0"},{"rt":97044.9700000463,"response":{"Metas cuestionario pregunta1":2,"Metas cuestionario pregunta2":3,"Metas cuestionario pregunta3":3,"Metas cuestionario pregunta4":2,"Metas cuestionario pregunta5":4,"Metas cuestionario pregunta6":2,"Metas cuestionario pregunta7":3,"Metas cuestionario pregunta8":3,"Metas cuestionario pregunta9":2,"Metas cuestionario pregunta10":1,"Metas cuestionario pregunta11":2,"Metas cuestionario pregunta12":2,"Metas cuestionario pregunta13":3,"Metas cuestionario pregunta14":2,"Metas cuestionario pregunta15":3,"Metas cuestionario pregunta16":3,"Metas cuestionario pregunta17":3,"Metas cuestionario pregunta18":4,"Metas cuestionario pregunta19":4,"Metas cuestionario pregunta20":2},"question_order":[0,1,2,3,4,5,6,7,8,9,10,11,12,13,14,15,16,17,18,19],"trial_type":"survey-likert","trial_index":67,"time_elapsed":3790155,"internal_node_id":"0.0-8.0"},{"rt":2840.844999998808,"stimulus":"<p style=\"font-size: 120%\">Gracias por responder el cuestionario. Ahora te invitamos a seguir con el juego, que es muy breve.<br><br></p>","response":0,"trial_type":"html-button-response","trial_index":68,"time_elapsed":3793008,"internal_node_id":"0.0-9.0"},{"rt":9506.655000033788,"stimulus":"<h1>Juego</h1><p style=\"font-size: 120%;\">A continuación se te presentarán 16 pequeñas historias.<br>Por favor lee el texto presentado en cada una de ellas y luego haz click en el objeto de tu elección.<br>Si estás listo(a),<span style=\"color:red;\"> haz click en \"comenzar\"</span>.</p>","response":0,"trial_type":"html-button-response","trial_index":69,"time_elapsed":3802516,"internal_node_id":"0.0-10.0"},{"rt":13858.490000013262,"grid":[[1,1,1]],"target":[0,0],"response":[0,0],"correct":true,"juego":9,"trial_type":"serial-reaction-time-mouse","trial_index":70,"time_elapsed":3816377,"internal_node_id":"0.0-11.0-0.0"},{"rt":22066.735000000335,"grid":[[1,1,1],[1,1,1],[1,1,1],[1,1,1],[1,1,1],[1,1,1],[1,1,1]],"target":[0,0],"response":[1,1],"correct":false,"juego":13,"trial_type":"serial-reaction-time-mouse","trial_index":71,"time_elapsed":3838446,"internal_node_id":"0.0-11.0-1.0"},{"rt":9110.575000056997,"grid":[[1,1,1],[1,1,1],[1,1,1],[1,1,1],[1,1,1],[1,1,1],[1,1,1]],"target":[0,0],"response":[1,1],"correct":false,"juego":6,"trial_type":"serial-reaction-time-mouse","trial_index":72,"time_elapsed":3847559,"internal_node_id":"0.0-11.0-2.0"},{"rt":3004.7250000061467,"grid":[[1,1,1]],"target":[0,2],"response":[0,1],"correct":false,"juego":1,"trial_type":"serial-reaction-time-mouse","trial_index":73,"time_elapsed":3850566,"internal_node_id":"0.0-11.0-3.0"},{"rt":13283.304999931715,"grid":[[1,1],[1,1],[1,1],[1,1],[1,1],[1,1],[1,1]],"target":[0,0],"response":[5,1],"correct":false,"juego":14,"trial_type":"serial-reaction-time-mouse","trial_index":74,"time_elapsed":3863851,"internal_node_id":"0.0-11.0-4.0"},{"rt":6342.590000014752,"grid":[[1,1],[1,1],[1,1],[1,1],[1,1],[1,1],[1,1]],"target":[0,0],"response":[1,1],"correct":false,"juego":15,"trial_type":"serial-reaction-time-mouse","trial_index":75,"time_elapsed":3870196,"internal_node_id":"0.0-11.0-5.0"},{"rt":7315.494999988005,"grid":[[1],[1],[1]],"target":[0,2],"response":[1,0],"correct":false,"juego":4,"trial_type":"serial-reaction-time-mouse","trial_index":76,"time_elapsed":3877513,"internal_node_id":"0.0-11.0-6.0"},{"rt":7062.174999970011,"grid":[[1,1,1],[1,1,1],[1,1,1]],"target":[0,0],"response":[0,0],"correct":true,"juego":10,"trial_type":"serial-reaction-time-mouse","trial_index":77,"time_elapsed":3884577,"internal_node_id":"0.0-11.0-7.0"},{"rt":17484.66999991797,"grid":[[1,1,1]],"target":[0,0],"response":[0,1],"correct":false,"juego":11,"trial_type":"serial-reaction-time-mouse","trial_index":78,"time_elapsed":3902063,"internal_node_id":"0.0-11.0-8.0"},{"rt":12355.299999937415,"grid":[[1,1,1]],"target":[0,2],"response":[0,0],"correct":false,"juego":7,"trial_type":"serial-reaction-time-mouse","trial_index":79,"time_elapsed":3914420,"internal_node_id":"0.0-11.0-9.0"},{"rt":8031.880000024103,"grid":[[1,1,1]],"target":[0,2],"response":[0,1],"correct":false,"juego":2,"trial_type":"serial-reaction-time-mouse","trial_index":80,"time_elapsed":3922454,"internal_node_id":"0.0-11.0-10.0"},{"rt":9380.280000041239,"grid":[[1,1,1]],"target":[0,0],"response":[0,0],"correct":true,"juego":12,"trial_type":"serial-reaction-time-mouse","trial_index":81,"time_elapsed":3931835,"internal_node_id":"0.0-11.0-11.0"},{"rt":7861.4700000034645,"grid":[[1,1,1]],"target":[0,2],"response":[0,0],"correct":false,"juego":8,"trial_type":"serial-reaction-time-mouse","trial_index":82,"time_elapsed":3939698,"internal_node_id":"0.0-11.0-12.0"},{"rt":20799.119999981485,"grid":[[1],[1],[1],[1],[1],[1]],"target":[0,0],"response":[0,0],"correct":true,"juego":5,"trial_type":"serial-reaction-time-mouse","trial_index":83,"time_elapsed":3960499,"internal_node_id":"0.0-11.0-13.0"},{"rt":11133.895000093617,"grid":[[1,1,1]],"target":[0,2],"response":[0,1],"correct":false,"juego":3,"trial_type":"serial-reaction-time-mouse","trial_index":84,"time_elapsed":3971635,"internal_node_id":"0.0-11.0-14.0"}]