[{"rt":4300.93999998644,"stimulus":"<h1 style=\"color:red; margin-top: 3%;\">¡Bienvenido(a)!</h1><p style=\"text-align:left; justify-content:space-between; margin-right: 5%; margin-left: 5%; margin-top: 5%\"> Antes de empezar el estudio, necesitamos que nos confirmes que estás de acuerdo con participar. Recuerda que tu participación es 100% voluntaria y que lo único que te pedimos es responder lo mejor que puedas. Recuerda también que el estudio incluye:</p><ol style=\"text-align:left; justify-content:space-between; margin-right: 5%; margin-left: 5%;\"><li> un ejercicio de resolución de preguntas de selección múltiple (30’),</li><li>un cuestionario breve (5’),</li><li>un juego muy breve (3’),</li></ol><p style=\"text-align:left; justify-content:space-between; margin-right: 5%; margin-left: 5%;\">Si quieres participar, haz clic en “Acepto” luego de leer lo siguiente:<br></p><p style=\"text-align:left; justify-content:space-between; margin-right: 5%; margin-left: 5%;\">Acepto participar en el estudio “Estrategias de lectura y resolución de preguntas de selección múltiple”, en los términos aquí señalados:<br></p><p style=\"text-align:left; justify-content:space-between; margin-right: 5%; margin-left: 5%;\"><a href=\"http://ciae.uchile.cl/download.php?file=noticias/Asentimiento.pdf\" target=\"_blank\">Link a la hoja de información del Consentimiento.</a></p><p style=\"text-align:left; justify-content:space-between; margin-right: 5%; margin-left: 5%;\">Declaro que he leído (o se me ha leído) y (he) comprendido, las condiciones de mi participación en este estudio. He tenido la oportunidad de hacer preguntas y éstas han sido respondidas. No tengo dudas al respecto.</p>","response":0,"condicion_MCQ":2,"condicion_INTER":20,"numero_participante":44,"numero_version":1,"dimx":1536,"dimy":864,"color_profundidad":24,"pixel_profundidad":24,"Browser":"Google Chrome","trial_type":"html-button-response","trial_index":0,"time_elapsed":4304,"internal_node_id":"0.0-0.0"},{"success":true,"trial_type":"fullscreen","trial_index":1,"time_elapsed":8952,"internal_node_id":"0.0-1.0"},{"rt":47339.03500001179,"responses":"{\"Nombres\":\"Natalia Nicole\",\"Apellidos\":\"Patiño Salinas\",\"Edad\":\"18\",\"Sexo\":\"mujer\",\"Curso\":\"primer año\",\"Colegio\":\"Universidad Andres Bello\",\"Contacto\":\"ptino.natalia24@gmail.com\"}","trial_type":"survey-text","trial_index":2,"time_elapsed":56299,"internal_node_id":"0.0-2.0"},{"success":true,"timeout":false,"failed_images":[],"failed_audio":[],"failed_video":[],"trial_type":"preload","trial_index":3,"time_elapsed":57329,"internal_node_id":"0.0-3.0"},{"rt":18198.17999994848,"stimulus":"<h1 style:\"margin-top: 5%;\">Ejercicios de Comprensión de Lectura de la Universidad de Chile</h1><p style=\"font-size: 120%;\">En esta actividad, debes responder 30 preguntas de selección múltiple. Cada pregunta presenta 3 respuestas alternativas, pero sólo una de ellas es correcta. Por lo tanto, debes escoger una sola alternativa para cada pregunta. Además, debes reportar qué tan seguro(a) estás de la respuesta que das, con un:</p><ol style=\"font-size: 120%;text-align:left;margin-left: 40%;\"><li>No estoy seguro(a) para nada</li><li>No estoy muy seguro(a)</li><li>Estoy bastante seguro(a)</li><li>Estoy totalmente seguro(a)</li></ol><p style=\"font-size: 120%;\">Por favor lee bien los enunciados antes de responder. ¡Éxito!</p>","response":0,"trial_type":"html-button-response","trial_index":4,"time_elapsed":75529,"internal_node_id":"0.0-4.0"},{"rt":90002.19999998808,"responses":"{\"pregunta21\":\"a) a partir de la manipulación del núcleo se han creado elementos químicos naturales. \"}","question_order":"[0]","trial_type":"survey-multi-choice","trial_index":5,"time_elapsed":165533,"internal_node_id":"0.0-5.0-0.0"},{"rt":3954.570000001695,"response":{"pregunta21 likert":1},"question_order":[0],"trial_type":"survey-likert","trial_index":6,"time_elapsed":169491,"internal_node_id":"0.0-5.0-1.0"},{"rt":120242.04499996267,"responses":"{\"pregunta24\":\"c) El receptor es habitualmente pasivo frente a la publicidad. \"}","question_order":"[0]","trial_type":"survey-multi-choice","trial_index":7,"time_elapsed":289736,"internal_node_id":"0.0-5.0-2.0"},{"rt":3634.3699999852106,"response":{"pregunta24 likert":2},"question_order":[0],"trial_type":"survey-likert","trial_index":8,"time_elapsed":293372,"internal_node_id":"0.0-5.0-3.0"},{"rt":53683.114999963436,"responses":"{\"pregunta30\":\"b) para el mexicano, la muerte es cotidiana. \"}","question_order":"[0]","trial_type":"survey-multi-choice","trial_index":9,"time_elapsed":347057,"internal_node_id":"0.0-5.0-4.0"},{"rt":2740.4299999470823,"response":{"pregunta30 likert":2},"question_order":[0],"trial_type":"survey-likert","trial_index":10,"time_elapsed":349800,"internal_node_id":"0.0-5.0-5.0"},{"rt":71804.41500002053,"responses":"{\"pregunta17\":\"c) Homenajear a quienes murieron. \"}","question_order":"[0]","trial_type":"survey-multi-choice","trial_index":11,"time_elapsed":421606,"internal_node_id":"0.0-5.0-6.0"},{"rt":3817.0050000189804,"response":{"pregunta17 likert":3},"question_order":[0],"trial_type":"survey-likert","trial_index":12,"time_elapsed":425425,"internal_node_id":"0.0-5.0-7.0"},{"rt":94560.43000001227,"responses":"{\"pregunta13\":\"a) El ser humano se comporta de acuerdo con las circunstancias. \"}","question_order":"[0]","trial_type":"survey-multi-choice","trial_index":13,"time_elapsed":519988,"internal_node_id":"0.0-5.0-8.0"},{"rt":2770.8300000522286,"response":{"pregunta13 likert":1},"question_order":[0],"trial_type":"survey-likert","trial_index":14,"time_elapsed":522761,"internal_node_id":"0.0-5.0-9.0"},{"rt":31452.585000020918,"responses":"{\"pregunta8\":\"c) Comparar a Cervantes con Quevedo. \"}","question_order":"[0]","trial_type":"survey-multi-choice","trial_index":15,"time_elapsed":554215,"internal_node_id":"0.0-5.0-10.0"},{"rt":3472.9399999487214,"response":{"pregunta8 likert":2},"question_order":[0],"trial_type":"survey-likert","trial_index":16,"time_elapsed":557690,"internal_node_id":"0.0-5.0-11.0"},{"rt":64394.494999956805,"responses":"{\"pregunta14\":\"b) preparar los recuerdos del mañana. \"}","question_order":"[0]","trial_type":"survey-multi-choice","trial_index":17,"time_elapsed":622087,"internal_node_id":"0.0-5.0-12.0"},{"rt":3312.6550000160933,"response":{"pregunta14 likert":2},"question_order":[0],"trial_type":"survey-likert","trial_index":18,"time_elapsed":625401,"internal_node_id":"0.0-5.0-13.0"},{"rt":105999.89500001539,"responses":"{\"pregunta6\":\"b) La aparición del Diccionario Académico ha sido polémica. \"}","question_order":"[0]","trial_type":"survey-multi-choice","trial_index":19,"time_elapsed":731403,"internal_node_id":"0.0-5.0-14.0"},{"rt":2390.2300000190735,"response":{"pregunta6 likert":1},"question_order":[0],"trial_type":"survey-likert","trial_index":20,"time_elapsed":733795,"internal_node_id":"0.0-5.0-15.0"},{"rt":50789.73000001861,"responses":"{\"pregunta27\":\"b) Nuestra economía vivirá un proceso de ajuste a la nueva realidad. \"}","question_order":"[0]","trial_type":"survey-multi-choice","trial_index":21,"time_elapsed":784587,"internal_node_id":"0.0-5.0-16.0"},{"rt":5762.259999988601,"response":{"pregunta27 likert":2},"question_order":[0],"trial_type":"survey-likert","trial_index":22,"time_elapsed":790351,"internal_node_id":"0.0-5.0-17.0"},{"rt":46888.76000000164,"responses":"{\"pregunta29\":\"a) el jardinero estará muerto al día siguiente. \"}","question_order":"[0]","trial_type":"survey-multi-choice","trial_index":23,"time_elapsed":837241,"internal_node_id":"0.0-5.0-18.0"},{"rt":3898.6050000530668,"response":{"pregunta29 likert":2},"question_order":[0],"trial_type":"survey-likert","trial_index":24,"time_elapsed":841140,"internal_node_id":"0.0-5.0-19.0"},{"rt":48258.83499998599,"responses":"{\"pregunta23\":\"b) A la temática satánica de las canciones del grupo. \"}","question_order":"[0]","trial_type":"survey-multi-choice","trial_index":25,"time_elapsed":889401,"internal_node_id":"0.0-5.0-20.0"},{"rt":2816.800000029616,"response":{"pregunta23 likert":3},"question_order":[0],"trial_type":"survey-likert","trial_index":26,"time_elapsed":892220,"internal_node_id":"0.0-5.0-21.0"},{"rt":52371.62500002887,"responses":"{\"pregunta5\":\"b) La escritura plasma los mejores momentos de los viajes. \"}","question_order":"[0]","trial_type":"survey-multi-choice","trial_index":27,"time_elapsed":944595,"internal_node_id":"0.0-5.0-22.0"},{"rt":3411.034999997355,"response":{"pregunta5 likert":1},"question_order":[0],"trial_type":"survey-likert","trial_index":28,"time_elapsed":948008,"internal_node_id":"0.0-5.0-23.0"},{"rt":44006.475000001956,"responses":"{\"pregunta1\":\"a) Muestran las opiniones expuestas por los personajes en un relato. \"}","question_order":"[0]","trial_type":"survey-multi-choice","trial_index":29,"time_elapsed":992016,"internal_node_id":"0.0-5.0-24.0"},{"rt":2683.634999964852,"response":{"pregunta1 likert":2},"question_order":[0],"trial_type":"survey-likert","trial_index":30,"time_elapsed":994702,"internal_node_id":"0.0-5.0-25.0"},{"rt":34578.080000006594,"responses":"{\"pregunta28\":\"c) Se necesita un marco legal para delimitar lo público y lo privado en materia informativa. \"}","question_order":"[0]","trial_type":"survey-multi-choice","trial_index":31,"time_elapsed":1029282,"internal_node_id":"0.0-5.0-26.0"},{"rt":2154.7150000114925,"response":{"pregunta28 likert":2},"question_order":[0],"trial_type":"survey-likert","trial_index":32,"time_elapsed":1031439,"internal_node_id":"0.0-5.0-27.0"},{"rt":79917.37500001909,"responses":"{\"pregunta18\":\"c) Al deseo de privilegiar el ocio por sobre el trabajo. \"}","question_order":"[0]","trial_type":"survey-multi-choice","trial_index":33,"time_elapsed":1111358,"internal_node_id":"0.0-5.0-28.0"},{"rt":2579.4999999925494,"response":{"pregunta18 likert":1},"question_order":[0],"trial_type":"survey-likert","trial_index":34,"time_elapsed":1113939,"internal_node_id":"0.0-5.0-29.0"},{"rt":85674.73999998765,"responses":"{\"pregunta4\":\"b) En la literatura como en la vida, todo es metáfora. \"}","question_order":"[0]","trial_type":"survey-multi-choice","trial_index":35,"time_elapsed":1199616,"internal_node_id":"0.0-5.0-30.0"},{"rt":2840.6100000138395,"response":{"pregunta4 likert":2},"question_order":[0],"trial_type":"survey-likert","trial_index":36,"time_elapsed":1202458,"internal_node_id":"0.0-5.0-31.0"},{"rt":66465.96999996109,"responses":"{\"pregunta19\":\"a) Las personas que leen son más flexibles en sus ideas y autónomas en su accionar. \"}","question_order":"[0]","trial_type":"survey-multi-choice","trial_index":37,"time_elapsed":1268926,"internal_node_id":"0.0-5.0-32.0"},{"rt":2351.4849999919534,"response":{"pregunta19 likert":2},"question_order":[0],"trial_type":"survey-likert","trial_index":38,"time_elapsed":1271279,"internal_node_id":"0.0-5.0-33.0"},{"rt":74325.06500004092,"responses":"{\"pregunta20\":\"b) sólo las leyes bastan para gobernarse. \"}","question_order":"[0]","trial_type":"survey-multi-choice","trial_index":39,"time_elapsed":1345606,"internal_node_id":"0.0-5.0-34.0"},{"rt":3139.8349999799393,"response":{"pregunta20 likert":2},"question_order":[0],"trial_type":"survey-likert","trial_index":40,"time_elapsed":1348748,"internal_node_id":"0.0-5.0-35.0"},{"rt":161844.81999999844,"responses":"{\"pregunta26\":\"c) el sujeto sufre con su modo de vida. \"}","question_order":"[0]","trial_type":"survey-multi-choice","trial_index":41,"time_elapsed":1510595,"internal_node_id":"0.0-5.0-36.0"},{"rt":3619.4699999759905,"response":{"pregunta26 likert":1},"question_order":[0],"trial_type":"survey-likert","trial_index":42,"time_elapsed":1514216,"internal_node_id":"0.0-5.0-37.0"},{"rt":37191.919999953825,"responses":"{\"pregunta3\":\"c) El inicio de la civilización china. \"}","question_order":"[0]","trial_type":"survey-multi-choice","trial_index":43,"time_elapsed":1551410,"internal_node_id":"0.0-5.0-38.0"},{"rt":2402.219999989029,"response":{"pregunta3 likert":2},"question_order":[0],"trial_type":"survey-likert","trial_index":44,"time_elapsed":1553814,"internal_node_id":"0.0-5.0-39.0"},{"rt":111838.62999995472,"responses":"{\"pregunta12\":\"c) se da como existente, y sólo se discute su relación con el cuerpo. \"}","question_order":"[0]","trial_type":"survey-multi-choice","trial_index":45,"time_elapsed":1665654,"internal_node_id":"0.0-5.0-40.0"},{"rt":3793.760000029579,"response":{"pregunta12 likert":1},"question_order":[0],"trial_type":"survey-likert","trial_index":46,"time_elapsed":1669450,"internal_node_id":"0.0-5.0-41.0"},{"rt":88074.06000001356,"responses":"{\"pregunta16\":\"a) Provocar el deseo de la adquisición vertiginosa. \"}","question_order":"[0]","trial_type":"survey-multi-choice","trial_index":47,"time_elapsed":1757526,"internal_node_id":"0.0-5.0-42.0"},{"rt":2787.8100000089034,"response":{"pregunta16 likert":2},"question_order":[0],"trial_type":"survey-likert","trial_index":48,"time_elapsed":1760316,"internal_node_id":"0.0-5.0-43.0"},{"rt":94155.29000002425,"responses":"{\"pregunta25\":\"a) llevan un control grupal de su embarazo. \"}","question_order":"[0]","trial_type":"survey-multi-choice","trial_index":49,"time_elapsed":1854473,"internal_node_id":"0.0-5.0-44.0"},{"rt":2749.82500000624,"response":{"pregunta25 likert":1},"question_order":[0],"trial_type":"survey-likert","trial_index":50,"time_elapsed":1857225,"internal_node_id":"0.0-5.0-45.0"},{"rt":48554.71999995643,"responses":"{\"pregunta9\":\"a) pueden ejercer profesiones científicas de la misma forma en que lo hacen los hombres. \"}","question_order":"[0]","trial_type":"survey-multi-choice","trial_index":51,"time_elapsed":1905774,"internal_node_id":"0.0-5.0-46.0"},{"rt":6216.03499999037,"response":{"pregunta9 likert":1},"question_order":[0],"trial_type":"survey-likert","trial_index":52,"time_elapsed":1911992,"internal_node_id":"0.0-5.0-47.0"},{"rt":77094.72500003176,"responses":"{\"pregunta22\":\"b) Se debe crear un seguro médico especial para esta institución, pues es de alto riesgo. \"}","question_order":"[0]","trial_type":"survey-multi-choice","trial_index":53,"time_elapsed":1989096,"internal_node_id":"0.0-5.0-48.0"},{"rt":2412.620000017341,"response":{"pregunta22 likert":2},"question_order":[0],"trial_type":"survey-likert","trial_index":54,"time_elapsed":1991510,"internal_node_id":"0.0-5.0-49.0"},{"rt":39439.40999999177,"responses":"{\"pregunta11\":\"c) Orientar la opción estética de un grupo de personas en lo que se refiere a la decoración de interiores. \"}","question_order":"[0]","trial_type":"survey-multi-choice","trial_index":55,"time_elapsed":2030951,"internal_node_id":"0.0-5.0-50.0"},{"rt":2479.395000031218,"response":{"pregunta11 likert":0},"question_order":[0],"trial_type":"survey-likert","trial_index":56,"time_elapsed":2033433,"internal_node_id":"0.0-5.0-51.0"},{"rt":102864.06499997247,"responses":"{\"pregunta10\":\"c) La biónica puede asegurar nuestra existencia mediante la aplicación de técnicas copiadas de la naturaleza. \"}","question_order":"[0]","trial_type":"survey-multi-choice","trial_index":57,"time_elapsed":2136299,"internal_node_id":"0.0-5.0-52.0"},{"rt":2814.0300000086427,"response":{"pregunta10 likert":2},"question_order":[0],"trial_type":"survey-likert","trial_index":58,"time_elapsed":2139115,"internal_node_id":"0.0-5.0-53.0"},{"rt":88040.28999997536,"responses":"{\"pregunta15\":\"b) ritualistas y obsesivos. \"}","question_order":"[0]","trial_type":"survey-multi-choice","trial_index":59,"time_elapsed":2227157,"internal_node_id":"0.0-5.0-54.0"},{"rt":3571.659999957774,"response":{"pregunta15 likert":2},"question_order":[0],"trial_type":"survey-likert","trial_index":60,"time_elapsed":2230730,"internal_node_id":"0.0-5.0-55.0"},{"rt":87912.53999999026,"responses":"{\"pregunta2\":\"c) A la relación entre civilización y sociedad. \"}","question_order":"[0]","trial_type":"survey-multi-choice","trial_index":61,"time_elapsed":2318646,"internal_node_id":"0.0-5.0-56.0"},{"rt":2683.614999987185,"response":{"pregunta2 likert":1},"question_order":[0],"trial_type":"survey-likert","trial_index":62,"time_elapsed":2321331,"internal_node_id":"0.0-5.0-57.0"},{"rt":142400.34499997273,"responses":"{\"pregunta7\":\"a) Si desaparecieran el papel y la imprenta, se produciría un gran retraso en nuestra civilización. \"}","question_order":"[0]","trial_type":"survey-multi-choice","trial_index":63,"time_elapsed":2463733,"internal_node_id":"0.0-5.0-58.0"},{"rt":2665.300000051502,"response":{"pregunta7 likert":2},"question_order":[0],"trial_type":"survey-likert","trial_index":64,"time_elapsed":2466401,"internal_node_id":"0.0-5.0-59.0"},{"rt":3954.1149999713525,"stimulus":"<p style=\"font-size: 120%\">Gracias por completar esta etapa del estudio. Ahora te invitamos a responder el cuestionario.<br><br></p>","response":0,"trial_type":"html-button-response","trial_index":65,"time_elapsed":2470361,"internal_node_id":"0.0-6.0"},{"rt":9415.864999988116,"stimulus":"<h1 style=\"margin-top: 5%\">Cuestionario para la Evaluación de Metas Académicas</h1><p style=\"font-size: 120%; margin-left: 3%; margin-top: 5%\">Este es un cuestionario que permite conocer cuáles son los principales motivos por los que los estudiantes se esfuerzan en su trabajo académico. A continuación, se te presentarán una serie de afirmaciones acerca de los motivos que puedes tener para estudiar.<br>Te pedimos que contestes a dichas afirmaciones reflexionando sobre el contenido de cada una de ellas, que, aunque te parezcan semejantes, en realidad, no lo son.<br>NO HAY RESPUESTAS CORRECTAS o INCORRECTAS, sólo queremos que respondas con la mayor precisión y sinceridad posible a las preguntas que se plantean.","response":0,"trial_type":"html-button-response","trial_index":66,"time_elapsed":2479778,"internal_node_id":"0.0-7.0"},{"rt":75351.64000000805,"response":{"Metas cuestionario pregunta1":2,"Metas cuestionario pregunta2":3,"Metas cuestionario pregunta3":2,"Metas cuestionario pregunta4":2,"Metas cuestionario pregunta5":3,"Metas cuestionario pregunta6":3,"Metas cuestionario pregunta7":3,"Metas cuestionario pregunta8":3,"Metas cuestionario pregunta9":4,"Metas cuestionario pregunta10":2,"Metas cuestionario pregunta11":1,"Metas cuestionario pregunta12":1,"Metas cuestionario pregunta13":2,"Metas cuestionario pregunta14":2,"Metas cuestionario pregunta15":4,"Metas cuestionario pregunta16":4,"Metas cuestionario pregunta17":4,"Metas cuestionario pregunta18":4,"Metas cuestionario pregunta19":4,"Metas cuestionario pregunta20":4},"question_order":[0,1,2,3,4,5,6,7,8,9,10,11,12,13,14,15,16,17,18,19],"trial_type":"survey-likert","trial_index":67,"time_elapsed":2555134,"internal_node_id":"0.0-8.0"},{"rt":2424.8249999945983,"stimulus":"<p style=\"font-size: 120%\">Gracias por responder el cuestionario. Ahora te invitamos a seguir con el juego, que es muy breve.<br><br></p>","response":0,"trial_type":"html-button-response","trial_index":68,"time_elapsed":2557562,"internal_node_id":"0.0-9.0"},{"rt":1902.63500000583,"stimulus":"<h1>Juego</h1><p style=\"font-size: 120%;\">A continuación se te presentarán 16 pequeñas historias.<br>Por favor lee el texto presentado en cada una de ellas y luego haz click en el objeto de tu elección.<br>Si estás listo(a),<span style=\"color:red;\"> haz click en \"comenzar\"</span>.</p>","response":0,"trial_type":"html-button-response","trial_index":69,"time_elapsed":2559466,"internal_node_id":"0.0-10.0"},{"rt":17093.835000006948,"grid":[[1],[1],[1],[1],[1],[1]],"target":[0,0],"response":[2,0],"correct":false,"juego":5,"trial_type":"serial-reaction-time-mouse","trial_index":70,"time_elapsed":2576562,"internal_node_id":"0.0-11.0-0.0"},{"rt":10174.555000034161,"grid":[[1,1,1]],"target":[0,2],"response":[0,1],"correct":false,"juego":2,"trial_type":"serial-reaction-time-mouse","trial_index":71,"time_elapsed":2586738,"internal_node_id":"0.0-11.0-1.0"},{"rt":8170.849999994971,"grid":[[1,1,1]],"target":[0,2],"response":[0,2],"correct":true,"juego":7,"trial_type":"serial-reaction-time-mouse","trial_index":72,"time_elapsed":2594910,"internal_node_id":"0.0-11.0-2.0"},{"rt":13615.519999992102,"grid":[[1,1],[1,1],[1,1],[1,1],[1,1],[1,1],[1,1]],"target":[0,0],"response":[5,1],"correct":false,"juego":15,"trial_type":"serial-reaction-time-mouse","trial_index":73,"time_elapsed":2608529,"internal_node_id":"0.0-11.0-3.0"},{"rt":5915.615000005346,"grid":[[1,1,1],[1,1,1],[1,1,1],[1,1,1],[1,1,1],[1,1,1],[1,1,1]],"target":[0,0],"response":[1,1],"correct":false,"juego":6,"trial_type":"serial-reaction-time-mouse","trial_index":74,"time_elapsed":2614446,"internal_node_id":"0.0-11.0-4.0"},{"rt":3335.320000012871,"grid":[[1],[1],[1]],"target":[0,2],"response":[1,0],"correct":false,"juego":4,"trial_type":"serial-reaction-time-mouse","trial_index":75,"time_elapsed":2617783,"internal_node_id":"0.0-11.0-5.0"},{"rt":7826.004999980796,"grid":[[1,1],[1,1],[1,1],[1,1],[1,1],[1,1],[1,1]],"target":[0,0],"response":[5,1],"correct":false,"juego":14,"trial_type":"serial-reaction-time-mouse","trial_index":76,"time_elapsed":2625611,"internal_node_id":"0.0-11.0-6.0"},{"rt":12960.090000007767,"grid":[[1,1,1],[1,1,1],[1,1,1]],"target":[0,0],"response":[0,0],"correct":true,"juego":10,"trial_type":"serial-reaction-time-mouse","trial_index":77,"time_elapsed":2638572,"internal_node_id":"0.0-11.0-7.0"},{"rt":10918.484999972861,"grid":[[1,1,1],[1,1,1],[1,1,1],[1,1,1],[1,1,1],[1,1,1],[1,1,1]],"target":[0,0],"response":[1,1],"correct":false,"juego":13,"trial_type":"serial-reaction-time-mouse","trial_index":78,"time_elapsed":2649493,"internal_node_id":"0.0-11.0-8.0"},{"rt":13746.93500000285,"grid":[[1,1,1]],"target":[0,0],"response":[0,0],"correct":true,"juego":11,"trial_type":"serial-reaction-time-mouse","trial_index":79,"time_elapsed":2663240,"internal_node_id":"0.0-11.0-9.0"},{"rt":10066.73000002047,"grid":[[1,1,1]],"target":[0,2],"response":[0,2],"correct":true,"juego":8,"trial_type":"serial-reaction-time-mouse","trial_index":80,"time_elapsed":2673308,"internal_node_id":"0.0-11.0-10.0"},{"rt":9223.98000000976,"grid":[[1,1,1]],"target":[0,2],"response":[0,0],"correct":false,"juego":3,"trial_type":"serial-reaction-time-mouse","trial_index":81,"time_elapsed":2682533,"internal_node_id":"0.0-11.0-11.0"},{"rt":2282.420000003185,"grid":[[1,1,1]],"target":[0,2],"response":[0,1],"correct":false,"juego":1,"trial_type":"serial-reaction-time-mouse","trial_index":82,"time_elapsed":2684816,"internal_node_id":"0.0-11.0-12.0"},{"rt":10369.46999997599,"grid":[[1,1,1]],"target":[0,0],"response":[0,2],"correct":false,"juego":12,"trial_type":"serial-reaction-time-mouse","trial_index":83,"time_elapsed":2695187,"internal_node_id":"0.0-11.0-13.0"},{"rt":20896.41499996651,"grid":[[1,1,1]],"target":[0,0],"response":[0,0],"correct":true,"juego":9,"trial_type":"serial-reaction-time-mouse","trial_index":84,"time_elapsed":2716084,"internal_node_id":"0.0-11.0-14.0"}]