[{"rt":583607.0550000295,"stimulus":"<h1 style=\"color:red; margin-top: 3%;\">¡Bienvenido(a)!</h1><p style=\"text-align:left; justify-content:space-between; margin-right: 5%; margin-left: 5%; margin-top: 5%\"> Antes de empezar el estudio, necesitamos que nos confirmes que estás de acuerdo con participar. Recuerda que tu participación es 100% voluntaria y que lo único que te pedimos es responder lo mejor que puedas. Recuerda también que el estudio incluye:</p><ol style=\"text-align:left; justify-content:space-between; margin-right: 5%; margin-left: 5%;\"><li> un ejercicio de resolución de preguntas de selección múltiple (30’),</li><li>un cuestionario breve (5’),</li><li>un juego muy breve (3’),</li></ol><p style=\"text-align:left; justify-content:space-between; margin-right: 5%; margin-left: 5%;\">Si quieres participar, haz clic en “Acepto” luego de leer lo siguiente:<br></p><p style=\"text-align:left; justify-content:space-between; margin-right: 5%; margin-left: 5%;\">Acepto participar en el estudio “Estrategias de lectura y resolución de preguntas de selección múltiple”, en los términos aquí señalados:<br></p><p style=\"text-align:left; justify-content:space-between; margin-right: 5%; margin-left: 5%;\"><a href=\"http://ciae.uchile.cl/download.php?file=noticias/Asentimiento.pdf\" target=\"_blank\">Link a la hoja de información del Consentimiento.</a></p><p style=\"text-align:left; justify-content:space-between; margin-right: 5%; margin-left: 5%;\">Declaro que he leído (o se me ha leído) y (he) comprendido, las condiciones de mi participación en este estudio. He tenido la oportunidad de hacer preguntas y éstas han sido respondidas. No tengo dudas al respecto.</p>","response":0,"condicion_MCQ":1,"condicion_INTER":1,"numero_participante":1,"numero_version":1,"dimx":1366,"dimy":768,"color_profundidad":24,"pixel_profundidad":24,"Browser":"Google Chrome","trial_type":"html-button-response","trial_index":0,"time_elapsed":583619,"internal_node_id":"0.0-0.0"},{"success":true,"trial_type":"fullscreen","trial_index":1,"time_elapsed":619671,"internal_node_id":"0.0-1.0"},{"rt":119639.91500000702,"responses":"{\"Nombres\":\"Francisca Inés\",\"Apellidos\":\"Cabezas Barz\",\"Edad\":\"18\",\"Sexo\":\"mujer\",\"Curso\":\"primero \",\"Colegio\":\"Universidad Andrés Bello\",\"Contacto\":\"franciscacabezasbarz@gmial.com\"}","trial_type":"survey-text","trial_index":2,"time_elapsed":739380,"internal_node_id":"0.0-2.0"},{"success":true,"timeout":false,"failed_images":[],"failed_audio":[],"failed_video":[],"trial_type":"preload","trial_index":3,"time_elapsed":741148,"internal_node_id":"0.0-3.0"},{"rt":21706.810000003316,"stimulus":"<h1 style:\"margin-top: 5%;\">Ejercicios de Comprensión de Lectura de la Universidad de Chile</h1><p style=\"font-size: 120%;\">En esta actividad, debes responder 30 preguntas de selección múltiple. Cada pregunta presenta 3 respuestas alternativas, pero sólo una de ellas es correcta. Por lo tanto, debes escoger una sola alternativa para cada pregunta. Además, debes reportar qué tan seguro(a) estás de la respuesta que das, con un:</p><ol style=\"font-size: 120%;text-align:left;margin-left: 40%;\"><li>No estoy seguro(a) para nada</li><li>No estoy muy seguro(a)</li><li>Estoy bastante seguro(a)</li><li>Estoy totalmente seguro(a)</li></ol><p style=\"font-size: 120%;\">Por favor lee bien los enunciados antes de responder. ¡Éxito!</p>","response":0,"trial_type":"html-button-response","trial_index":4,"time_elapsed":762862,"internal_node_id":"0.0-4.0"},{"rt":83565.88499998907,"responses":"{\"pregunta12\":\"b) se da como existente, y sólo se discute su relación con el cuerpo. \"}","question_order":"[0]","trial_type":"survey-multi-choice","trial_index":5,"time_elapsed":846436,"internal_node_id":"0.0-5.0-0.0"},{"rt":12755.300000018906,"response":{"pregunta12 likert":2},"question_order":[0],"trial_type":"survey-likert","trial_index":6,"time_elapsed":859210,"internal_node_id":"0.0-5.0-1.0"},{"rt":89071.27999997465,"responses":"{\"pregunta8\":\"b) Comparar a Cervantes con Quevedo. \"}","question_order":"[0]","trial_type":"survey-multi-choice","trial_index":7,"time_elapsed":948296,"internal_node_id":"0.0-5.0-2.0"},{"rt":3759.6250000060536,"response":{"pregunta8 likert":1},"question_order":[0],"trial_type":"survey-likert","trial_index":8,"time_elapsed":952082,"internal_node_id":"0.0-5.0-3.0"},{"rt":179322.32999999542,"responses":"{\"pregunta5\":\"c) Los momentos triviales de los viajes, en la escritura se vuelven significativos. \"}","question_order":"[0]","trial_type":"survey-multi-choice","trial_index":9,"time_elapsed":1131424,"internal_node_id":"0.0-5.0-4.0"},{"rt":3929.92000002414,"response":{"pregunta5 likert":1},"question_order":[0],"trial_type":"survey-likert","trial_index":10,"time_elapsed":1135372,"internal_node_id":"0.0-5.0-5.0"},{"rt":92295.99999997299,"responses":"{\"pregunta19\":\"c) Las personas que leen son más flexibles en sus ideas y autónomas en su accionar. \"}","question_order":"[0]","trial_type":"survey-multi-choice","trial_index":11,"time_elapsed":1227684,"internal_node_id":"0.0-5.0-6.0"},{"rt":3539.199999999255,"response":{"pregunta19 likert":2},"question_order":[0],"trial_type":"survey-likert","trial_index":12,"time_elapsed":1231248,"internal_node_id":"0.0-5.0-7.0"},{"rt":82938.74999997206,"responses":"{\"pregunta10\":\"b) La biónica puede asegurar nuestra existencia mediante la aplicación de técnicas copiadas de la naturaleza. \"}","question_order":"[0]","trial_type":"survey-multi-choice","trial_index":13,"time_elapsed":1314197,"internal_node_id":"0.0-5.0-8.0"},{"rt":2537.0199999888428,"response":{"pregunta10 likert":3},"question_order":[0],"trial_type":"survey-likert","trial_index":14,"time_elapsed":1316761,"internal_node_id":"0.0-5.0-9.0"},{"rt":97582.25000003586,"responses":"{\"pregunta13\":\"c) El ser humano se comporta de acuerdo con las circunstancias. \"}","question_order":"[0]","trial_type":"survey-multi-choice","trial_index":15,"time_elapsed":1414365,"internal_node_id":"0.0-5.0-10.0"},{"rt":4247.715000004973,"response":{"pregunta13 likert":2},"question_order":[0],"trial_type":"survey-likert","trial_index":16,"time_elapsed":1418639,"internal_node_id":"0.0-5.0-11.0"},{"rt":76156.93500003545,"responses":"{\"pregunta27\":\"a) Nuestra economía vivirá un proceso de ajuste a la nueva realidad. \"}","question_order":"[0]","trial_type":"survey-multi-choice","trial_index":17,"time_elapsed":1494808,"internal_node_id":"0.0-5.0-12.0"},{"rt":3369.0049999859184,"response":{"pregunta27 likert":2},"question_order":[0],"trial_type":"survey-likert","trial_index":18,"time_elapsed":1498193,"internal_node_id":"0.0-5.0-13.0"},{"rt":128533.61500002211,"responses":"{\"pregunta6\":\"c) Las voces extranjeras viven una tensión entre la aceptación y el rechazo. \"}","question_order":"[0]","trial_type":"survey-multi-choice","trial_index":19,"time_elapsed":1626748,"internal_node_id":"0.0-5.0-14.0"},{"rt":3083.0950000090525,"response":{"pregunta6 likert":2},"question_order":[0],"trial_type":"survey-likert","trial_index":20,"time_elapsed":1629847,"internal_node_id":"0.0-5.0-15.0"},{"rt":188499.46000002092,"responses":"{\"pregunta26\":\"b) el sujeto sufre con su modo de vida. \"}","question_order":"[0]","trial_type":"survey-multi-choice","trial_index":21,"time_elapsed":1818367,"internal_node_id":"0.0-5.0-16.0"},{"rt":4020.635000022594,"response":{"pregunta26 likert":1},"question_order":[0],"trial_type":"survey-likert","trial_index":22,"time_elapsed":1822403,"internal_node_id":"0.0-5.0-17.0"},{"rt":137390.33999998355,"responses":"{\"pregunta29\":\"c) el jardinero estará muerto al día siguiente. \"}","question_order":"[0]","trial_type":"survey-multi-choice","trial_index":23,"time_elapsed":1959805,"internal_node_id":"0.0-5.0-18.0"},{"rt":3835.094999987632,"response":{"pregunta29 likert":1},"question_order":[0],"trial_type":"survey-likert","trial_index":24,"time_elapsed":1963667,"internal_node_id":"0.0-5.0-19.0"},{"rt":97647.1850000089,"responses":"{\"pregunta11\":\"a) Promover la asistencia a un evento específico de decoración a través de una atractiva descripción. \"}","question_order":"[0]","trial_type":"survey-multi-choice","trial_index":25,"time_elapsed":2061336,"internal_node_id":"0.0-5.0-20.0"},{"rt":3341.1399999749847,"response":{"pregunta11 likert":2},"question_order":[0],"trial_type":"survey-likert","trial_index":26,"time_elapsed":2064693,"internal_node_id":"0.0-5.0-21.0"},{"rt":34381.73999998253,"responses":"{\"pregunta22\":\"b) Bomberos debería tener acceso a un seguro médico, al que pueda recurrir en caso de accidente. \"}","question_order":"[0]","trial_type":"survey-multi-choice","trial_index":27,"time_elapsed":2099085,"internal_node_id":"0.0-5.0-22.0"},{"rt":4266.204999992624,"response":{"pregunta22 likert":2},"question_order":[0],"trial_type":"survey-likert","trial_index":28,"time_elapsed":2103367,"internal_node_id":"0.0-5.0-23.0"},{"rt":83176.34000000544,"responses":"{\"pregunta25\":\"a) tienen dificultades durante el parto. \"}","question_order":"[0]","trial_type":"survey-multi-choice","trial_index":29,"time_elapsed":2186565,"internal_node_id":"0.0-5.0-24.0"},{"rt":5647.419999993872,"response":{"pregunta25 likert":1},"question_order":[0],"trial_type":"survey-likert","trial_index":30,"time_elapsed":2192229,"internal_node_id":"0.0-5.0-25.0"},{"rt":86318.96000000415,"responses":"{\"pregunta15\":\"a) ritualistas y obsesivos. \"}","question_order":"[0]","trial_type":"survey-multi-choice","trial_index":31,"time_elapsed":2278564,"internal_node_id":"0.0-5.0-26.0"},{"rt":3429.530000023078,"response":{"pregunta15 likert":3},"question_order":[0],"trial_type":"survey-likert","trial_index":32,"time_elapsed":2282015,"internal_node_id":"0.0-5.0-27.0"},{"rt":94562.57499998901,"responses":"{\"pregunta14\":\"a) preparar los recuerdos del mañana. \"}","question_order":"[0]","trial_type":"survey-multi-choice","trial_index":33,"time_elapsed":2376595,"internal_node_id":"0.0-5.0-28.0"},{"rt":3453.49000004353,"response":{"pregunta14 likert":2},"question_order":[0],"trial_type":"survey-likert","trial_index":34,"time_elapsed":2380066,"internal_node_id":"0.0-5.0-29.0"},{"rt":97967.14999998221,"responses":"{\"pregunta24\":\"b) El receptor es habitualmente pasivo frente a la publicidad. \"}","question_order":"[0]","trial_type":"survey-multi-choice","trial_index":35,"time_elapsed":2478049,"internal_node_id":"0.0-5.0-30.0"},{"rt":3300.084999995306,"response":{"pregunta24 likert":2},"question_order":[0],"trial_type":"survey-likert","trial_index":36,"time_elapsed":2481369,"internal_node_id":"0.0-5.0-31.0"},{"rt":67587.18499995302,"responses":"{\"pregunta2\":\"a) A la relación entre pensamiento y estructura social. \"}","question_order":"[0]","trial_type":"survey-multi-choice","trial_index":37,"time_elapsed":2548972,"internal_node_id":"0.0-5.0-32.0"},{"rt":2778.0149999889545,"response":{"pregunta2 likert":2},"question_order":[0],"trial_type":"survey-likert","trial_index":38,"time_elapsed":2551767,"internal_node_id":"0.0-5.0-33.0"},{"rt":57345.07499996107,"responses":"{\"pregunta30\":\"b) la muerte es distinta en las grandes ciudades. \"}","question_order":"[0]","trial_type":"survey-multi-choice","trial_index":39,"time_elapsed":2609128,"internal_node_id":"0.0-5.0-34.0"},{"rt":3078.429999994114,"response":{"pregunta30 likert":2},"question_order":[0],"trial_type":"survey-likert","trial_index":40,"time_elapsed":2612222,"internal_node_id":"0.0-5.0-35.0"},{"rt":53237.34500003047,"responses":"{\"pregunta28\":\"b) Se necesita un marco legal para delimitar lo público y lo privado en materia informativa. \"}","question_order":"[0]","trial_type":"survey-multi-choice","trial_index":41,"time_elapsed":2665475,"internal_node_id":"0.0-5.0-36.0"},{"rt":3537.995000020601,"response":{"pregunta28 likert":3},"question_order":[0],"trial_type":"survey-likert","trial_index":42,"time_elapsed":2669030,"internal_node_id":"0.0-5.0-37.0"},{"rt":102638.089999964,"responses":"{\"pregunta23\":\"c) A la influencia de grupos que rechazaban su música. \"}","question_order":"[0]","trial_type":"survey-multi-choice","trial_index":43,"time_elapsed":2771684,"internal_node_id":"0.0-5.0-38.0"},{"rt":2460.1699999766424,"response":{"pregunta23 likert":1},"question_order":[0],"trial_type":"survey-likert","trial_index":44,"time_elapsed":2774161,"internal_node_id":"0.0-5.0-39.0"},{"rt":85133.39500001166,"responses":"{\"pregunta9\":\"a) pueden rendir exámenes para optar y obtener títulos profesionales igual que los hombres. \"}","question_order":"[0]","trial_type":"survey-multi-choice","trial_index":45,"time_elapsed":2859311,"internal_node_id":"0.0-5.0-40.0"},{"rt":2323.900000017602,"response":{"pregunta9 likert":2},"question_order":[0],"trial_type":"survey-likert","trial_index":46,"time_elapsed":2861659,"internal_node_id":"0.0-5.0-41.0"},{"rt":77296.97999998461,"responses":"{\"pregunta7\":\"b) La imprenta y el papel han permitido el desarrollo de la civilización y la conservación de su cultura, y ambos son inventos chinos. \"}","question_order":"[0]","trial_type":"survey-multi-choice","trial_index":47,"time_elapsed":2938973,"internal_node_id":"0.0-5.0-42.0"},{"rt":3147.8399999905378,"response":{"pregunta7 likert":3},"question_order":[0],"trial_type":"survey-likert","trial_index":48,"time_elapsed":2942139,"internal_node_id":"0.0-5.0-43.0"},{"rt":94150.97000001697,"responses":"{\"pregunta16\":\"c) Provocar el deseo de la adquisición vertiginosa. \"}","question_order":"[0]","trial_type":"survey-multi-choice","trial_index":49,"time_elapsed":3036306,"internal_node_id":"0.0-5.0-44.0"},{"rt":3428.6250000004657,"response":{"pregunta16 likert":1},"question_order":[0],"trial_type":"survey-likert","trial_index":50,"time_elapsed":3039750,"internal_node_id":"0.0-5.0-45.0"},{"rt":77869.63000003016,"responses":"{\"pregunta21\":\"b) la creación de elementos químicos artificiales ha resultado de la manipulación del uranio. \"}","question_order":"[0]","trial_type":"survey-multi-choice","trial_index":51,"time_elapsed":3117634,"internal_node_id":"0.0-5.0-46.0"},{"rt":2810.384999960661,"response":{"pregunta21 likert":1},"question_order":[0],"trial_type":"survey-likert","trial_index":52,"time_elapsed":3120468,"internal_node_id":"0.0-5.0-47.0"},{"rt":91709.28999996977,"responses":"{\"pregunta3\":\"b) El inicio de la civilización china. \"}","question_order":"[0]","trial_type":"survey-multi-choice","trial_index":53,"time_elapsed":3212194,"internal_node_id":"0.0-5.0-48.0"},{"rt":2931.570000015199,"response":{"pregunta3 likert":1},"question_order":[0],"trial_type":"survey-likert","trial_index":54,"time_elapsed":3215150,"internal_node_id":"0.0-5.0-49.0"},{"rt":71243.95000003278,"responses":"{\"pregunta18\":\"c) A la inutilidad de tanto esfuerzo si el objetivo es el reposo. \"}","question_order":"[0]","trial_type":"survey-multi-choice","trial_index":55,"time_elapsed":3286410,"internal_node_id":"0.0-5.0-50.0"},{"rt":2891.6450000251643,"response":{"pregunta18 likert":3},"question_order":[0],"trial_type":"survey-likert","trial_index":56,"time_elapsed":3289319,"internal_node_id":"0.0-5.0-51.0"},{"rt":91937.74999998277,"responses":"{\"pregunta4\":\"c) En la literatura como en la vida, lo importante son las preguntas. \"}","question_order":"[0]","trial_type":"survey-multi-choice","trial_index":57,"time_elapsed":3381274,"internal_node_id":"0.0-5.0-52.0"},{"rt":2452.7349999989383,"response":{"pregunta4 likert":2},"question_order":[0],"trial_type":"survey-likert","trial_index":58,"time_elapsed":3383742,"internal_node_id":"0.0-5.0-53.0"},{"rt":55040.390000038315,"responses":"{\"pregunta1\":\"a) Entregan una característica detallada del personaje, a través de la voz narrativa. \"}","question_order":"[0]","trial_type":"survey-multi-choice","trial_index":59,"time_elapsed":3438792,"internal_node_id":"0.0-5.0-54.0"},{"rt":2677.5500000221655,"response":{"pregunta1 likert":2},"question_order":[0],"trial_type":"survey-likert","trial_index":60,"time_elapsed":3441485,"internal_node_id":"0.0-5.0-55.0"},{"rt":109605.18499999307,"responses":"{\"pregunta20\":\"a) sólo las leyes bastan para gobernarse. \"}","question_order":"[0]","trial_type":"survey-multi-choice","trial_index":61,"time_elapsed":3551107,"internal_node_id":"0.0-5.0-56.0"},{"rt":3378.850000037346,"response":{"pregunta20 likert":2},"question_order":[0],"trial_type":"survey-likert","trial_index":62,"time_elapsed":3554502,"internal_node_id":"0.0-5.0-57.0"},{"rt":183916.85500001768,"responses":"{\"pregunta17\":\"b) Homenajear a quienes murieron. \"}","question_order":"[0]","trial_type":"survey-multi-choice","trial_index":63,"time_elapsed":3738440,"internal_node_id":"0.0-5.0-58.0"},{"rt":4724.400000006426,"response":{"pregunta17 likert":2},"question_order":[0],"trial_type":"survey-likert","trial_index":64,"time_elapsed":3743190,"internal_node_id":"0.0-5.0-59.0"},{"rt":4833.420000039041,"stimulus":"<p style=\"font-size: 120%\">Gracias por completar esta etapa del estudio. Ahora te invitamos a responder el cuestionario.<br><br></p>","response":0,"trial_type":"html-button-response","trial_index":65,"time_elapsed":3748050,"internal_node_id":"0.0-6.0"},{"rt":32710.090000007767,"stimulus":"<h1 style=\"margin-top: 5%\">Cuestionario para la Evaluación de Metas Académicas</h1><p style=\"font-size: 120%; margin-left: 3%; margin-top: 5%\">Este es un cuestionario que permite conocer cuáles son los principales motivos por los que los estudiantes se esfuerzan en su trabajo académico. A continuación, se te presentarán una serie de afirmaciones acerca de los motivos que puedes tener para estudiar.<br>Te pedimos que contestes a dichas afirmaciones reflexionando sobre el contenido de cada una de ellas, que, aunque te parezcan semejantes, en realidad, no lo son.<br>NO HAY RESPUESTAS CORRECTAS o INCORRECTAS, sólo queremos que respondas con la mayor precisión y sinceridad posible a las preguntas que se plantean.","response":0,"trial_type":"html-button-response","trial_index":66,"time_elapsed":3780763,"internal_node_id":"0.0-7.0"},{"rt":204127.00499995844,"response":{"Metas cuestionario pregunta1":2,"Metas cuestionario pregunta2":4,"Metas cuestionario pregunta3":3,"Metas cuestionario pregunta4":2,"Metas cuestionario pregunta5":4,"Metas cuestionario pregunta6":3,"Metas cuestionario pregunta7":3,"Metas cuestionario pregunta8":2,"Metas cuestionario pregunta9":1,"Metas cuestionario pregunta10":1,"Metas cuestionario pregunta11":0,"Metas cuestionario pregunta12":0,"Metas cuestionario pregunta13":2,"Metas cuestionario pregunta14":2,"Metas cuestionario pregunta15":4,"Metas cuestionario pregunta16":4,"Metas cuestionario pregunta17":4,"Metas cuestionario pregunta18":4,"Metas cuestionario pregunta19":4,"Metas cuestionario pregunta20":4},"question_order":[0,1,2,3,4,5,6,7,8,9,10,11,12,13,14,15,16,17,18,19],"trial_type":"survey-likert","trial_index":67,"time_elapsed":3984919,"internal_node_id":"0.0-8.0"}]