[{"rt":17529.885000025388,"stimulus":"<h1 style=\"color:red; margin-top: 3%;\">¡Bienvenido(a)!</h1><p style=\"text-align:left; justify-content:space-between; margin-right: 5%; margin-left: 5%; margin-top: 5%\"> Antes de empezar el estudio, necesitamos que nos confirmes que estás de acuerdo con participar. Recuerda que tu participación es 100% voluntaria y que lo único que te pedimos es responder lo mejor que puedas. Recuerda también que el estudio incluye:</p><ol style=\"text-align:left; justify-content:space-between; margin-right: 5%; margin-left: 5%;\"><li> un ejercicio de resolución de preguntas de selección múltiple (30’),</li><li>un cuestionario breve (5’),</li><li>un juego muy breve (3’),</li></ol><p style=\"text-align:left; justify-content:space-between; margin-right: 5%; margin-left: 5%;\">Si quieres participar, haz clic en “Acepto” luego de leer lo siguiente:<br></p><p style=\"text-align:left; justify-content:space-between; margin-right: 5%; margin-left: 5%;\">Acepto participar en el estudio “Estrategias de lectura y resolución de preguntas de selección múltiple”, en los términos aquí señalados:<br></p><p style=\"text-align:left; justify-content:space-between; margin-right: 5%; margin-left: 5%;\"><a href=\"http://ciae.uchile.cl/download.php?file=noticias/Asentimiento.pdf\" target=\"_blank\">Link a la hoja de información del Consentimiento.</a></p><p style=\"text-align:left; justify-content:space-between; margin-right: 5%; margin-left: 5%;\">Declaro que he leído (o se me ha leído) y (he) comprendido, las condiciones de mi participación en este estudio. He tenido la oportunidad de hacer preguntas y éstas han sido respondidas. No tengo dudas al respecto.</p>","response":0,"condicion_MCQ":1,"condicion_INTER":13,"numero_participante":37,"numero_version":1,"dimx":1366,"dimy":768,"color_profundidad":24,"pixel_profundidad":24,"Browser":"Google Chrome","trial_type":"html-button-response","trial_index":0,"time_elapsed":17535,"internal_node_id":"0.0-0.0"},{"success":true,"trial_type":"fullscreen","trial_index":1,"time_elapsed":20516,"internal_node_id":"0.0-1.0"},{"rt":95342.77500002645,"responses":"{\"Nombres\":\"Camila Antonia\",\"Apellidos\":\"Cisternas Alarcón\",\"Edad\":\"18\",\"Sexo\":\"Mujer\",\"Curso\":\"1° Psicologia\",\"Colegio\":\"Universidad Andrés Bello\",\"Contacto\":\"cisternasalarcon.c@gmail.com\"}","trial_type":"survey-text","trial_index":2,"time_elapsed":115886,"internal_node_id":"0.0-2.0"},{"success":true,"timeout":false,"failed_images":[],"failed_audio":[],"failed_video":[],"trial_type":"preload","trial_index":3,"time_elapsed":126205,"internal_node_id":"0.0-3.0"},{"rt":20207.22999999998,"stimulus":"<h1 style:\"margin-top: 5%;\">Ejercicios de Comprensión de Lectura de la Universidad de Chile</h1><p style=\"font-size: 120%;\">En esta actividad, debes responder 30 preguntas de selección múltiple. Cada pregunta presenta 3 respuestas alternativas, pero sólo una de ellas es correcta. Por lo tanto, debes escoger una sola alternativa para cada pregunta. Además, debes reportar qué tan seguro(a) estás de la respuesta que das, con un:</p><ol style=\"font-size: 120%;text-align:left;margin-left: 40%;\"><li>No estoy seguro(a) para nada</li><li>No estoy muy seguro(a)</li><li>Estoy bastante seguro(a)</li><li>Estoy totalmente seguro(a)</li></ol><p style=\"font-size: 120%;\">Por favor lee bien los enunciados antes de responder. ¡Éxito!</p>","response":0,"trial_type":"html-button-response","trial_index":4,"time_elapsed":146415,"internal_node_id":"0.0-4.0"},{"rt":34298.94999996759,"responses":"{\"pregunta30\":\"a) para el mexicano, la muerte es cotidiana. \"}","question_order":"[0]","trial_type":"survey-multi-choice","trial_index":5,"time_elapsed":180716,"internal_node_id":"0.0-5.0-0.0"},{"rt":4991.284999996424,"response":{"pregunta30 likert":2},"question_order":[0],"trial_type":"survey-likert","trial_index":6,"time_elapsed":185711,"internal_node_id":"0.0-5.0-1.0"},{"rt":30547.860000049695,"responses":"{\"pregunta28\":\"a) El derecho a informar y el derecho a la privacidad son inconciliables. \"}","question_order":"[0]","trial_type":"survey-multi-choice","trial_index":7,"time_elapsed":216263,"internal_node_id":"0.0-5.0-2.0"},{"rt":4147.705000010319,"response":{"pregunta28 likert":3},"question_order":[0],"trial_type":"survey-likert","trial_index":8,"time_elapsed":220414,"internal_node_id":"0.0-5.0-3.0"},{"rt":35256.584999966435,"responses":"{\"pregunta21\":\"c) a partir de la manipulación del núcleo se han creado elementos químicos naturales. \"}","question_order":"[0]","trial_type":"survey-multi-choice","trial_index":9,"time_elapsed":255674,"internal_node_id":"0.0-5.0-4.0"},{"rt":4280.480000015814,"response":{"pregunta21 likert":2},"question_order":[0],"trial_type":"survey-likert","trial_index":10,"time_elapsed":259959,"internal_node_id":"0.0-5.0-5.0"},{"rt":46243.54500003392,"responses":"{\"pregunta4\":\"c) En la literatura como en la vida, lo importante son las preguntas. \"}","question_order":"[0]","trial_type":"survey-multi-choice","trial_index":11,"time_elapsed":306206,"internal_node_id":"0.0-5.0-6.0"},{"rt":3242.9899999988265,"response":{"pregunta4 likert":2},"question_order":[0],"trial_type":"survey-likert","trial_index":12,"time_elapsed":309444,"internal_node_id":"0.0-5.0-7.0"},{"rt":31328.30999995349,"responses":"{\"pregunta27\":\"a) Nuestra economía vivirá un proceso de ajuste a la nueva realidad. \"}","question_order":"[0]","trial_type":"survey-multi-choice","trial_index":13,"time_elapsed":340775,"internal_node_id":"0.0-5.0-8.0"},{"rt":4837.614999967627,"response":{"pregunta27 likert":1},"question_order":[0],"trial_type":"survey-likert","trial_index":14,"time_elapsed":345616,"internal_node_id":"0.0-5.0-9.0"},{"rt":40340.81999998307,"responses":"{\"pregunta18\":\"b) Al deseo de privilegiar el ocio por sobre el trabajo. \"}","question_order":"[0]","trial_type":"survey-multi-choice","trial_index":15,"time_elapsed":385966,"internal_node_id":"0.0-5.0-10.0"},{"rt":3321.669999975711,"response":{"pregunta18 likert":2},"question_order":[0],"trial_type":"survey-likert","trial_index":16,"time_elapsed":389291,"internal_node_id":"0.0-5.0-11.0"},{"rt":57378.37499997113,"responses":"{\"pregunta10\":\"a) La biónica es una disciplina que aprovecha las condiciones del entorno. \"}","question_order":"[0]","trial_type":"survey-multi-choice","trial_index":17,"time_elapsed":446672,"internal_node_id":"0.0-5.0-12.0"},{"rt":3621.4299999992363,"response":{"pregunta10 likert":2},"question_order":[0],"trial_type":"survey-likert","trial_index":18,"time_elapsed":450296,"internal_node_id":"0.0-5.0-13.0"},{"rt":46651.830000046175,"responses":"{\"pregunta15\":\"a) ritualistas y obsesivos. \"}","question_order":"[0]","trial_type":"survey-multi-choice","trial_index":19,"time_elapsed":496951,"internal_node_id":"0.0-5.0-14.0"},{"rt":3621.854999975767,"response":{"pregunta15 likert":1},"question_order":[0],"trial_type":"survey-likert","trial_index":20,"time_elapsed":500575,"internal_node_id":"0.0-5.0-15.0"},{"rt":22468.114999996033,"responses":"{\"pregunta3\":\"b) El inicio de la civilización china. \"}","question_order":"[0]","trial_type":"survey-multi-choice","trial_index":21,"time_elapsed":523047,"internal_node_id":"0.0-5.0-16.0"},{"rt":5972.379999991972,"response":{"pregunta3 likert":3},"question_order":[0],"trial_type":"survey-likert","trial_index":22,"time_elapsed":529022,"internal_node_id":"0.0-5.0-17.0"},{"rt":51756.61000004038,"responses":"{\"pregunta6\":\"a) La aparición del Diccionario Académico ha sido polémica. \"}","question_order":"[0]","trial_type":"survey-multi-choice","trial_index":23,"time_elapsed":580782,"internal_node_id":"0.0-5.0-18.0"},{"rt":2923.144999949727,"response":{"pregunta6 likert":2},"question_order":[0],"trial_type":"survey-likert","trial_index":24,"time_elapsed":583708,"internal_node_id":"0.0-5.0-19.0"},{"rt":47775.82999999868,"responses":"{\"pregunta23\":\"c) A la influencia de grupos que rechazaban su música. \"}","question_order":"[0]","trial_type":"survey-multi-choice","trial_index":25,"time_elapsed":631487,"internal_node_id":"0.0-5.0-20.0"},{"rt":5753.115000028629,"response":{"pregunta23 likert":3},"question_order":[0],"trial_type":"survey-likert","trial_index":26,"time_elapsed":637242,"internal_node_id":"0.0-5.0-21.0"},{"rt":46995.62999996124,"responses":"{\"pregunta8\":\"a) Caracterizar al Quijote como un pelmazo. \"}","question_order":"[0]","trial_type":"survey-multi-choice","trial_index":27,"time_elapsed":684242,"internal_node_id":"0.0-5.0-22.0"},{"rt":2846.2949999957345,"response":{"pregunta8 likert":2},"question_order":[0],"trial_type":"survey-likert","trial_index":28,"time_elapsed":687091,"internal_node_id":"0.0-5.0-23.0"},{"rt":61781.75000002375,"responses":"{\"pregunta26\":\"a) para Aristóteles la virtud estaba en el justo equilibrio. \"}","question_order":"[0]","trial_type":"survey-multi-choice","trial_index":29,"time_elapsed":748876,"internal_node_id":"0.0-5.0-24.0"},{"rt":3665.355000004638,"response":{"pregunta26 likert":3},"question_order":[0],"trial_type":"survey-likert","trial_index":30,"time_elapsed":752546,"internal_node_id":"0.0-5.0-25.0"},{"rt":63903.345000057016,"responses":"{\"pregunta25\":\"a) tienen dificultades durante el parto. \"}","question_order":"[0]","trial_type":"survey-multi-choice","trial_index":31,"time_elapsed":816453,"internal_node_id":"0.0-5.0-26.0"},{"rt":3526.6650000121444,"response":{"pregunta25 likert":2},"question_order":[0],"trial_type":"survey-likert","trial_index":32,"time_elapsed":819982,"internal_node_id":"0.0-5.0-27.0"},{"rt":53988.460000022314,"responses":"{\"pregunta7\":\"c) Si desaparecieran el papel y la imprenta, se produciría un gran retraso en nuestra civilización. \"}","question_order":"[0]","trial_type":"survey-multi-choice","trial_index":33,"time_elapsed":873974,"internal_node_id":"0.0-5.0-28.0"},{"rt":2984.954999992624,"response":{"pregunta7 likert":2},"question_order":[0],"trial_type":"survey-likert","trial_index":34,"time_elapsed":876962,"internal_node_id":"0.0-5.0-29.0"},{"rt":48049.43499999354,"responses":"{\"pregunta14\":\"a) preparar los recuerdos del mañana. \"}","question_order":"[0]","trial_type":"survey-multi-choice","trial_index":35,"time_elapsed":925013,"internal_node_id":"0.0-5.0-30.0"},{"rt":2877.9300000169314,"response":{"pregunta14 likert":2},"question_order":[0],"trial_type":"survey-likert","trial_index":36,"time_elapsed":927894,"internal_node_id":"0.0-5.0-31.0"},{"rt":52631.89000001876,"responses":"{\"pregunta20\":\"a) sólo las leyes bastan para gobernarse. \"}","question_order":"[0]","trial_type":"survey-multi-choice","trial_index":37,"time_elapsed":980529,"internal_node_id":"0.0-5.0-32.0"},{"rt":3431.205000029877,"response":{"pregunta20 likert":1},"question_order":[0],"trial_type":"survey-likert","trial_index":38,"time_elapsed":983959,"internal_node_id":"0.0-5.0-33.0"},{"rt":56648.65500002634,"responses":"{\"pregunta17\":\"b) Homenajear a quienes murieron. \"}","question_order":"[0]","trial_type":"survey-multi-choice","trial_index":39,"time_elapsed":1040611,"internal_node_id":"0.0-5.0-34.0"},{"rt":3331.1249999678694,"response":{"pregunta17 likert":2},"question_order":[0],"trial_type":"survey-likert","trial_index":40,"time_elapsed":1043950,"internal_node_id":"0.0-5.0-35.0"},{"rt":36927.685000002384,"responses":"{\"pregunta1\":\"b) Aportan informaciones con las que se reconstruye el personaje dentro de un relato. \"}","question_order":"[0]","trial_type":"survey-multi-choice","trial_index":41,"time_elapsed":1080880,"internal_node_id":"0.0-5.0-36.0"},{"rt":3486.1200000159442,"response":{"pregunta1 likert":2},"question_order":[0],"trial_type":"survey-likert","trial_index":42,"time_elapsed":1084369,"internal_node_id":"0.0-5.0-37.0"},{"rt":50268.48999998765,"responses":"{\"pregunta11\":\"c) Presentar positivamente las diversas tendencias del diseño de interiores a través de un comentario. \"}","question_order":"[0]","trial_type":"survey-multi-choice","trial_index":43,"time_elapsed":1134640,"internal_node_id":"0.0-5.0-38.0"},{"rt":4185.424999974202,"response":{"pregunta11 likert":2},"question_order":[0],"trial_type":"survey-likert","trial_index":44,"time_elapsed":1138828,"internal_node_id":"0.0-5.0-39.0"},{"rt":117274.22000002116,"responses":"{\"pregunta9\":\"a) pueden rendir exámenes para optar y obtener títulos profesionales igual que los hombres. \"}","question_order":"[0]","trial_type":"survey-multi-choice","trial_index":45,"time_elapsed":1256106,"internal_node_id":"0.0-5.0-40.0"},{"rt":5711.654999991879,"response":{"pregunta9 likert":1},"question_order":[0],"trial_type":"survey-likert","trial_index":46,"time_elapsed":1261820,"internal_node_id":"0.0-5.0-41.0"},{"rt":88605.69499997655,"responses":"{\"pregunta12\":\"b) se da como existente, y sólo se discute su relación con el cuerpo. \"}","question_order":"[0]","trial_type":"survey-multi-choice","trial_index":47,"time_elapsed":1350429,"internal_node_id":"0.0-5.0-42.0"},{"rt":2634.3099999940023,"response":{"pregunta12 likert":2},"question_order":[0],"trial_type":"survey-likert","trial_index":48,"time_elapsed":1353066,"internal_node_id":"0.0-5.0-43.0"},{"rt":54936.52499996824,"responses":"{\"pregunta13\":\"c) El ser humano se comporta de acuerdo con las circunstancias. \"}","question_order":"[0]","trial_type":"survey-multi-choice","trial_index":49,"time_elapsed":1408005,"internal_node_id":"0.0-5.0-44.0"},{"rt":4756.115000054706,"response":{"pregunta13 likert":3},"question_order":[0],"trial_type":"survey-likert","trial_index":50,"time_elapsed":1412765,"internal_node_id":"0.0-5.0-45.0"},{"rt":62565.02999999793,"responses":"{\"pregunta24\":\"b) El receptor es habitualmente pasivo frente a la publicidad. \"}","question_order":"[0]","trial_type":"survey-multi-choice","trial_index":51,"time_elapsed":1475333,"internal_node_id":"0.0-5.0-46.0"},{"rt":3535.5250000138767,"response":{"pregunta24 likert":1},"question_order":[0],"trial_type":"survey-likert","trial_index":52,"time_elapsed":1478871,"internal_node_id":"0.0-5.0-47.0"},{"rt":38171.78999999305,"responses":"{\"pregunta2\":\"a) A la relación entre pensamiento y estructura social. \"}","question_order":"[0]","trial_type":"survey-multi-choice","trial_index":53,"time_elapsed":1517046,"internal_node_id":"0.0-5.0-48.0"},{"rt":3383.674999990035,"response":{"pregunta2 likert":1},"question_order":[0],"trial_type":"survey-likert","trial_index":54,"time_elapsed":1520433,"internal_node_id":"0.0-5.0-49.0"},{"rt":54490.9200000111,"responses":"{\"pregunta19\":\"b) Si no se lee, es imposible valorar la planificación y aceptar principios científicos. \"}","question_order":"[0]","trial_type":"survey-multi-choice","trial_index":55,"time_elapsed":1574927,"internal_node_id":"0.0-5.0-50.0"},{"rt":2575.554999988526,"response":{"pregunta19 likert":2},"question_order":[0],"trial_type":"survey-likert","trial_index":56,"time_elapsed":1577505,"internal_node_id":"0.0-5.0-51.0"},{"rt":38084.36500001699,"responses":"{\"pregunta29\":\"a) la Muerte vaticina el futuro mediante gestos. \"}","question_order":"[0]","trial_type":"survey-multi-choice","trial_index":57,"time_elapsed":1615592,"internal_node_id":"0.0-5.0-52.0"},{"rt":3503.465000016149,"response":{"pregunta29 likert":2},"question_order":[0],"trial_type":"survey-likert","trial_index":58,"time_elapsed":1619098,"internal_node_id":"0.0-5.0-53.0"},{"rt":18542.77000000002,"responses":"{\"pregunta5\":\"a) La escritura plasma los mejores momentos de los viajes. \"}","question_order":"[0]","trial_type":"survey-multi-choice","trial_index":59,"time_elapsed":1637644,"internal_node_id":"0.0-5.0-54.0"},{"rt":2830.0649999873713,"response":{"pregunta5 likert":2},"question_order":[0],"trial_type":"survey-likert","trial_index":60,"time_elapsed":1640477,"internal_node_id":"0.0-5.0-55.0"},{"rt":30100.800000014715,"responses":"{\"pregunta16\":\"c) Provocar el deseo de la adquisición vertiginosa. \"}","question_order":"[0]","trial_type":"survey-multi-choice","trial_index":61,"time_elapsed":1670580,"internal_node_id":"0.0-5.0-56.0"},{"rt":3557.440000004135,"response":{"pregunta16 likert":2},"question_order":[0],"trial_type":"survey-likert","trial_index":62,"time_elapsed":1674141,"internal_node_id":"0.0-5.0-57.0"},{"rt":25860.510000027716,"responses":"{\"pregunta22\":\"a) Se debe crear un seguro médico especial para esta institución, pues es de alto riesgo. \"}","question_order":"[0]","trial_type":"survey-multi-choice","trial_index":63,"time_elapsed":1700004,"internal_node_id":"0.0-5.0-58.0"},{"rt":3183.1900000106543,"response":{"pregunta22 likert":2},"question_order":[0],"trial_type":"survey-likert","trial_index":64,"time_elapsed":1703190,"internal_node_id":"0.0-5.0-59.0"},{"rt":1717.0049999840558,"stimulus":"<p style=\"font-size: 120%\">Gracias por completar esta etapa del estudio. Ahora te invitamos a responder el cuestionario.<br><br></p>","response":0,"trial_type":"html-button-response","trial_index":65,"time_elapsed":1704916,"internal_node_id":"0.0-6.0"},{"rt":3973.169999953825,"stimulus":"<h1 style=\"margin-top: 5%\">Cuestionario para la Evaluación de Metas Académicas</h1><p style=\"font-size: 120%; margin-left: 3%; margin-top: 5%\">Este es un cuestionario que permite conocer cuáles son los principales motivos por los que los estudiantes se esfuerzan en su trabajo académico. A continuación, se te presentarán una serie de afirmaciones acerca de los motivos que puedes tener para estudiar.<br>Te pedimos que contestes a dichas afirmaciones reflexionando sobre el contenido de cada una de ellas, que, aunque te parezcan semejantes, en realidad, no lo son.<br>NO HAY RESPUESTAS CORRECTAS o INCORRECTAS, sólo queremos que respondas con la mayor precisión y sinceridad posible a las preguntas que se plantean.","response":0,"trial_type":"html-button-response","trial_index":66,"time_elapsed":1708891,"internal_node_id":"0.0-7.0"},{"rt":136769.820000045,"response":{"Metas cuestionario pregunta1":2,"Metas cuestionario pregunta2":2,"Metas cuestionario pregunta3":1,"Metas cuestionario pregunta4":0,"Metas cuestionario pregunta5":2,"Metas cuestionario pregunta6":1,"Metas cuestionario pregunta7":2,"Metas cuestionario pregunta8":2,"Metas cuestionario pregunta9":1,"Metas cuestionario pregunta10":0,"Metas cuestionario pregunta11":0,"Metas cuestionario pregunta12":0,"Metas cuestionario pregunta13":0,"Metas cuestionario pregunta14":0,"Metas cuestionario pregunta15":3,"Metas cuestionario pregunta16":4,"Metas cuestionario pregunta17":4,"Metas cuestionario pregunta18":4,"Metas cuestionario pregunta19":4,"Metas cuestionario pregunta20":4},"question_order":[0,1,2,3,4,5,6,7,8,9,10,11,12,13,14,15,16,17,18,19],"trial_type":"survey-likert","trial_index":67,"time_elapsed":1845675,"internal_node_id":"0.0-8.0"},{"rt":2370.7500000018626,"stimulus":"<p style=\"font-size: 120%\">Gracias por responder el cuestionario. Ahora te invitamos a seguir con el juego, que es muy breve.<br><br></p>","response":0,"trial_type":"html-button-response","trial_index":68,"time_elapsed":1848053,"internal_node_id":"0.0-9.0"},{"rt":14882.715000014286,"stimulus":"<h1>Juego</h1><p style=\"font-size: 120%;\">A continuación se te presentarán 16 pequeñas historias.<br>Por favor lee el texto presentado en cada una de ellas y luego haz click en el objeto de tu elección.<br>Si estás listo(a),<span style=\"color:red;\"> haz click en \"comenzar\"</span>.</p>","response":0,"trial_type":"html-button-response","trial_index":69,"time_elapsed":1862938,"internal_node_id":"0.0-10.0"},{"rt":41851.450000016484,"grid":[[1,1,1],[1,1,1],[1,1,1]],"target":[0,0],"response":[0,2],"correct":false,"juego":10,"trial_type":"serial-reaction-time-mouse","trial_index":70,"time_elapsed":1904794,"internal_node_id":"0.0-11.0-0.0"},{"rt":14739.784999983385,"grid":[[1,1,1]],"target":[0,2],"response":[0,1],"correct":false,"juego":2,"trial_type":"serial-reaction-time-mouse","trial_index":71,"time_elapsed":1919536,"internal_node_id":"0.0-11.0-1.0"},{"rt":15356.449999962933,"grid":[[1,1,1]],"target":[0,0],"response":[0,1],"correct":false,"juego":11,"trial_type":"serial-reaction-time-mouse","trial_index":72,"time_elapsed":1934895,"internal_node_id":"0.0-11.0-2.0"},{"rt":13014.760000049137,"grid":[[1,1],[1,1],[1,1],[1,1],[1,1],[1,1],[1,1]],"target":[0,0],"response":[3,1],"correct":false,"juego":15,"trial_type":"serial-reaction-time-mouse","trial_index":73,"time_elapsed":1947914,"internal_node_id":"0.0-11.0-3.0"},{"rt":7052.220000012312,"grid":[[1,1,1]],"target":[0,2],"response":[0,0],"correct":false,"juego":7,"trial_type":"serial-reaction-time-mouse","trial_index":74,"time_elapsed":1954968,"internal_node_id":"0.0-11.0-4.0"},{"rt":16071.61000004271,"grid":[[1],[1],[1],[1],[1],[1]],"target":[0,0],"response":[2,0],"correct":false,"juego":5,"trial_type":"serial-reaction-time-mouse","trial_index":75,"time_elapsed":1971043,"internal_node_id":"0.0-11.0-5.0"},{"rt":15947.014999983367,"grid":[[1,1,1]],"target":[0,2],"response":[0,0],"correct":false,"juego":8,"trial_type":"serial-reaction-time-mouse","trial_index":76,"time_elapsed":1986992,"internal_node_id":"0.0-11.0-6.0"},{"rt":8288.090000045486,"grid":[[1,1,1]],"target":[0,0],"response":[0,2],"correct":false,"juego":9,"trial_type":"serial-reaction-time-mouse","trial_index":77,"time_elapsed":1995282,"internal_node_id":"0.0-11.0-7.0"},{"rt":13976.919999986421,"grid":[[1,1,1]],"target":[0,0],"response":[0,1],"correct":false,"juego":12,"trial_type":"serial-reaction-time-mouse","trial_index":78,"time_elapsed":2009261,"internal_node_id":"0.0-11.0-8.0"},{"rt":5787.704999966081,"grid":[[1,1],[1,1],[1,1],[1,1],[1,1],[1,1],[1,1]],"target":[0,0],"response":[3,1],"correct":false,"juego":14,"trial_type":"serial-reaction-time-mouse","trial_index":79,"time_elapsed":2015052,"internal_node_id":"0.0-11.0-9.0"},{"rt":5808.354999986477,"grid":[[1,1,1]],"target":[0,2],"response":[0,0],"correct":false,"juego":3,"trial_type":"serial-reaction-time-mouse","trial_index":80,"time_elapsed":2020863,"internal_node_id":"0.0-11.0-10.0"},{"rt":9489.984999992885,"grid":[[1,1,1],[1,1,1],[1,1,1],[1,1,1],[1,1,1],[1,1,1],[1,1,1]],"target":[0,0],"response":[3,1],"correct":false,"juego":13,"trial_type":"serial-reaction-time-mouse","trial_index":81,"time_elapsed":2030356,"internal_node_id":"0.0-11.0-11.0"},{"rt":4236.519999976736,"grid":[[1,1,1]],"target":[0,2],"response":[0,0],"correct":false,"juego":1,"trial_type":"serial-reaction-time-mouse","trial_index":82,"time_elapsed":2034595,"internal_node_id":"0.0-11.0-12.0"},{"rt":1679.9499999615364,"grid":[[1],[1],[1]],"target":[0,2],"response":[1,0],"correct":false,"juego":4,"trial_type":"serial-reaction-time-mouse","trial_index":83,"time_elapsed":2036277,"internal_node_id":"0.0-11.0-13.0"},{"rt":3596.525000000838,"grid":[[1,1,1],[1,1,1],[1,1,1],[1,1,1],[1,1,1],[1,1,1],[1,1,1]],"target":[0,0],"response":[5,1],"correct":false,"juego":6,"trial_type":"serial-reaction-time-mouse","trial_index":84,"time_elapsed":2039877,"internal_node_id":"0.0-11.0-14.0"}]