[{"rt":9158.699999999953,"stimulus":"<h1 style=\"color:red; margin-top: 3%;\">¡Bienvenido(a)!</h1><p style=\"text-align:left; justify-content:space-between; margin-right: 5%; margin-left: 5%; margin-top: 5%\"> Antes de empezar el estudio, necesitamos que nos confirmes que estás de acuerdo con participar. Recuerda que tu participación es 100% voluntaria y que lo único que te pedimos es responder lo mejor que puedas. Recuerda también que el estudio incluye:</p><ol style=\"text-align:left; justify-content:space-between; margin-right: 5%; margin-left: 5%;\"><li> un ejercicio de resolución de preguntas de selección múltiple (30’),</li><li>un cuestionario breve (5’),</li><li>un juego muy breve (3’),</li></ol><p style=\"text-align:left; justify-content:space-between; margin-right: 5%; margin-left: 5%;\">Si quieres participar, haz clic en “Acepto” luego de leer lo siguiente:<br></p><p style=\"text-align:left; justify-content:space-between; margin-right: 5%; margin-left: 5%;\">Acepto participar en el estudio “Estrategias de lectura y resolución de preguntas de selección múltiple”, en los términos aquí señalados:<br></p><p style=\"text-align:left; justify-content:space-between; margin-right: 5%; margin-left: 5%;\"><a href=\"http://ciae.uchile.cl/download.php?file=noticias/Asentimiento.pdf\" target=\"_blank\">Link a la hoja de información del Consentimiento.</a></p><p style=\"text-align:left; justify-content:space-between; margin-right: 5%; margin-left: 5%;\">Declaro que he leído (o se me ha leído) y (he) comprendido, las condiciones de mi participación en este estudio. He tenido la oportunidad de hacer preguntas y éstas han sido respondidas. No tengo dudas al respecto.</p>","response":0,"condicion_MCQ":3,"condicion_INTER":3,"numero_participante":51,"numero_version":1,"dimx":412,"dimy":915,"color_profundidad":24,"pixel_profundidad":24,"Browser":"Google Chrome","trial_type":"html-button-response","trial_index":0,"time_elapsed":9175,"internal_node_id":"0.0-0.0"},{"success":true,"trial_type":"fullscreen","trial_index":1,"time_elapsed":13719,"internal_node_id":"0.0-1.0"},{"rt":41228.59999999491,"responses":"{\"Nombres\":\"ALEJANDRO JAVIER\",\"Apellidos\":\"guerrero maturana\",\"Edad\":\"17\",\"Sexo\":\"hombre\",\"Curso\":\"psicologia\",\"Colegio\":\"unab\",\"Contacto\":\"a.guerreromaturana@uandresbello.edu\"}","trial_type":"survey-text","trial_index":2,"time_elapsed":54991,"internal_node_id":"0.0-2.0"},{"success":true,"timeout":false,"failed_images":[],"failed_audio":[],"failed_video":[],"trial_type":"preload","trial_index":3,"time_elapsed":56766,"internal_node_id":"0.0-3.0"},{"rt":4498.099999997066,"stimulus":"<h1 style:\"margin-top: 5%;\">Ejercicios de Comprensión de Lectura de la Universidad de Chile</h1><p style=\"font-size: 120%;\">En esta actividad, debes responder 30 preguntas de selección múltiple. Cada pregunta presenta 3 respuestas alternativas, pero sólo una de ellas es correcta. Por lo tanto, debes escoger una sola alternativa para cada pregunta. Además, debes reportar qué tan seguro(a) estás de la respuesta que das, con un:</p><ol style=\"font-size: 120%;text-align:left;margin-left: 40%;\"><li>No estoy seguro(a) para nada</li><li>No estoy muy seguro(a)</li><li>Estoy bastante seguro(a)</li><li>Estoy totalmente seguro(a)</li></ol><p style=\"font-size: 120%;\">Por favor lee bien los enunciados antes de responder. ¡Éxito!</p>","response":0,"trial_type":"html-button-response","trial_index":4,"time_elapsed":61269,"internal_node_id":"0.0-4.0"},{"rt":21336.90000000206,"responses":"{\"pregunta4\":\"b) En la literatura como en la vida, lo importante son las preguntas. \"}","question_order":"[0]","trial_type":"survey-multi-choice","trial_index":5,"time_elapsed":82615,"internal_node_id":"0.0-5.0-0.0"},{"rt":3492.899999997462,"response":{"pregunta4 likert":1},"question_order":[0],"trial_type":"survey-likert","trial_index":6,"time_elapsed":86119,"internal_node_id":"0.0-5.0-1.0"},{"rt":20260.39999999921,"responses":"{\"pregunta3\":\"a) El inicio de la civilización china. \"}","question_order":"[0]","trial_type":"survey-multi-choice","trial_index":7,"time_elapsed":106387,"internal_node_id":"0.0-5.0-2.0"},{"rt":2292.699999998149,"response":{"pregunta3 likert":2},"question_order":[0],"trial_type":"survey-likert","trial_index":8,"time_elapsed":108688,"internal_node_id":"0.0-5.0-3.0"},{"rt":14138.900000005378,"responses":"{\"pregunta11\":\"c) Promover la asistencia a un evento específico de decoración a través de una atractiva descripción. \"}","question_order":"[0]","trial_type":"survey-multi-choice","trial_index":9,"time_elapsed":122835,"internal_node_id":"0.0-5.0-4.0"},{"rt":1712.8999999986263,"response":{"pregunta11 likert":1},"question_order":[0],"trial_type":"survey-likert","trial_index":10,"time_elapsed":124555,"internal_node_id":"0.0-5.0-5.0"},{"rt":34980.19999999815,"responses":"{\"pregunta12\":\"a) se da como existente, y sólo se discute su relación con el cuerpo. \"}","question_order":"[0]","trial_type":"survey-multi-choice","trial_index":11,"time_elapsed":159542,"internal_node_id":"0.0-5.0-6.0"},{"rt":1918.3000000048196,"response":{"pregunta12 likert":1},"question_order":[0],"trial_type":"survey-likert","trial_index":12,"time_elapsed":161468,"internal_node_id":"0.0-5.0-7.0"},{"rt":13956.600000004983,"responses":"{\"pregunta9\":\"b) pueden ejercer profesiones científicas de la misma forma en que lo hacen los hombres. \"}","question_order":"[0]","trial_type":"survey-multi-choice","trial_index":13,"time_elapsed":175432,"internal_node_id":"0.0-5.0-8.0"},{"rt":2901.400000002468,"response":{"pregunta9 likert":1},"question_order":[0],"trial_type":"survey-likert","trial_index":14,"time_elapsed":178342,"internal_node_id":"0.0-5.0-9.0"},{"rt":8042.800000002899,"responses":"{\"pregunta20\":\"b) el mejor emperador es el que está muerto. \"}","question_order":"[0]","trial_type":"survey-multi-choice","trial_index":15,"time_elapsed":186392,"internal_node_id":"0.0-5.0-10.0"},{"rt":2276.899999997113,"response":{"pregunta20 likert":2},"question_order":[0],"trial_type":"survey-likert","trial_index":16,"time_elapsed":188677,"internal_node_id":"0.0-5.0-11.0"},{"rt":3880.4000000018277,"responses":"{\"pregunta19\":\"b) Las personas que leen son más flexibles en sus ideas y autónomas en su accionar. \"}","question_order":"[0]","trial_type":"survey-multi-choice","trial_index":17,"time_elapsed":192565,"internal_node_id":"0.0-5.0-12.0"},{"rt":1177.4999999979627,"response":{"pregunta19 likert":1},"question_order":[0],"trial_type":"survey-likert","trial_index":18,"time_elapsed":193750,"internal_node_id":"0.0-5.0-13.0"},{"rt":3112.8000000026077,"responses":"{\"pregunta10\":\"b) La biónica es una disciplina que tiene su origen en la ecología. \"}","question_order":"[0]","trial_type":"survey-multi-choice","trial_index":19,"time_elapsed":196870,"internal_node_id":"0.0-5.0-14.0"},{"rt":1203.0999999988126,"response":{"pregunta10 likert":1},"question_order":[0],"trial_type":"survey-likert","trial_index":20,"time_elapsed":198081,"internal_node_id":"0.0-5.0-15.0"},{"rt":6705.000000001746,"responses":"{\"pregunta17\":\"b) Revivir un periodo histórico. \"}","question_order":"[0]","trial_type":"survey-multi-choice","trial_index":21,"time_elapsed":204792,"internal_node_id":"0.0-5.0-16.0"},{"rt":1441.6999999957625,"response":{"pregunta17 likert":1},"question_order":[0],"trial_type":"survey-likert","trial_index":22,"time_elapsed":206239,"internal_node_id":"0.0-5.0-17.0"},{"rt":15161.800000001676,"responses":"{\"pregunta30\":\"a) la muerte es distinta en las grandes ciudades. \"}","question_order":"[0]","trial_type":"survey-multi-choice","trial_index":23,"time_elapsed":221408,"internal_node_id":"0.0-5.0-18.0"},{"rt":1460.9999999956926,"response":{"pregunta30 likert":1},"question_order":[0],"trial_type":"survey-likert","trial_index":24,"time_elapsed":222877,"internal_node_id":"0.0-5.0-19.0"},{"rt":16410.89999999531,"responses":"{\"pregunta2\":\"b) A la relación entre sociedad y constitución social. \"}","question_order":"[0]","trial_type":"survey-multi-choice","trial_index":25,"time_elapsed":239296,"internal_node_id":"0.0-5.0-20.0"},{"rt":1180.8000000019092,"response":{"pregunta2 likert":1},"question_order":[0],"trial_type":"survey-likert","trial_index":26,"time_elapsed":240484,"internal_node_id":"0.0-5.0-21.0"},{"rt":4096.799999999348,"responses":"{\"pregunta8\":\"a) Comparar a Cervantes con Quevedo. \"}","question_order":"[0]","trial_type":"survey-multi-choice","trial_index":27,"time_elapsed":244588,"internal_node_id":"0.0-5.0-22.0"},{"rt":1059.399999998277,"response":{"pregunta8 likert":1},"question_order":[0],"trial_type":"survey-likert","trial_index":28,"time_elapsed":245655,"internal_node_id":"0.0-5.0-23.0"},{"rt":2726.600000001781,"responses":"{\"pregunta22\":\"b) Por el riesgo que corren diariamente, los bomberos deberían tener mejores condiciones de seguridad. \"}","question_order":"[0]","trial_type":"survey-multi-choice","trial_index":29,"time_elapsed":248389,"internal_node_id":"0.0-5.0-24.0"},{"rt":1129.400000005262,"response":{"pregunta22 likert":1},"question_order":[0],"trial_type":"survey-likert","trial_index":30,"time_elapsed":249529,"internal_node_id":"0.0-5.0-25.0"},{"rt":1723.7999999997555,"responses":"{\"pregunta27\":\"a) El TLC causará una completa transformación de la economía chilena. \"}","question_order":"[0]","trial_type":"survey-multi-choice","trial_index":31,"time_elapsed":251260,"internal_node_id":"0.0-5.0-26.0"},{"rt":1256.7000000053667,"response":{"pregunta27 likert":1},"question_order":[0],"trial_type":"survey-likert","trial_index":32,"time_elapsed":252524,"internal_node_id":"0.0-5.0-27.0"},{"rt":2894.29999999993,"responses":"{\"pregunta26\":\"a) el sujeto sufre con su modo de vida. \"}","question_order":"[0]","trial_type":"survey-multi-choice","trial_index":33,"time_elapsed":255426,"internal_node_id":"0.0-5.0-28.0"},{"rt":2082.800000003772,"response":{"pregunta26 likert":1},"question_order":[0],"trial_type":"survey-likert","trial_index":34,"time_elapsed":257517,"internal_node_id":"0.0-5.0-29.0"},{"rt":59422.599999998056,"responses":"{\"pregunta7\":\"a) La imprenta y el papel han permitido el desarrollo de la civilización y la conservación de su cultura, y ambos son inventos chinos. \"}","question_order":"[0]","trial_type":"survey-multi-choice","trial_index":35,"time_elapsed":316948,"internal_node_id":"0.0-5.0-30.0"},{"rt":1291.7000000015832,"response":{"pregunta7 likert":1},"question_order":[0],"trial_type":"survey-likert","trial_index":36,"time_elapsed":318247,"internal_node_id":"0.0-5.0-31.0"},{"rt":2005.4999999993015,"responses":"{\"pregunta25\":\"a) sufren dolores de espalda. \"}","question_order":"[0]","trial_type":"survey-multi-choice","trial_index":37,"time_elapsed":320260,"internal_node_id":"0.0-5.0-32.0"},{"rt":1355.200000005425,"response":{"pregunta25 likert":1},"question_order":[0],"trial_type":"survey-likert","trial_index":38,"time_elapsed":321622,"internal_node_id":"0.0-5.0-33.0"},{"rt":1908.49999999773,"responses":"{\"pregunta24\":\"b) La publicidad ejerce una influencia positiva sobre la sociedad. \"}","question_order":"[0]","trial_type":"survey-multi-choice","trial_index":39,"time_elapsed":323538,"internal_node_id":"0.0-5.0-34.0"},{"rt":1661.8999999991502,"response":{"pregunta24 likert":1},"question_order":[0],"trial_type":"survey-likert","trial_index":40,"time_elapsed":325208,"internal_node_id":"0.0-5.0-35.0"},{"rt":1873.4000000040396,"responses":"{\"pregunta23\":\"a) A la inexistencia de un recinto adecuado para el recital. \"}","question_order":"[0]","trial_type":"survey-multi-choice","trial_index":41,"time_elapsed":327089,"internal_node_id":"0.0-5.0-36.0"},{"rt":1643.900000002759,"response":{"pregunta23 likert":1},"question_order":[0],"trial_type":"survey-likert","trial_index":42,"time_elapsed":328741,"internal_node_id":"0.0-5.0-37.0"},{"rt":1516.700000000128,"responses":"{\"pregunta15\":\"a) hedonistas y soñadores. \"}","question_order":"[0]","trial_type":"survey-multi-choice","trial_index":43,"time_elapsed":330265,"internal_node_id":"0.0-5.0-38.0"},{"rt":15539.100000001781,"response":{"pregunta15 likert":1},"question_order":[0],"trial_type":"survey-likert","trial_index":44,"time_elapsed":345811,"internal_node_id":"0.0-5.0-39.0"},{"rt":7358.800000001793,"responses":"{\"pregunta21\":\"a) la creación de elementos químicos artificiales ha resultado de la manipulación del uranio. \"}","question_order":"[0]","trial_type":"survey-multi-choice","trial_index":45,"time_elapsed":353178,"internal_node_id":"0.0-5.0-40.0"},{"rt":3313.1999999968684,"response":{"pregunta21 likert":1},"question_order":[0],"trial_type":"survey-likert","trial_index":46,"time_elapsed":356499,"internal_node_id":"0.0-5.0-41.0"},{"rt":2250.099999997474,"responses":"{\"pregunta6\":\"c) La aparición del Diccionario Académico ha sido polémica. \"}","question_order":"[0]","trial_type":"survey-multi-choice","trial_index":47,"time_elapsed":358757,"internal_node_id":"0.0-5.0-42.0"},{"rt":1134.7999999998137,"response":{"pregunta6 likert":1},"question_order":[0],"trial_type":"survey-likert","trial_index":48,"time_elapsed":359900,"internal_node_id":"0.0-5.0-43.0"},{"rt":1751.8000000054599,"responses":"{\"pregunta18\":\"b) A la inutilidad de tanto esfuerzo si el objetivo es el reposo. \"}","question_order":"[0]","trial_type":"survey-multi-choice","trial_index":49,"time_elapsed":361660,"internal_node_id":"0.0-5.0-44.0"},{"rt":1245.0000000026193,"response":{"pregunta18 likert":1},"question_order":[0],"trial_type":"survey-likert","trial_index":50,"time_elapsed":362912,"internal_node_id":"0.0-5.0-45.0"},{"rt":1732.1999999985565,"responses":"{\"pregunta5\":\"b) Los momentos triviales de los viajes, en la escritura se vuelven significativos. \"}","question_order":"[0]","trial_type":"survey-multi-choice","trial_index":51,"time_elapsed":364652,"internal_node_id":"0.0-5.0-46.0"},{"rt":1788.3999999976368,"response":{"pregunta5 likert":1},"question_order":[0],"trial_type":"survey-likert","trial_index":52,"time_elapsed":366448,"internal_node_id":"0.0-5.0-47.0"},{"rt":3997.400000000198,"responses":"{\"pregunta13\":\"c) Lo que es normal en un asilo es anormal en un campo de concentración. \"}","question_order":"[0]","trial_type":"survey-multi-choice","trial_index":53,"time_elapsed":370453,"internal_node_id":"0.0-5.0-48.0"},{"rt":1233.299999999872,"response":{"pregunta13 likert":1},"question_order":[0],"trial_type":"survey-likert","trial_index":54,"time_elapsed":371695,"internal_node_id":"0.0-5.0-49.0"},{"rt":1593.3999999979278,"responses":"{\"pregunta1\":\"c) Entregan una característica detallada del personaje, a través de la voz narrativa. \"}","question_order":"[0]","trial_type":"survey-multi-choice","trial_index":55,"time_elapsed":373296,"internal_node_id":"0.0-5.0-50.0"},{"rt":1471.400000002177,"response":{"pregunta1 likert":1},"question_order":[0],"trial_type":"survey-likert","trial_index":56,"time_elapsed":374775,"internal_node_id":"0.0-5.0-51.0"},{"rt":1703.2000000035623,"responses":"{\"pregunta28\":\"b) La prensa tiene derecho a meter sus narices en todos lados. \"}","question_order":"[0]","trial_type":"survey-multi-choice","trial_index":57,"time_elapsed":376482,"internal_node_id":"0.0-5.0-52.0"},{"rt":1096.400000002177,"response":{"pregunta28 likert":1},"question_order":[0],"trial_type":"survey-likert","trial_index":58,"time_elapsed":377586,"internal_node_id":"0.0-5.0-53.0"},{"rt":1488.6000000042259,"responses":"{\"pregunta14\":\"b) la persistencia de la melancolía y la desesperanza. \"}","question_order":"[0]","trial_type":"survey-multi-choice","trial_index":59,"time_elapsed":379082,"internal_node_id":"0.0-5.0-54.0"},{"rt":1332.4999999967986,"response":{"pregunta14 likert":1},"question_order":[0],"trial_type":"survey-likert","trial_index":60,"time_elapsed":380422,"internal_node_id":"0.0-5.0-55.0"},{"rt":1543.4999999997672,"responses":"{\"pregunta16\":\"b) Provocar el deseo de la adquisición vertiginosa. \"}","question_order":"[0]","trial_type":"survey-multi-choice","trial_index":61,"time_elapsed":381973,"internal_node_id":"0.0-5.0-56.0"},{"rt":1520.699999993667,"response":{"pregunta16 likert":2},"question_order":[0],"trial_type":"survey-likert","trial_index":62,"time_elapsed":383502,"internal_node_id":"0.0-5.0-57.0"},{"rt":1408.9999999996508,"responses":"{\"pregunta29\":\"b) el jardinero estará muerto al día siguiente. \"}","question_order":"[0]","trial_type":"survey-multi-choice","trial_index":63,"time_elapsed":384918,"internal_node_id":"0.0-5.0-58.0"},{"rt":1031.4999999973224,"response":{"pregunta29 likert":2},"question_order":[0],"trial_type":"survey-likert","trial_index":64,"time_elapsed":385956,"internal_node_id":"0.0-5.0-59.0"}]