[{"rt":19712,"stimulus":"<h1 style=\"color:red; margin-top: 3%;\">¡Bienvenido(a)!</h1><p style=\"text-align:left; justify-content:space-between; margin-right: 5%; margin-left: 5%; margin-top: 5%\"> Antes de empezar el estudio, necesitamos que nos confirmes que estás de acuerdo con participar. Recuerda que tu participación es 100% voluntaria y que lo único que te pedimos es responder lo mejor que puedas. Recuerda también que el estudio incluye:</p><ol style=\"text-align:left; justify-content:space-between; margin-right: 5%; margin-left: 5%;\"><li> un ejercicio de resolución de preguntas de selección múltiple (30’),</li><li>un cuestionario breve (5’),</li><li>un juego muy breve (3’),</li></ol><p style=\"text-align:left; justify-content:space-between; margin-right: 5%; margin-left: 5%;\">Si quieres participar, haz clic en “Acepto” luego de leer lo siguiente:<br></p><p style=\"text-align:left; justify-content:space-between; margin-right: 5%; margin-left: 5%;\">Acepto participar en el estudio “Estrategias de lectura y resolución de preguntas de selección múltiple”, en los términos aquí señalados:<br></p><p style=\"text-align:left; justify-content:space-between; margin-right: 5%; margin-left: 5%;\"><a href=\"http://ciae.uchile.cl/download.php?file=noticias/Asentimiento.pdf\" target=\"_blank\">Link a la hoja de información del Consentimiento.</a></p><p style=\"text-align:left; justify-content:space-between; margin-right: 5%; margin-left: 5%;\">Declaro que he leído (o se me ha leído) y (he) comprendido, las condiciones de mi participación en este estudio. He tenido la oportunidad de hacer preguntas y éstas han sido respondidas. No tengo dudas al respecto.</p>","response":0,"condicion_MCQ":6,"condicion_INTER":24,"numero_participante":24,"numero_version":2,"dimx":375,"dimy":812,"color_profundidad":32,"pixel_profundidad":32,"Browser":"Apple Safari","trial_type":"html-button-response","trial_index":0,"time_elapsed":19720,"internal_node_id":"0.0-0.0"},{"success":true,"trial_type":"fullscreen","trial_index":1,"time_elapsed":27487,"internal_node_id":"0.0-1.0"},{"rt":56234,"responses":"{\"Nombres\":\"Denisse Constanza \",\"Apellidos\":\"Guardia Ortiz\",\"Edad\":\"18\",\"Sexo\":\"Mujer\",\"Curso\":\"1er año\",\"Colegio\":\"Psicología \",\"Contacto\":\"denissecgo@gmail.com\"}","trial_type":"survey-text","trial_index":2,"time_elapsed":83746,"internal_node_id":"0.0-2.0"},{"success":true,"timeout":false,"failed_images":[],"failed_audio":[],"failed_video":[],"trial_type":"preload","trial_index":3,"time_elapsed":89282,"internal_node_id":"0.0-3.0"},{"rt":17351,"stimulus":"<h1 style:\"margin-top: 5%;\">Ejercicios de Comprensión de Lectura de la Universidad de Chile</h1><p style=\"font-size: 120%;\">En esta actividad, debes responder 30 preguntas de selección múltiple. Cada pregunta presenta 3 respuestas alternativas, pero sólo una de ellas es correcta. Por lo tanto, debes escoger una sola alternativa para cada pregunta. Además, debes reportar qué tan seguro(a) estás de la respuesta que das, con un:</p><ol style=\"font-size: 120%;text-align:left;margin-left: 40%;\"><li>No estoy seguro(a) para nada</li><li>No estoy muy seguro(a)</li><li>Estoy bastante seguro(a)</li><li>Estoy totalmente seguro(a)</li></ol><p style=\"font-size: 120%;\">Por favor lee bien los enunciados antes de responder. ¡Éxito!</p>","response":0,"trial_type":"html-button-response","trial_index":4,"time_elapsed":106635,"internal_node_id":"0.0-4.0"},{"rt":67577,"responses":"{\"pregunta6\":\"a) La aparición del Diccionario Académico ha sido polémica. \"}","question_order":"[0]","trial_type":"survey-multi-choice","trial_index":5,"time_elapsed":174220,"internal_node_id":"0.0-5.0-0.0"},{"rt":4056,"response":{"pregunta6 likert":2},"question_order":[0],"trial_type":"survey-likert","trial_index":6,"time_elapsed":178282,"internal_node_id":"0.0-5.0-1.0"},{"rt":127922,"responses":"{\"pregunta13\":\"b) El ser humano se comporta de acuerdo con las circunstancias. \"}","question_order":"[0]","trial_type":"survey-multi-choice","trial_index":7,"time_elapsed":306208,"internal_node_id":"0.0-5.0-2.0"},{"rt":3180,"response":{"pregunta13 likert":3},"question_order":[0],"trial_type":"survey-likert","trial_index":8,"time_elapsed":309392,"internal_node_id":"0.0-5.0-3.0"},{"rt":105200,"responses":"{\"pregunta7\":\"c) Si desaparecieran el papel y la imprenta, se produciría un gran retraso en nuestra civilización. \"}","question_order":"[0]","trial_type":"survey-multi-choice","trial_index":9,"time_elapsed":414596,"internal_node_id":"0.0-5.0-4.0"},{"rt":4072,"response":{"pregunta7 likert":3},"question_order":[0],"trial_type":"survey-likert","trial_index":10,"time_elapsed":418668,"internal_node_id":"0.0-5.0-5.0"},{"rt":136323,"responses":"{\"pregunta20\":\"b) el mejor emperador es el que está muerto. \"}","question_order":"[0]","trial_type":"survey-multi-choice","trial_index":11,"time_elapsed":554961,"internal_node_id":"0.0-5.0-6.0"},{"rt":3491,"response":{"pregunta20 likert":1},"question_order":[0],"trial_type":"survey-likert","trial_index":12,"time_elapsed":558456,"internal_node_id":"0.0-5.0-7.0"},{"rt":461656.0000000001,"responses":"{\"pregunta10\":\"a) La biónica puede asegurar nuestra existencia mediante la aplicación de técnicas copiadas de la naturaleza. \"}","question_order":"[0]","trial_type":"survey-multi-choice","trial_index":13,"time_elapsed":1020126,"internal_node_id":"0.0-5.0-8.0"},{"rt":4010.0000000001164,"response":{"pregunta10 likert":3},"question_order":[0],"trial_type":"survey-likert","trial_index":14,"time_elapsed":1024147,"internal_node_id":"0.0-5.0-9.0"},{"rt":227789,"responses":"{\"pregunta25\":\"c) llevan un control grupal de su embarazo. \"}","question_order":"[0]","trial_type":"survey-multi-choice","trial_index":15,"time_elapsed":1648073,"internal_node_id":"0.0-5.0-10.0"},{"rt":2055,"response":{"pregunta25 likert":2},"question_order":[0],"trial_type":"survey-likert","trial_index":16,"time_elapsed":1650134,"internal_node_id":"0.0-5.0-11.0"},{"rt":830933.0000000002,"responses":"{\"pregunta16\":\"c) Deleitar a sus receptores por medio de la belleza y el confort. \"}","question_order":"[0]","trial_type":"survey-multi-choice","trial_index":17,"time_elapsed":2481105,"internal_node_id":"0.0-5.0-12.0"},{"rt":2928.000000000233,"response":{"pregunta16 likert":2},"question_order":[0],"trial_type":"survey-likert","trial_index":18,"time_elapsed":2484036,"internal_node_id":"0.0-5.0-13.0"},{"rt":72173,"responses":"{\"pregunta14\":\"a) la persistencia de la melancolía y la desesperanza. \"}","question_order":"[0]","trial_type":"survey-multi-choice","trial_index":19,"time_elapsed":2556212,"internal_node_id":"0.0-5.0-14.0"},{"rt":3800,"response":{"pregunta14 likert":3},"question_order":[0],"trial_type":"survey-likert","trial_index":20,"time_elapsed":2560015,"internal_node_id":"0.0-5.0-15.0"},{"rt":76371.99999999953,"responses":"{\"pregunta1\":\"a) Aportan informaciones con las que se reconstruye el personaje dentro de un relato. \"}","question_order":"[0]","trial_type":"survey-multi-choice","trial_index":21,"time_elapsed":2636390,"internal_node_id":"0.0-5.0-16.0"},{"rt":2454,"response":{"pregunta1 likert":2},"question_order":[0],"trial_type":"survey-likert","trial_index":22,"time_elapsed":2638849,"internal_node_id":"0.0-5.0-17.0"},{"rt":32489,"responses":"{\"pregunta29\":\"b) el jardinero estará muerto al día siguiente. \"}","question_order":"[0]","trial_type":"survey-multi-choice","trial_index":23,"time_elapsed":2671342,"internal_node_id":"0.0-5.0-18.0"},{"rt":15096,"response":{"pregunta29 likert":3},"question_order":[0],"trial_type":"survey-likert","trial_index":24,"time_elapsed":2686440,"internal_node_id":"0.0-5.0-19.0"},{"rt":73466,"responses":"{\"pregunta9\":\"c) pueden rendir exámenes para optar y obtener títulos profesionales igual que los hombres. \"}","question_order":"[0]","trial_type":"survey-multi-choice","trial_index":25,"time_elapsed":2759910,"internal_node_id":"0.0-5.0-20.0"},{"rt":3897,"response":{"pregunta9 likert":2},"question_order":[0],"trial_type":"survey-likert","trial_index":26,"time_elapsed":2763811,"internal_node_id":"0.0-5.0-21.0"},{"rt":52947,"responses":"{\"pregunta18\":\"a) A la inutilidad de tanto esfuerzo si el objetivo es el reposo. \"}","question_order":"[0]","trial_type":"survey-multi-choice","trial_index":27,"time_elapsed":2816761,"internal_node_id":"0.0-5.0-22.0"},{"rt":3784.0000000004657,"response":{"pregunta18 likert":1},"question_order":[0],"trial_type":"survey-likert","trial_index":28,"time_elapsed":2820548,"internal_node_id":"0.0-5.0-23.0"},{"rt":35200,"responses":"{\"pregunta30\":\"c) para el mexicano, la muerte es cotidiana. \"}","question_order":"[0]","trial_type":"survey-multi-choice","trial_index":29,"time_elapsed":2855751,"internal_node_id":"0.0-5.0-24.0"},{"rt":8246,"response":{"pregunta30 likert":3},"question_order":[0],"trial_type":"survey-likert","trial_index":30,"time_elapsed":2864000,"internal_node_id":"0.0-5.0-25.0"},{"rt":52414,"responses":"{\"pregunta3\":\"b) El origen de las grandes civilizaciones. \"}","question_order":"[0]","trial_type":"survey-multi-choice","trial_index":31,"time_elapsed":2916418,"internal_node_id":"0.0-5.0-26.0"},{"rt":2666,"response":{"pregunta3 likert":3},"question_order":[0],"trial_type":"survey-likert","trial_index":32,"time_elapsed":2919089,"internal_node_id":"0.0-5.0-27.0"},{"rt":60459,"responses":"{\"pregunta27\":\"b) El TLC causará una completa transformación de la economía chilena. \"}","question_order":"[0]","trial_type":"survey-multi-choice","trial_index":33,"time_elapsed":2979552,"internal_node_id":"0.0-5.0-28.0"},{"rt":2314,"response":{"pregunta27 likert":2},"question_order":[0],"trial_type":"survey-likert","trial_index":34,"time_elapsed":2981870,"internal_node_id":"0.0-5.0-29.0"},{"rt":71881,"responses":"{\"pregunta26\":\"a) el hombre excesivo es inmoral. \"}","question_order":"[0]","trial_type":"survey-multi-choice","trial_index":35,"time_elapsed":3053754,"internal_node_id":"0.0-5.0-30.0"},{"rt":4075,"response":{"pregunta26 likert":1},"question_order":[0],"trial_type":"survey-likert","trial_index":36,"time_elapsed":3057831,"internal_node_id":"0.0-5.0-31.0"},{"rt":48283,"responses":"{\"pregunta24\":\"a) El receptor es habitualmente pasivo frente a la publicidad. \"}","question_order":"[0]","trial_type":"survey-multi-choice","trial_index":37,"time_elapsed":3106118,"internal_node_id":"0.0-5.0-32.0"},{"rt":2439,"response":{"pregunta24 likert":3},"question_order":[0],"trial_type":"survey-likert","trial_index":38,"time_elapsed":3108559,"internal_node_id":"0.0-5.0-33.0"},{"rt":30960,"responses":"{\"pregunta17\":\"a) Homenajear a quienes murieron. \"}","question_order":"[0]","trial_type":"survey-multi-choice","trial_index":39,"time_elapsed":3139520,"internal_node_id":"0.0-5.0-34.0"},{"rt":3912,"response":{"pregunta17 likert":3},"question_order":[0],"trial_type":"survey-likert","trial_index":40,"time_elapsed":3143436,"internal_node_id":"0.0-5.0-35.0"},{"rt":88479,"responses":"{\"pregunta12\":\"a) se da como existente, y sólo se discute su relación con el cuerpo. \"}","question_order":"[0]","trial_type":"survey-multi-choice","trial_index":41,"time_elapsed":3231919,"internal_node_id":"0.0-5.0-36.0"},{"rt":2170,"response":{"pregunta12 likert":3},"question_order":[0],"trial_type":"survey-likert","trial_index":42,"time_elapsed":3234093,"internal_node_id":"0.0-5.0-37.0"},{"rt":52693,"responses":"{\"pregunta15\":\"a) religiosos y precavidos. \"}","question_order":"[0]","trial_type":"survey-multi-choice","trial_index":43,"time_elapsed":3286789,"internal_node_id":"0.0-5.0-38.0"},{"rt":2576,"response":{"pregunta15 likert":2},"question_order":[0],"trial_type":"survey-likert","trial_index":44,"time_elapsed":3289370,"internal_node_id":"0.0-5.0-39.0"},{"rt":14747,"responses":"{\"pregunta22\":\"a) Bomberos debería tener acceso a un seguro médico, al que pueda recurrir en caso de accidente. \"}","question_order":"[0]","trial_type":"survey-multi-choice","trial_index":45,"time_elapsed":3304121,"internal_node_id":"0.0-5.0-40.0"},{"rt":2813,"response":{"pregunta22 likert":3},"question_order":[0],"trial_type":"survey-likert","trial_index":46,"time_elapsed":3306937,"internal_node_id":"0.0-5.0-41.0"},{"rt":42712,"responses":"{\"pregunta23\":\"b) A la influencia de grupos que rechazaban su música. \"}","question_order":"[0]","trial_type":"survey-multi-choice","trial_index":47,"time_elapsed":3349653,"internal_node_id":"0.0-5.0-42.0"},{"rt":2138,"response":{"pregunta23 likert":3},"question_order":[0],"trial_type":"survey-likert","trial_index":48,"time_elapsed":3351794,"internal_node_id":"0.0-5.0-43.0"},{"rt":27144.000000000466,"responses":"{\"pregunta28\":\"a) Se necesita un marco legal para delimitar lo público y lo privado en materia informativa. \"}","question_order":"[0]","trial_type":"survey-multi-choice","trial_index":49,"time_elapsed":3378942,"internal_node_id":"0.0-5.0-44.0"},{"rt":3852,"response":{"pregunta28 likert":3},"question_order":[0],"trial_type":"survey-likert","trial_index":50,"time_elapsed":3382798,"internal_node_id":"0.0-5.0-45.0"},{"rt":148074.00000000047,"responses":"{\"pregunta2\":\"a) A la relación entre sociedad y constitución social. \"}","question_order":"[0]","trial_type":"survey-multi-choice","trial_index":51,"time_elapsed":3530877,"internal_node_id":"0.0-5.0-46.0"},{"rt":2158,"response":{"pregunta2 likert":3},"question_order":[0],"trial_type":"survey-likert","trial_index":52,"time_elapsed":3533042,"internal_node_id":"0.0-5.0-47.0"},{"rt":77438,"responses":"{\"pregunta4\":\"a) En la literatura como en la vida, todo es metáfora. \"}","question_order":"[0]","trial_type":"survey-multi-choice","trial_index":53,"time_elapsed":3610483,"internal_node_id":"0.0-5.0-48.0"},{"rt":2433,"response":{"pregunta4 likert":2},"question_order":[0],"trial_type":"survey-likert","trial_index":54,"time_elapsed":3612921,"internal_node_id":"0.0-5.0-49.0"},{"rt":240398.99999999953,"responses":"{\"pregunta5\":\"a) La escritura plasma los mejores momentos de los viajes. \"}","question_order":"[0]","trial_type":"survey-multi-choice","trial_index":55,"time_elapsed":3853326,"internal_node_id":"0.0-5.0-50.0"},{"rt":2718.0000000004657,"response":{"pregunta5 likert":2},"question_order":[0],"trial_type":"survey-likert","trial_index":56,"time_elapsed":3856048,"internal_node_id":"0.0-5.0-51.0"},{"rt":32102,"responses":"{\"pregunta21\":\"c) el uranio es el elemento natural con el mayor número de protones en el núcleo. \"}","question_order":"[0]","trial_type":"survey-multi-choice","trial_index":57,"time_elapsed":3888154,"internal_node_id":"0.0-5.0-52.0"},{"rt":3136,"response":{"pregunta21 likert":1},"question_order":[0],"trial_type":"survey-likert","trial_index":58,"time_elapsed":3891295,"internal_node_id":"0.0-5.0-53.0"},{"rt":28011.999999999534,"responses":"{\"pregunta19\":\"b) Las personas que leen son más flexibles en sus ideas y autónomas en su accionar. \"}","question_order":"[0]","trial_type":"survey-multi-choice","trial_index":59,"time_elapsed":3919310,"internal_node_id":"0.0-5.0-54.0"},{"rt":2282,"response":{"pregunta19 likert":3},"question_order":[0],"trial_type":"survey-likert","trial_index":60,"time_elapsed":3921595,"internal_node_id":"0.0-5.0-55.0"},{"rt":25776,"responses":"{\"pregunta11\":\"a) Presentar positivamente las diversas tendencias del diseño de interiores a través de un comentario. \"}","question_order":"[0]","trial_type":"survey-multi-choice","trial_index":61,"time_elapsed":3947375,"internal_node_id":"0.0-5.0-56.0"},{"rt":2596,"response":{"pregunta11 likert":1},"question_order":[0],"trial_type":"survey-likert","trial_index":62,"time_elapsed":3949974,"internal_node_id":"0.0-5.0-57.0"},{"rt":27532,"responses":"{\"pregunta8\":\"b) Dar a conocer al ganador del premio Cervantes. \"}","question_order":"[0]","trial_type":"survey-multi-choice","trial_index":63,"time_elapsed":3977508,"internal_node_id":"0.0-5.0-58.0"},{"rt":2012,"response":{"pregunta8 likert":3},"question_order":[0],"trial_type":"survey-likert","trial_index":64,"time_elapsed":3979523,"internal_node_id":"0.0-5.0-59.0"},{"rt":6342,"stimulus":"<p style=\"font-size: 120%\">Gracias por completar esta etapa del estudio. Ahora te invitamos a responder el cuestionario.<br><br></p>","response":0,"trial_type":"html-button-response","trial_index":65,"time_elapsed":3985883,"internal_node_id":"0.0-6.0"},{"rt":21390,"stimulus":"<h1 style=\"margin-top: 5%\">Cuestionario para la Evaluación de Metas Académicas</h1><p style=\"font-size: 120%; margin-left: 3%; margin-top: 5%\">Este es un cuestionario que permite conocer cuáles son los principales motivos por los que los estudiantes se esfuerzan en su trabajo académico. A continuación, se te presentarán una serie de afirmaciones acerca de los motivos que puedes tener para estudiar.<br>Te pedimos que contestes a dichas afirmaciones reflexionando sobre el contenido de cada una de ellas, que, aunque te parezcan semejantes, en realidad, no lo son.<br>NO HAY RESPUESTAS CORRECTAS o INCORRECTAS, sólo queremos que respondas con la mayor precisión y sinceridad posible a las preguntas que se plantean.","response":0,"trial_type":"html-button-response","trial_index":66,"time_elapsed":4007274,"internal_node_id":"0.0-7.0"},{"rt":69187,"response":{"Metas cuestionario pregunta1":3,"Metas cuestionario pregunta2":4,"Metas cuestionario pregunta3":4,"Metas cuestionario pregunta4":2,"Metas cuestionario pregunta5":3,"Metas cuestionario pregunta6":3,"Metas cuestionario pregunta7":2,"Metas cuestionario pregunta8":2,"Metas cuestionario pregunta9":2,"Metas cuestionario pregunta10":3,"Metas cuestionario pregunta11":4,"Metas cuestionario pregunta12":4,"Metas cuestionario pregunta13":4,"Metas cuestionario pregunta14":1,"Metas cuestionario pregunta15":4,"Metas cuestionario pregunta16":4,"Metas cuestionario pregunta17":4,"Metas cuestionario pregunta18":4,"Metas cuestionario pregunta19":4,"Metas cuestionario pregunta20":2},"question_order":[0,1,2,3,4,5,6,7,8,9,10,11,12,13,14,15,16,17,18,19],"trial_type":"survey-likert","trial_index":67,"time_elapsed":4076495,"internal_node_id":"0.0-8.0"},{"rt":2368,"stimulus":"<p style=\"font-size: 120%\">Gracias por responder el cuestionario. Ahora te invitamos a seguir con el juego, que es muy breve.<br><br></p>","response":0,"trial_type":"html-button-response","trial_index":68,"time_elapsed":4078867,"internal_node_id":"0.0-9.0"},{"rt":7587,"stimulus":"<h1>Juego</h1><p style=\"font-size: 120%;\">A continuación se te presentarán 16 pequeñas historias.<br>Por favor lee el texto presentado en cada una de ellas y luego haz click en el objeto de tu elección.<br>Si estás listo(a),<span style=\"color:red;\"> haz click en \"comenzar\"</span>.</p>","response":0,"trial_type":"html-button-response","trial_index":69,"time_elapsed":4086458,"internal_node_id":"0.0-10.0"},{"rt":27902,"grid":[[1,1,1]],"target":[0,2],"response":[0,2],"correct":true,"juego":2,"trial_type":"serial-reaction-time-mouse","trial_index":70,"time_elapsed":4114366,"internal_node_id":"0.0-11.0-0.0"},{"rt":9943,"grid":[[1],[1],[1],[1],[1],[1]],"target":[0,0],"response":[0,0],"correct":true,"juego":5,"trial_type":"serial-reaction-time-mouse","trial_index":71,"time_elapsed":4124315,"internal_node_id":"0.0-11.0-1.0"},{"rt":8403,"grid":[[1,1,1]],"target":[0,2],"response":[0,1],"correct":false,"juego":7,"trial_type":"serial-reaction-time-mouse","trial_index":72,"time_elapsed":4132722,"internal_node_id":"0.0-11.0-2.0"},{"rt":14448,"grid":[[1,1,1]],"target":[0,0],"response":[0,0],"correct":true,"juego":11,"trial_type":"serial-reaction-time-mouse","trial_index":73,"time_elapsed":4147172,"internal_node_id":"0.0-11.0-3.0"},{"rt":11213.000000000466,"grid":[[1,1,1],[1,1,1],[1,1,1]],"target":[0,0],"response":[0,2],"correct":false,"juego":10,"trial_type":"serial-reaction-time-mouse","trial_index":74,"time_elapsed":4158388,"internal_node_id":"0.0-11.0-4.0"},{"rt":11611,"grid":[[1,1],[1,1],[1,1],[1,1],[1,1],[1,1],[1,1]],"target":[0,0],"response":[3,1],"correct":false,"juego":15,"trial_type":"serial-reaction-time-mouse","trial_index":75,"time_elapsed":4170004,"internal_node_id":"0.0-11.0-5.0"},{"rt":14738.000000000466,"grid":[[1,1,1]],"target":[0,0],"response":[0,0],"correct":true,"juego":12,"trial_type":"serial-reaction-time-mouse","trial_index":76,"time_elapsed":4184746,"internal_node_id":"0.0-11.0-6.0"},{"rt":8642,"grid":[[1,1],[1,1],[1,1],[1,1],[1,1],[1,1],[1,1]],"target":[0,0],"response":[3,1],"correct":false,"juego":14,"trial_type":"serial-reaction-time-mouse","trial_index":77,"time_elapsed":4193394,"internal_node_id":"0.0-11.0-7.0"},{"rt":5203.999999999534,"grid":[[1,1,1],[1,1,1],[1,1,1],[1,1,1],[1,1,1],[1,1,1],[1,1,1]],"target":[0,0],"response":[1,1],"correct":false,"juego":6,"trial_type":"serial-reaction-time-mouse","trial_index":78,"time_elapsed":4198603,"internal_node_id":"0.0-11.0-8.0"},{"rt":2949,"grid":[[1,1,1]],"target":[0,2],"response":[0,2],"correct":true,"juego":1,"trial_type":"serial-reaction-time-mouse","trial_index":79,"time_elapsed":4201556,"internal_node_id":"0.0-11.0-9.0"},{"rt":5461,"grid":[[1,1,1]],"target":[0,0],"response":[0,1],"correct":false,"juego":9,"trial_type":"serial-reaction-time-mouse","trial_index":80,"time_elapsed":4207019,"internal_node_id":"0.0-11.0-10.0"},{"rt":3287,"grid":[[1],[1],[1]],"target":[0,2],"response":[1,0],"correct":false,"juego":4,"trial_type":"serial-reaction-time-mouse","trial_index":81,"time_elapsed":4210309,"internal_node_id":"0.0-11.0-11.0"},{"rt":3915.0000000004657,"grid":[[1,1,1]],"target":[0,2],"response":[0,2],"correct":true,"juego":3,"trial_type":"serial-reaction-time-mouse","trial_index":82,"time_elapsed":4214226,"internal_node_id":"0.0-11.0-12.0"},{"rt":6391,"grid":[[1,1,1],[1,1,1],[1,1,1],[1,1,1],[1,1,1],[1,1,1],[1,1,1]],"target":[0,0],"response":[3,1],"correct":false,"juego":13,"trial_type":"serial-reaction-time-mouse","trial_index":83,"time_elapsed":4220622,"internal_node_id":"0.0-11.0-13.0"},{"rt":22393,"grid":[[1,1,1]],"target":[0,2],"response":[0,2],"correct":true,"juego":8,"trial_type":"serial-reaction-time-mouse","trial_index":84,"time_elapsed":4243018,"internal_node_id":"0.0-11.0-14.0"},{"rt":3687,"stimulus":"<h1>Último juego</h1><p style=\"font-size: 130%;\">Tienes <span style=\"color:red\">20</span> segundos para recordar los pares de palabras que aparecerán a continuación. <br></p>","response":0,"trial_type":"html-button-response","trial_index":85,"time_elapsed":4246711,"internal_node_id":"0.0-12.0"},{"animation_sequence":[{"stimulus":"imagen_juego_interferencia.jpg","time":521.0000000004657},{"stimulus":"imagen_juego_interferencia.jpg","time":1006},{"stimulus":"imagen_juego_interferencia.jpg","time":1507},{"stimulus":"imagen_juego_interferencia.jpg","time":2008},{"stimulus":"imagen_juego_interferencia.jpg","time":2509},{"stimulus":"imagen_juego_interferencia.jpg","time":3010},{"stimulus":"imagen_juego_interferencia.jpg","time":3510},{"stimulus":"imagen_juego_interferencia.jpg","time":4012.0000000004657},{"stimulus":"imagen_juego_interferencia.jpg","time":4512.000000000466},{"stimulus":"imagen_juego_interferencia.jpg","time":5014},{"stimulus":"imagen_juego_interferencia.jpg","time":5515},{"stimulus":"imagen_juego_interferencia.jpg","time":6016},{"stimulus":"imagen_juego_interferencia.jpg","time":6517},{"stimulus":"imagen_juego_interferencia.jpg","time":7018},{"stimulus":"imagen_juego_interferencia.jpg","time":7519},{"stimulus":"imagen_juego_interferencia.jpg","time":8020},{"stimulus":"imagen_juego_interferencia.jpg","time":8521.000000000466},{"stimulus":"imagen_juego_interferencia.jpg","time":9023.000000000466},{"stimulus":"imagen_juego_interferencia.jpg","time":9524},{"stimulus":"imagen_juego_interferencia.jpg","time":10025},{"stimulus":"imagen_juego_interferencia.jpg","time":10526},{"stimulus":"imagen_juego_interferencia.jpg","time":11027},{"stimulus":"imagen_juego_interferencia.jpg","time":11528},{"stimulus":"imagen_juego_interferencia.jpg","time":12030},{"stimulus":"imagen_juego_interferencia.jpg","time":12531},{"stimulus":"imagen_juego_interferencia.jpg","time":13032.000000000466},{"stimulus":"imagen_juego_interferencia.jpg","time":13533},{"stimulus":"imagen_juego_interferencia.jpg","time":14034},{"stimulus":"imagen_juego_interferencia.jpg","time":14535},{"stimulus":"imagen_juego_interferencia.jpg","time":15036},{"stimulus":"imagen_juego_interferencia.jpg","time":15537},{"stimulus":"imagen_juego_interferencia.jpg","time":16038},{"stimulus":"imagen_juego_interferencia.jpg","time":16539},{"stimulus":"imagen_juego_interferencia.jpg","time":17041.000000000466},{"stimulus":"imagen_juego_interferencia.jpg","time":17542},{"stimulus":"imagen_juego_interferencia.jpg","time":18043},{"stimulus":"imagen_juego_interferencia.jpg","time":18544},{"stimulus":"imagen_juego_interferencia.jpg","time":19045},{"stimulus":"imagen_juego_interferencia.jpg","time":19547},{"stimulus":"imagen_juego_interferencia.jpg","time":20048}],"response":[],"trial_type":"animation","trial_index":86,"time_elapsed":4267264,"internal_node_id":"0.0-13.0"},{"rt":8218,"responses":"{\"pregunta interferencia1\":\"plátano\"}","question_order":"[0]","trial_type":"survey-multi-choice-cuest","trial_index":87,"time_elapsed":4275487,"internal_node_id":"0.0-14.0-0.0"},{"rt":6317,"responses":"{\"pregunta interferencia4\":\"contador\"}","question_order":"[0]","trial_type":"survey-multi-choice-cuest","trial_index":88,"time_elapsed":4281808,"internal_node_id":"0.0-14.0-1.0"},{"rt":3519.0000000004657,"responses":"{\"pregunta interferencia2\":\"cucaracha\"}","question_order":"[0]","trial_type":"survey-multi-choice-cuest","trial_index":89,"time_elapsed":4285332,"internal_node_id":"0.0-14.0-2.0"},{"rt":3754,"responses":"{\"pregunta interferencia3\":\"plata\"}","question_order":"[0]","trial_type":"survey-multi-choice-cuest","trial_index":90,"time_elapsed":4289090,"internal_node_id":"0.0-14.0-3.0"},{"success":true,"trial_type":"fullscreen","trial_index":91,"time_elapsed":4290095,"internal_node_id":"0.0-15.0"},{"rt":14628,"responses":"{\"Telefono\":\"978823147\"}","trial_type":"survey-text","trial_index":92,"time_elapsed":4304742,"internal_node_id":"0.0-16.0"}]