[{"rt":2216.550000011921,"stimulus":"<h1 style=\"color:red; margin-top: 3%;\">¡Bienvenido(a)!</h1><p style=\"text-align:left; justify-content:space-between; margin-right: 5%; margin-left: 5%; margin-top: 5%\"> Antes de empezar el estudio, necesitamos que nos confirmes que estás de acuerdo con participar. Recuerda que tu participación es 100% voluntaria y que lo único que te pedimos es responder lo mejor que puedas. Recuerda también que el estudio incluye:</p><ol style=\"text-align:left; justify-content:space-between; margin-right: 5%; margin-left: 5%;\"><li> un ejercicio de resolución de preguntas de selección múltiple (30’),</li><li>un cuestionario breve (5’),</li><li>un juego muy breve (3’),</li></ol><p style=\"text-align:left; justify-content:space-between; margin-right: 5%; margin-left: 5%;\">Si quieres participar, haz clic en “Acepto” luego de leer lo siguiente:<br></p><p style=\"text-align:left; justify-content:space-between; margin-right: 5%; margin-left: 5%;\">Acepto participar en el estudio “Estrategias de lectura y resolución de preguntas de selección múltiple”, en los términos aquí señalados:<br></p><p style=\"text-align:left; justify-content:space-between; margin-right: 5%; margin-left: 5%;\"><a href=\"http://ciae.uchile.cl/download.php?file=noticias/Asentimiento.pdf\" target=\"_blank\">Link a la hoja de información del Consentimiento.</a></p><p style=\"text-align:left; justify-content:space-between; margin-right: 5%; margin-left: 5%;\">Declaro que he leído (o se me ha leído) y (he) comprendido, las condiciones de mi participación en este estudio. He tenido la oportunidad de hacer preguntas y éstas han sido respondidas. No tengo dudas al respecto.</p>","response":0,"condicion_MCQ":2,"condicion_INTER":8,"numero_participante":32,"numero_version":2,"dimx":1366,"dimy":768,"color_profundidad":24,"pixel_profundidad":24,"Browser":"Google Chrome","trial_type":"html-button-response","trial_index":0,"time_elapsed":2220,"internal_node_id":"0.0-0.0"},{"success":true,"trial_type":"fullscreen","trial_index":1,"time_elapsed":4507,"internal_node_id":"0.0-1.0"},{"rt":47294.5400000317,"responses":"{\"Nombres\":\"matias ignacio\",\"Apellidos\":\"cantillana acosta\",\"Edad\":\"21\",\"Sexo\":\"hombre\",\"Curso\":\"primero de psicologia\",\"Colegio\":\"u andres bellos\",\"Contacto\":\"matias.cantillana.12@gmail.com\"}","trial_type":"survey-text","trial_index":2,"time_elapsed":51810,"internal_node_id":"0.0-2.0"},{"success":true,"timeout":false,"failed_images":[],"failed_audio":[],"failed_video":[],"trial_type":"preload","trial_index":3,"time_elapsed":52257,"internal_node_id":"0.0-3.0"},{"rt":2233.280000044033,"stimulus":"<h1 style:\"margin-top: 5%;\">Ejercicios de Comprensión de Lectura de la Universidad de Chile</h1><p style=\"font-size: 120%;\">En esta actividad, debes responder 30 preguntas de selección múltiple. Cada pregunta presenta 3 respuestas alternativas, pero sólo una de ellas es correcta. Por lo tanto, debes escoger una sola alternativa para cada pregunta. Además, debes reportar qué tan seguro(a) estás de la respuesta que das, con un:</p><ol style=\"font-size: 120%;text-align:left;margin-left: 40%;\"><li>No estoy seguro(a) para nada</li><li>No estoy muy seguro(a)</li><li>Estoy bastante seguro(a)</li><li>Estoy totalmente seguro(a)</li></ol><p style=\"font-size: 120%;\">Por favor lee bien los enunciados antes de responder. ¡Éxito!</p>","response":0,"trial_type":"html-button-response","trial_index":4,"time_elapsed":54492,"internal_node_id":"0.0-4.0"},{"rt":65759.14500001818,"responses":"{\"pregunta29\":\"a) el jardinero estará muerto al día siguiente. \"}","question_order":"[0]","trial_type":"survey-multi-choice","trial_index":5,"time_elapsed":120254,"internal_node_id":"0.0-5.0-0.0"},{"rt":2281.0549999121577,"response":{"pregunta29 likert":1},"question_order":[0],"trial_type":"survey-likert","trial_index":6,"time_elapsed":122538,"internal_node_id":"0.0-5.0-1.0"},{"rt":33185.9800000675,"responses":"{\"pregunta30\":\"b) para el mexicano, la muerte es cotidiana. \"}","question_order":"[0]","trial_type":"survey-multi-choice","trial_index":7,"time_elapsed":155726,"internal_node_id":"0.0-5.0-2.0"},{"rt":2017.9299999726936,"response":{"pregunta30 likert":2},"question_order":[0],"trial_type":"survey-likert","trial_index":8,"time_elapsed":157747,"internal_node_id":"0.0-5.0-3.0"},{"rt":37814.42499998957,"responses":"{\"pregunta27\":\"b) Nuestra economía vivirá un proceso de ajuste a la nueva realidad. \"}","question_order":"[0]","trial_type":"survey-multi-choice","trial_index":9,"time_elapsed":195563,"internal_node_id":"0.0-5.0-4.0"},{"rt":2131.470000022091,"response":{"pregunta27 likert":2},"question_order":[0],"trial_type":"survey-likert","trial_index":10,"time_elapsed":197698,"internal_node_id":"0.0-5.0-5.0"},{"rt":68160.25999991689,"responses":"{\"pregunta17\":\"c) Homenajear a quienes murieron. \"}","question_order":"[0]","trial_type":"survey-multi-choice","trial_index":11,"time_elapsed":265861,"internal_node_id":"0.0-5.0-6.0"},{"rt":2279.744999948889,"response":{"pregunta17 likert":2},"question_order":[0],"trial_type":"survey-likert","trial_index":12,"time_elapsed":268144,"internal_node_id":"0.0-5.0-7.0"},{"rt":58519.13999998942,"responses":"{\"pregunta20\":\"a) el mejor emperador es el que está muerto. \"}","question_order":"[0]","trial_type":"survey-multi-choice","trial_index":13,"time_elapsed":326667,"internal_node_id":"0.0-5.0-8.0"},{"rt":3998.449999955483,"response":{"pregunta20 likert":1},"question_order":[0],"trial_type":"survey-likert","trial_index":14,"time_elapsed":330669,"internal_node_id":"0.0-5.0-9.0"},{"rt":48976.540000061505,"responses":"{\"pregunta14\":\"b) preparar los recuerdos del mañana. \"}","question_order":"[0]","trial_type":"survey-multi-choice","trial_index":15,"time_elapsed":379649,"internal_node_id":"0.0-5.0-10.0"},{"rt":1898.5600000014529,"response":{"pregunta14 likert":2},"question_order":[0],"trial_type":"survey-likert","trial_index":16,"time_elapsed":381551,"internal_node_id":"0.0-5.0-11.0"},{"rt":42855.1649999572,"responses":"{\"pregunta28\":\"c) Se necesita un marco legal para delimitar lo público y lo privado en materia informativa. \"}","question_order":"[0]","trial_type":"survey-multi-choice","trial_index":17,"time_elapsed":424408,"internal_node_id":"0.0-5.0-12.0"},{"rt":1960.7800000812858,"response":{"pregunta28 likert":2},"question_order":[0],"trial_type":"survey-likert","trial_index":18,"time_elapsed":426371,"internal_node_id":"0.0-5.0-13.0"},{"rt":55644.57000000402,"responses":"{\"pregunta25\":\"a) llevan un control grupal de su embarazo. \"}","question_order":"[0]","trial_type":"survey-multi-choice","trial_index":19,"time_elapsed":482019,"internal_node_id":"0.0-5.0-14.0"},{"rt":2509.9049999844283,"response":{"pregunta25 likert":1},"question_order":[0],"trial_type":"survey-likert","trial_index":20,"time_elapsed":484533,"internal_node_id":"0.0-5.0-15.0"},{"rt":54963.32999994047,"responses":"{\"pregunta11\":\"b) Promover la asistencia a un evento específico de decoración a través de una atractiva descripción. \"}","question_order":"[0]","trial_type":"survey-multi-choice","trial_index":21,"time_elapsed":539500,"internal_node_id":"0.0-5.0-16.0"},{"rt":3012.125000008382,"response":{"pregunta11 likert":2},"question_order":[0],"trial_type":"survey-likert","trial_index":22,"time_elapsed":542515,"internal_node_id":"0.0-5.0-17.0"},{"rt":69357.5749999145,"responses":"{\"pregunta24\":\"c) El receptor es habitualmente pasivo frente a la publicidad. \"}","question_order":"[0]","trial_type":"survey-multi-choice","trial_index":23,"time_elapsed":611876,"internal_node_id":"0.0-5.0-18.0"},{"rt":3026.689999969676,"response":{"pregunta24 likert":2},"question_order":[0],"trial_type":"survey-likert","trial_index":24,"time_elapsed":614906,"internal_node_id":"0.0-5.0-19.0"},{"rt":92292.9399999557,"responses":"{\"pregunta15\":\"a) religiosos y precavidos. \"}","question_order":"[0]","trial_type":"survey-multi-choice","trial_index":25,"time_elapsed":707201,"internal_node_id":"0.0-5.0-20.0"},{"rt":1898.9850000943989,"response":{"pregunta15 likert":1},"question_order":[0],"trial_type":"survey-likert","trial_index":26,"time_elapsed":709103,"internal_node_id":"0.0-5.0-21.0"},{"rt":50641.39000000432,"responses":"{\"pregunta5\":\"a) Los momentos triviales de los viajes, en la escritura se vuelven significativos. \"}","question_order":"[0]","trial_type":"survey-multi-choice","trial_index":27,"time_elapsed":759748,"internal_node_id":"0.0-5.0-22.0"},{"rt":2361.419999971986,"response":{"pregunta5 likert":2},"question_order":[0],"trial_type":"survey-likert","trial_index":28,"time_elapsed":762112,"internal_node_id":"0.0-5.0-23.0"},{"rt":72124.61500009522,"responses":"{\"pregunta6\":\"a) Las voces extranjeras viven una tensión entre la aceptación y el rechazo. \"}","question_order":"[0]","trial_type":"survey-multi-choice","trial_index":29,"time_elapsed":834239,"internal_node_id":"0.0-5.0-24.0"},{"rt":2182.5699999462813,"response":{"pregunta6 likert":1},"question_order":[0],"trial_type":"survey-likert","trial_index":30,"time_elapsed":836425,"internal_node_id":"0.0-5.0-25.0"},{"rt":56332.960000028834,"responses":"{\"pregunta21\":\"c) la creación de elementos químicos artificiales ha resultado de la manipulación del uranio. \"}","question_order":"[0]","trial_type":"survey-multi-choice","trial_index":31,"time_elapsed":892760,"internal_node_id":"0.0-5.0-26.0"},{"rt":1805.170000065118,"response":{"pregunta21 likert":2},"question_order":[0],"trial_type":"survey-likert","trial_index":32,"time_elapsed":894568,"internal_node_id":"0.0-5.0-27.0"},{"rt":62201.495000044815,"responses":"{\"pregunta3\":\"c) El inicio de la civilización china. \"}","question_order":"[0]","trial_type":"survey-multi-choice","trial_index":33,"time_elapsed":956772,"internal_node_id":"0.0-5.0-28.0"},{"rt":2773.1650000205263,"response":{"pregunta3 likert":2},"question_order":[0],"trial_type":"survey-likert","trial_index":34,"time_elapsed":959549,"internal_node_id":"0.0-5.0-29.0"},{"rt":70899.12499999627,"responses":"{\"pregunta26\":\"c) el sujeto sufre con su modo de vida. \"}","question_order":"[0]","trial_type":"survey-multi-choice","trial_index":35,"time_elapsed":1030451,"internal_node_id":"0.0-5.0-30.0"},{"rt":2739.4749999511987,"response":{"pregunta26 likert":2},"question_order":[0],"trial_type":"survey-likert","trial_index":36,"time_elapsed":1033194,"internal_node_id":"0.0-5.0-31.0"},{"rt":35504.560000030324,"responses":"{\"pregunta8\":\"c) Comparar a Cervantes con Quevedo. \"}","question_order":"[0]","trial_type":"survey-multi-choice","trial_index":37,"time_elapsed":1068701,"internal_node_id":"0.0-5.0-32.0"},{"rt":2746.099999989383,"response":{"pregunta8 likert":1},"question_order":[0],"trial_type":"survey-likert","trial_index":38,"time_elapsed":1071449,"internal_node_id":"0.0-5.0-33.0"},{"rt":39574.9450000003,"responses":"{\"pregunta9\":\"a) pueden ejercer profesiones científicas de la misma forma en que lo hacen los hombres. \"}","question_order":"[0]","trial_type":"survey-multi-choice","trial_index":39,"time_elapsed":1111026,"internal_node_id":"0.0-5.0-34.0"},{"rt":1983.9549999451265,"response":{"pregunta9 likert":2},"question_order":[0],"trial_type":"survey-likert","trial_index":40,"time_elapsed":1113012,"internal_node_id":"0.0-5.0-35.0"},{"rt":42106.539999949746,"responses":"{\"pregunta18\":\"a) A la inutilidad de tanto esfuerzo si el objetivo es el reposo. \"}","question_order":"[0]","trial_type":"survey-multi-choice","trial_index":41,"time_elapsed":1155121,"internal_node_id":"0.0-5.0-36.0"},{"rt":1960.495000006631,"response":{"pregunta18 likert":2},"question_order":[0],"trial_type":"survey-likert","trial_index":42,"time_elapsed":1157084,"internal_node_id":"0.0-5.0-37.0"},{"rt":54535.144999972545,"responses":"{\"pregunta16\":\"a) Provocar el deseo de la adquisición vertiginosa. \"}","question_order":"[0]","trial_type":"survey-multi-choice","trial_index":43,"time_elapsed":1211623,"internal_node_id":"0.0-5.0-38.0"},{"rt":2007.9299999633804,"response":{"pregunta16 likert":2},"question_order":[0],"trial_type":"survey-likert","trial_index":44,"time_elapsed":1213634,"internal_node_id":"0.0-5.0-39.0"},{"rt":54615.47000007704,"responses":"{\"pregunta23\":\"a) A la influencia de grupos que rechazaban su música. \"}","question_order":"[0]","trial_type":"survey-multi-choice","trial_index":45,"time_elapsed":1268254,"internal_node_id":"0.0-5.0-40.0"},{"rt":1993.3650000020862,"response":{"pregunta23 likert":2},"question_order":[0],"trial_type":"survey-likert","trial_index":46,"time_elapsed":1270251,"internal_node_id":"0.0-5.0-41.0"},{"rt":50484.620000002906,"responses":"{\"pregunta4\":\"a) En la literatura como en la vida, lo importante son las preguntas. \"}","question_order":"[0]","trial_type":"survey-multi-choice","trial_index":47,"time_elapsed":1320739,"internal_node_id":"0.0-5.0-42.0"},{"rt":1785.1199998985976,"response":{"pregunta4 likert":2},"question_order":[0],"trial_type":"survey-likert","trial_index":48,"time_elapsed":1322527,"internal_node_id":"0.0-5.0-43.0"},{"rt":55345.635000034235,"responses":"{\"pregunta10\":\"c) La biónica puede asegurar nuestra existencia mediante la aplicación de técnicas copiadas de la naturaleza. \"}","question_order":"[0]","trial_type":"survey-multi-choice","trial_index":49,"time_elapsed":1377876,"internal_node_id":"0.0-5.0-44.0"},{"rt":1769.7499999776483,"response":{"pregunta10 likert":2},"question_order":[0],"trial_type":"survey-likert","trial_index":50,"time_elapsed":1379649,"internal_node_id":"0.0-5.0-45.0"},{"rt":58280.61000001617,"responses":"{\"pregunta12\":\"c) se da como existente, y sólo se discute su relación con el cuerpo. \"}","question_order":"[0]","trial_type":"survey-multi-choice","trial_index":51,"time_elapsed":1437933,"internal_node_id":"0.0-5.0-46.0"},{"rt":2201.3049999950454,"response":{"pregunta12 likert":1},"question_order":[0],"trial_type":"survey-likert","trial_index":52,"time_elapsed":1440138,"internal_node_id":"0.0-5.0-47.0"},{"rt":67632.76499998756,"responses":"{\"pregunta19\":\"b) El hábito de la lectura y el progreso mantienen una relación inversamente proporcional. \"}","question_order":"[0]","trial_type":"survey-multi-choice","trial_index":53,"time_elapsed":1507775,"internal_node_id":"0.0-5.0-48.0"},{"rt":2262.265000026673,"response":{"pregunta19 likert":2},"question_order":[0],"trial_type":"survey-likert","trial_index":54,"time_elapsed":1510040,"internal_node_id":"0.0-5.0-49.0"},{"rt":44182.81499994919,"responses":"{\"pregunta1\":\"c) Aportan informaciones con las que se reconstruye el personaje dentro de un relato. \"}","question_order":"[0]","trial_type":"survey-multi-choice","trial_index":55,"time_elapsed":1554226,"internal_node_id":"0.0-5.0-50.0"},{"rt":1719.2300000460818,"response":{"pregunta1 likert":2},"question_order":[0],"trial_type":"survey-likert","trial_index":56,"time_elapsed":1555948,"internal_node_id":"0.0-5.0-51.0"},{"rt":66310.73000002652,"responses":"{\"pregunta2\":\"c) A la relación entre civilización y sociedad. \"}","question_order":"[0]","trial_type":"survey-multi-choice","trial_index":57,"time_elapsed":1622262,"internal_node_id":"0.0-5.0-52.0"},{"rt":2756.829999969341,"response":{"pregunta2 likert":1},"question_order":[0],"trial_type":"survey-likert","trial_index":58,"time_elapsed":1625022,"internal_node_id":"0.0-5.0-53.0"},{"rt":71827.54999992903,"responses":"{\"pregunta7\":\"a) Si desaparecieran el papel y la imprenta, se produciría un gran retraso en nuestra civilización. \"}","question_order":"[0]","trial_type":"survey-multi-choice","trial_index":59,"time_elapsed":1696852,"internal_node_id":"0.0-5.0-54.0"},{"rt":2057.34499997925,"response":{"pregunta7 likert":2},"question_order":[0],"trial_type":"survey-likert","trial_index":60,"time_elapsed":1698913,"internal_node_id":"0.0-5.0-55.0"},{"rt":42080.189999891445,"responses":"{\"pregunta22\":\"a) Por el riesgo que corren diariamente, los bomberos deberían tener mejores condiciones de seguridad. \"}","question_order":"[0]","trial_type":"survey-multi-choice","trial_index":61,"time_elapsed":1740996,"internal_node_id":"0.0-5.0-56.0"},{"rt":1399.474999983795,"response":{"pregunta22 likert":2},"question_order":[0],"trial_type":"survey-likert","trial_index":62,"time_elapsed":1742397,"internal_node_id":"0.0-5.0-57.0"},{"rt":55764.10000002943,"responses":"{\"pregunta13\":\"a) El ser humano se comporta de acuerdo con las circunstancias. \"}","question_order":"[0]","trial_type":"survey-multi-choice","trial_index":63,"time_elapsed":1798164,"internal_node_id":"0.0-5.0-58.0"},{"rt":1599.9750000191852,"response":{"pregunta13 likert":1},"question_order":[0],"trial_type":"survey-likert","trial_index":64,"time_elapsed":1799767,"internal_node_id":"0.0-5.0-59.0"},{"rt":3846.279999939725,"stimulus":"<p style=\"font-size: 120%\">Gracias por completar esta etapa del estudio. Ahora te invitamos a responder el cuestionario.<br><br></p>","response":0,"trial_type":"html-button-response","trial_index":65,"time_elapsed":1803618,"internal_node_id":"0.0-6.0"},{"rt":36678.90499997884,"stimulus":"<h1 style=\"margin-top: 5%\">Cuestionario para la Evaluación de Metas Académicas</h1><p style=\"font-size: 120%; margin-left: 3%; margin-top: 5%\">Este es un cuestionario que permite conocer cuáles son los principales motivos por los que los estudiantes se esfuerzan en su trabajo académico. A continuación, se te presentarán una serie de afirmaciones acerca de los motivos que puedes tener para estudiar.<br>Te pedimos que contestes a dichas afirmaciones reflexionando sobre el contenido de cada una de ellas, que, aunque te parezcan semejantes, en realidad, no lo son.<br>NO HAY RESPUESTAS CORRECTAS o INCORRECTAS, sólo queremos que respondas con la mayor precisión y sinceridad posible a las preguntas que se plantean.","response":0,"trial_type":"html-button-response","trial_index":66,"time_elapsed":1840298,"internal_node_id":"0.0-7.0"},{"rt":144947.01500004157,"response":{"Metas cuestionario pregunta1":4,"Metas cuestionario pregunta2":3,"Metas cuestionario pregunta3":4,"Metas cuestionario pregunta4":3,"Metas cuestionario pregunta5":3,"Metas cuestionario pregunta6":4,"Metas cuestionario pregunta7":2,"Metas cuestionario pregunta8":3,"Metas cuestionario pregunta9":1,"Metas cuestionario pregunta10":2,"Metas cuestionario pregunta11":0,"Metas cuestionario pregunta12":2,"Metas cuestionario pregunta13":1,"Metas cuestionario pregunta14":0,"Metas cuestionario pregunta15":4,"Metas cuestionario pregunta16":3,"Metas cuestionario pregunta17":4,"Metas cuestionario pregunta18":4,"Metas cuestionario pregunta19":3,"Metas cuestionario pregunta20":0},"question_order":[0,1,2,3,4,5,6,7,8,9,10,11,12,13,14,15,16,17,18,19],"trial_type":"survey-likert","trial_index":67,"time_elapsed":1985253,"internal_node_id":"0.0-8.0"},{"rt":2691.01499998942,"stimulus":"<p style=\"font-size: 120%\">Gracias por responder el cuestionario. Ahora te invitamos a seguir con el juego, que es muy breve.<br><br></p>","response":0,"trial_type":"html-button-response","trial_index":68,"time_elapsed":1987951,"internal_node_id":"0.0-9.0"},{"rt":13178.264999995008,"stimulus":"<h1>Juego</h1><p style=\"font-size: 120%;\">A continuación se te presentarán 16 pequeñas historias.<br>Por favor lee el texto presentado en cada una de ellas y luego haz click en el objeto de tu elección.<br>Si estás listo(a),<span style=\"color:red;\"> haz click en \"comenzar\"</span>.</p>","response":0,"trial_type":"html-button-response","trial_index":69,"time_elapsed":2001131,"internal_node_id":"0.0-10.0"},{"rt":7116.990000009537,"grid":[[1],[1],[1]],"target":[0,2],"response":[1,0],"correct":false,"juego":4,"trial_type":"serial-reaction-time-mouse","trial_index":70,"time_elapsed":2008251,"internal_node_id":"0.0-11.0-0.0"},{"rt":6087.280000094324,"grid":[[1,1,1]],"target":[0,2],"response":[0,0],"correct":false,"juego":1,"trial_type":"serial-reaction-time-mouse","trial_index":71,"time_elapsed":2014340,"internal_node_id":"0.0-11.0-1.0"},{"rt":12836.694999947213,"grid":[[1],[1],[1],[1],[1],[1]],"target":[0,0],"response":[2,0],"correct":false,"juego":5,"trial_type":"serial-reaction-time-mouse","trial_index":72,"time_elapsed":2027178,"internal_node_id":"0.0-11.0-2.0"},{"rt":24117.619999917224,"grid":[[1,1,1],[1,1,1],[1,1,1]],"target":[0,0],"response":[0,2],"correct":false,"juego":10,"trial_type":"serial-reaction-time-mouse","trial_index":73,"time_elapsed":2051297,"internal_node_id":"0.0-11.0-3.0"},{"rt":10026.284999912605,"grid":[[1,1,1],[1,1,1],[1,1,1],[1,1,1],[1,1,1],[1,1,1],[1,1,1]],"target":[0,0],"response":[1,1],"correct":false,"juego":13,"trial_type":"serial-reaction-time-mouse","trial_index":74,"time_elapsed":2061325,"internal_node_id":"0.0-11.0-4.0"},{"rt":17452.245000051335,"grid":[[1,1,1]],"target":[0,0],"response":[0,0],"correct":true,"juego":9,"trial_type":"serial-reaction-time-mouse","trial_index":75,"time_elapsed":2078779,"internal_node_id":"0.0-11.0-5.0"},{"rt":12941.465000039898,"grid":[[1,1,1]],"target":[0,0],"response":[0,1],"correct":false,"juego":12,"trial_type":"serial-reaction-time-mouse","trial_index":76,"time_elapsed":2091722,"internal_node_id":"0.0-11.0-6.0"},{"rt":8959.649999975227,"grid":[[1,1,1]],"target":[0,2],"response":[0,1],"correct":false,"juego":8,"trial_type":"serial-reaction-time-mouse","trial_index":77,"time_elapsed":2100683,"internal_node_id":"0.0-11.0-7.0"},{"rt":19121.735000051558,"grid":[[1,1],[1,1],[1,1],[1,1],[1,1],[1,1],[1,1]],"target":[0,0],"response":[3,1],"correct":false,"juego":15,"trial_type":"serial-reaction-time-mouse","trial_index":78,"time_elapsed":2119807,"internal_node_id":"0.0-11.0-8.0"},{"rt":9100.384999997914,"grid":[[1,1,1]],"target":[0,2],"response":[0,2],"correct":true,"juego":3,"trial_type":"serial-reaction-time-mouse","trial_index":79,"time_elapsed":2128909,"internal_node_id":"0.0-11.0-9.0"},{"rt":12715.259999968112,"grid":[[1,1],[1,1],[1,1],[1,1],[1,1],[1,1],[1,1]],"target":[0,0],"response":[5,1],"correct":false,"juego":14,"trial_type":"serial-reaction-time-mouse","trial_index":80,"time_elapsed":2141626,"internal_node_id":"0.0-11.0-10.0"},{"rt":7351.705000037327,"grid":[[1,1,1],[1,1,1],[1,1,1],[1,1,1],[1,1,1],[1,1,1],[1,1,1]],"target":[0,0],"response":[1,1],"correct":false,"juego":6,"trial_type":"serial-reaction-time-mouse","trial_index":81,"time_elapsed":2148980,"internal_node_id":"0.0-11.0-11.0"},{"rt":16860.18000007607,"grid":[[1,1,1]],"target":[0,0],"response":[0,1],"correct":false,"juego":11,"trial_type":"serial-reaction-time-mouse","trial_index":82,"time_elapsed":2165842,"internal_node_id":"0.0-11.0-12.0"},{"rt":8689.305000007153,"grid":[[1,1,1]],"target":[0,2],"response":[0,2],"correct":true,"juego":7,"trial_type":"serial-reaction-time-mouse","trial_index":83,"time_elapsed":2174532,"internal_node_id":"0.0-11.0-13.0"},{"rt":7478.695000056177,"grid":[[1,1,1]],"target":[0,2],"response":[0,0],"correct":false,"juego":2,"trial_type":"serial-reaction-time-mouse","trial_index":84,"time_elapsed":2182012,"internal_node_id":"0.0-11.0-14.0"}]