[{"rt":15751.044999982696,"stimulus":"<h1 style=\"color:red; margin-top: 3%;\">¡Bienvenido(a)!</h1><p style=\"text-align:left; justify-content:space-between; margin-right: 5%; margin-left: 5%; margin-top: 5%\"> Antes de empezar el estudio, necesitamos que nos confirmes que estás de acuerdo con participar. Recuerda que tu participación es 100% voluntaria y que lo único que te pedimos es responder lo mejor que puedas. Recuerda también que el estudio incluye:</p><ol style=\"text-align:left; justify-content:space-between; margin-right: 5%; margin-left: 5%;\"><li> un ejercicio de resolución de preguntas de selección múltiple (30’),</li><li>un cuestionario breve (5’),</li><li>un juego muy breve (3’),</li></ol><p style=\"text-align:left; justify-content:space-between; margin-right: 5%; margin-left: 5%;\">Si quieres participar, haz clic en “Acepto” luego de leer lo siguiente:<br></p><p style=\"text-align:left; justify-content:space-between; margin-right: 5%; margin-left: 5%;\">Acepto participar en el estudio “Estrategias de lectura y resolución de preguntas de selección múltiple”, en los términos aquí señalados:<br></p><p style=\"text-align:left; justify-content:space-between; margin-right: 5%; margin-left: 5%;\"><a href=\"http://ciae.uchile.cl/download.php?file=noticias/Asentimiento.pdf\" target=\"_blank\">Link a la hoja de información del Consentimiento.</a></p><p style=\"text-align:left; justify-content:space-between; margin-right: 5%; margin-left: 5%;\">Declaro que he leído (o se me ha leído) y (he) comprendido, las condiciones de mi participación en este estudio. He tenido la oportunidad de hacer preguntas y éstas han sido respondidas. No tengo dudas al respecto.</p>","response":0,"condicion_MCQ":6,"condicion_INTER":12,"numero_participante":12,"numero_version":1,"dimx":1366,"dimy":768,"color_profundidad":24,"pixel_profundidad":24,"Browser":"Google Chrome","trial_type":"html-button-response","trial_index":0,"time_elapsed":15756,"internal_node_id":"0.0-0.0"},{"success":true,"trial_type":"fullscreen","trial_index":1,"time_elapsed":20070,"internal_node_id":"0.0-1.0"},{"rt":87689.78499999503,"responses":"{\"Nombres\":\"Cristobal Javier \",\"Apellidos\":\"Lopez Carocca\",\"Edad\":\"18\",\"Sexo\":\"hombre\",\"Curso\":\"Psicologia Primer Año\",\"Colegio\":\"Universidad Andres Bello\",\"Contacto\":\"c.lpezcarocca@uandresbello.edu\"}","trial_type":"survey-text","trial_index":2,"time_elapsed":107784,"internal_node_id":"0.0-2.0"},{"success":true,"timeout":false,"failed_images":[],"failed_audio":[],"failed_video":[],"trial_type":"preload","trial_index":3,"time_elapsed":109005,"internal_node_id":"0.0-3.0"},{"rt":3974.4700000155717,"stimulus":"<h1 style:\"margin-top: 5%;\">Ejercicios de Comprensión de Lectura de la Universidad de Chile</h1><p style=\"font-size: 120%;\">En esta actividad, debes responder 30 preguntas de selección múltiple. Cada pregunta presenta 3 respuestas alternativas, pero sólo una de ellas es correcta. Por lo tanto, debes escoger una sola alternativa para cada pregunta. Además, debes reportar qué tan seguro(a) estás de la respuesta que das, con un:</p><ol style=\"font-size: 120%;text-align:left;margin-left: 40%;\"><li>No estoy seguro(a) para nada</li><li>No estoy muy seguro(a)</li><li>Estoy bastante seguro(a)</li><li>Estoy totalmente seguro(a)</li></ol><p style=\"font-size: 120%;\">Por favor lee bien los enunciados antes de responder. ¡Éxito!</p>","response":0,"trial_type":"html-button-response","trial_index":4,"time_elapsed":112981,"internal_node_id":"0.0-4.0"},{"rt":51993.799999996554,"responses":"{\"pregunta22\":\"a) Bomberos debería tener acceso a un seguro médico, al que pueda recurrir en caso de accidente. \"}","question_order":"[0]","trial_type":"survey-multi-choice","trial_index":5,"time_elapsed":164977,"internal_node_id":"0.0-5.0-0.0"},{"rt":4171.084999979939,"response":{"pregunta22 likert":3},"question_order":[0],"trial_type":"survey-likert","trial_index":6,"time_elapsed":169151,"internal_node_id":"0.0-5.0-1.0"},{"rt":58651.32999996422,"responses":"{\"pregunta14\":\"c) preparar los recuerdos del mañana. \"}","question_order":"[0]","trial_type":"survey-multi-choice","trial_index":7,"time_elapsed":227804,"internal_node_id":"0.0-5.0-2.0"},{"rt":2759.4650000100955,"response":{"pregunta14 likert":2},"question_order":[0],"trial_type":"survey-likert","trial_index":8,"time_elapsed":230566,"internal_node_id":"0.0-5.0-3.0"},{"rt":25159.36499997042,"responses":"{\"pregunta30\":\"c) para el mexicano, la muerte es cotidiana. \"}","question_order":"[0]","trial_type":"survey-multi-choice","trial_index":9,"time_elapsed":255728,"internal_node_id":"0.0-5.0-4.0"},{"rt":4595.81500000786,"response":{"pregunta30 likert":3},"question_order":[0],"trial_type":"survey-likert","trial_index":10,"time_elapsed":260327,"internal_node_id":"0.0-5.0-5.0"},{"rt":201451.93500001915,"responses":"{\"pregunta10\":\"b) La biónica es una disciplina que aprovecha las condiciones del entorno. \"}","question_order":"[0]","trial_type":"survey-multi-choice","trial_index":11,"time_elapsed":461781,"internal_node_id":"0.0-5.0-6.0"},{"rt":1555.6449999567121,"response":{"pregunta10 likert":1},"question_order":[0],"trial_type":"survey-likert","trial_index":12,"time_elapsed":463339,"internal_node_id":"0.0-5.0-7.0"},{"rt":221920.55999999866,"responses":"{\"pregunta21\":\"b) la creación de elementos químicos artificiales ha resultado de la manipulación del uranio. \"}","question_order":"[0]","trial_type":"survey-multi-choice","trial_index":13,"time_elapsed":685261,"internal_node_id":"0.0-5.0-8.0"},{"rt":1781.6699999966659,"response":{"pregunta21 likert":3},"question_order":[0],"trial_type":"survey-likert","trial_index":14,"time_elapsed":687045,"internal_node_id":"0.0-5.0-9.0"},{"rt":87513.489999983,"responses":"{\"pregunta8\":\"b) Dar a conocer al ganador del premio Cervantes. \"}","question_order":"[0]","trial_type":"survey-multi-choice","trial_index":15,"time_elapsed":774560,"internal_node_id":"0.0-5.0-10.0"},{"rt":1545.6550000235438,"response":{"pregunta8 likert":1},"question_order":[0],"trial_type":"survey-likert","trial_index":16,"time_elapsed":776108,"internal_node_id":"0.0-5.0-11.0"},{"rt":126295.06499995477,"responses":"{\"pregunta7\":\"a) La imprenta y el papel han permitido el desarrollo de la civilización y la conservación de su cultura, y ambos son inventos chinos. \"}","question_order":"[0]","trial_type":"survey-multi-choice","trial_index":17,"time_elapsed":902405,"internal_node_id":"0.0-5.0-12.0"},{"rt":12015.720000024885,"response":{"pregunta7 likert":3},"question_order":[0],"trial_type":"survey-likert","trial_index":18,"time_elapsed":914423,"internal_node_id":"0.0-5.0-13.0"},{"rt":91373.21499997051,"responses":"{\"pregunta29\":\"b) el jardinero estará muerto al día siguiente. \"}","question_order":"[0]","trial_type":"survey-multi-choice","trial_index":19,"time_elapsed":1005799,"internal_node_id":"0.0-5.0-14.0"},{"rt":2035.7749999966472,"response":{"pregunta29 likert":3},"question_order":[0],"trial_type":"survey-likert","trial_index":20,"time_elapsed":1007837,"internal_node_id":"0.0-5.0-15.0"},{"rt":51919.655000034254,"responses":"{\"pregunta12\":\"a) se da como existente, y sólo se discute su relación con el cuerpo. \"}","question_order":"[0]","trial_type":"survey-multi-choice","trial_index":21,"time_elapsed":1059759,"internal_node_id":"0.0-5.0-16.0"},{"rt":2059.8900000331923,"response":{"pregunta12 likert":2},"question_order":[0],"trial_type":"survey-likert","trial_index":22,"time_elapsed":1061821,"internal_node_id":"0.0-5.0-17.0"},{"rt":49843.43999996781,"responses":"{\"pregunta5\":\"b) Los momentos triviales de los viajes, en la escritura se vuelven significativos. \"}","question_order":"[0]","trial_type":"survey-multi-choice","trial_index":23,"time_elapsed":1111667,"internal_node_id":"0.0-5.0-18.0"},{"rt":1097.5549999857321,"response":{"pregunta5 likert":1},"question_order":[0],"trial_type":"survey-likert","trial_index":24,"time_elapsed":1112766,"internal_node_id":"0.0-5.0-19.0"},{"rt":98007.42999999784,"responses":"{\"pregunta9\":\"a) pueden ejercer profesiones científicas de la misma forma en que lo hacen los hombres. \"}","question_order":"[0]","trial_type":"survey-multi-choice","trial_index":25,"time_elapsed":1210775,"internal_node_id":"0.0-5.0-20.0"},{"rt":1216.115000017453,"response":{"pregunta9 likert":2},"question_order":[0],"trial_type":"survey-likert","trial_index":26,"time_elapsed":1211993,"internal_node_id":"0.0-5.0-21.0"},{"rt":65149.58500000648,"responses":"{\"pregunta25\":\"c) llevan un control grupal de su embarazo. \"}","question_order":"[0]","trial_type":"survey-multi-choice","trial_index":27,"time_elapsed":1277144,"internal_node_id":"0.0-5.0-22.0"},{"rt":1765.6500000157394,"response":{"pregunta25 likert":1},"question_order":[0],"trial_type":"survey-likert","trial_index":28,"time_elapsed":1278912,"internal_node_id":"0.0-5.0-23.0"},{"rt":24162.599999981467,"responses":"{\"pregunta28\":\"a) Se necesita un marco legal para delimitar lo público y lo privado en materia informativa. \"}","question_order":"[0]","trial_type":"survey-multi-choice","trial_index":29,"time_elapsed":1303077,"internal_node_id":"0.0-5.0-24.0"},{"rt":1611.7850000155158,"response":{"pregunta28 likert":3},"question_order":[0],"trial_type":"survey-likert","trial_index":30,"time_elapsed":1304691,"internal_node_id":"0.0-5.0-25.0"},{"rt":60621.014999982435,"responses":"{\"pregunta1\":\"b) Entregan una característica detallada del personaje, a través de la voz narrativa. \"}","question_order":"[0]","trial_type":"survey-multi-choice","trial_index":31,"time_elapsed":1365315,"internal_node_id":"0.0-5.0-26.0"},{"rt":1435.639999981504,"response":{"pregunta1 likert":2},"question_order":[0],"trial_type":"survey-likert","trial_index":32,"time_elapsed":1366753,"internal_node_id":"0.0-5.0-27.0"},{"rt":81637.39499996882,"responses":"{\"pregunta6\":\"b) Las voces extranjeras viven una tensión entre la aceptación y el rechazo. \"}","question_order":"[0]","trial_type":"survey-multi-choice","trial_index":33,"time_elapsed":1448391,"internal_node_id":"0.0-5.0-28.0"},{"rt":1195.4249999835156,"response":{"pregunta6 likert":2},"question_order":[0],"trial_type":"survey-likert","trial_index":34,"time_elapsed":1449589,"internal_node_id":"0.0-5.0-29.0"},{"rt":88103.64999994636,"responses":"{\"pregunta24\":\"a) El receptor es habitualmente pasivo frente a la publicidad. \"}","question_order":"[0]","trial_type":"survey-multi-choice","trial_index":35,"time_elapsed":1537695,"internal_node_id":"0.0-5.0-30.0"},{"rt":2043.7500000116415,"response":{"pregunta24 likert":2},"question_order":[0],"trial_type":"survey-likert","trial_index":36,"time_elapsed":1539742,"internal_node_id":"0.0-5.0-31.0"},{"rt":22099.58999999799,"responses":"{\"pregunta27\":\"b) El TLC causará una completa transformación de la economía chilena. \"}","question_order":"[0]","trial_type":"survey-multi-choice","trial_index":37,"time_elapsed":1561843,"internal_node_id":"0.0-5.0-32.0"},{"rt":1355.455000011716,"response":{"pregunta27 likert":2},"question_order":[0],"trial_type":"survey-likert","trial_index":38,"time_elapsed":1563201,"internal_node_id":"0.0-5.0-33.0"},{"rt":103767.62499997858,"responses":"{\"pregunta15\":\"c) ritualistas y obsesivos. \"}","question_order":"[0]","trial_type":"survey-multi-choice","trial_index":39,"time_elapsed":1666970,"internal_node_id":"0.0-5.0-34.0"},{"rt":1365.3899999917485,"response":{"pregunta15 likert":1},"question_order":[0],"trial_type":"survey-likert","trial_index":40,"time_elapsed":1668338,"internal_node_id":"0.0-5.0-35.0"},{"rt":119929.46999997366,"responses":"{\"pregunta11\":\"c) Promover la asistencia a un evento específico de decoración a través de una atractiva descripción. \"}","question_order":"[0]","trial_type":"survey-multi-choice","trial_index":41,"time_elapsed":1788270,"internal_node_id":"0.0-5.0-36.0"},{"rt":1507.4250000179745,"response":{"pregunta11 likert":2},"question_order":[0],"trial_type":"survey-likert","trial_index":42,"time_elapsed":1789779,"internal_node_id":"0.0-5.0-37.0"},{"rt":41096.32499999134,"responses":"{\"pregunta18\":\"a) A la inutilidad de tanto esfuerzo si el objetivo es el reposo. \"}","question_order":"[0]","trial_type":"survey-multi-choice","trial_index":43,"time_elapsed":1830878,"internal_node_id":"0.0-5.0-38.0"},{"rt":2151.580000005197,"response":{"pregunta18 likert":2},"question_order":[0],"trial_type":"survey-likert","trial_index":44,"time_elapsed":1833031,"internal_node_id":"0.0-5.0-39.0"},{"rt":100084.96500004549,"responses":"{\"pregunta16\":\"c) Deleitar a sus receptores por medio de la belleza y el confort. \"}","question_order":"[0]","trial_type":"survey-multi-choice","trial_index":45,"time_elapsed":1933118,"internal_node_id":"0.0-5.0-40.0"},{"rt":1612.1849999763072,"response":{"pregunta16 likert":2},"question_order":[0],"trial_type":"survey-likert","trial_index":46,"time_elapsed":1934732,"internal_node_id":"0.0-5.0-41.0"},{"rt":119859.04499999015,"responses":"{\"pregunta4\":\"a) En la literatura como en la vida, todo es metáfora. \"}","question_order":"[0]","trial_type":"survey-multi-choice","trial_index":47,"time_elapsed":2054593,"internal_node_id":"0.0-5.0-42.0"},{"rt":3789.9750000215136,"response":{"pregunta4 likert":1},"question_order":[0],"trial_type":"survey-likert","trial_index":48,"time_elapsed":2058385,"internal_node_id":"0.0-5.0-43.0"},{"rt":266076.20000001043,"responses":"{\"pregunta3\":\"a) El inicio de la civilización china. \"}","question_order":"[0]","trial_type":"survey-multi-choice","trial_index":49,"time_elapsed":2324463,"internal_node_id":"0.0-5.0-44.0"},{"rt":1723.1749999918975,"response":{"pregunta3 likert":2},"question_order":[0],"trial_type":"survey-likert","trial_index":50,"time_elapsed":2326189,"internal_node_id":"0.0-5.0-45.0"},{"rt":60647.200000006706,"responses":"{\"pregunta17\":\"b) Atraer a los turistas. \"}","question_order":"[0]","trial_type":"survey-multi-choice","trial_index":51,"time_elapsed":2386839,"internal_node_id":"0.0-5.0-46.0"},{"rt":3543.9599999808706,"response":{"pregunta17 likert":1},"question_order":[0],"trial_type":"survey-likert","trial_index":52,"time_elapsed":2390385,"internal_node_id":"0.0-5.0-47.0"},{"rt":242586.3300000201,"responses":"{\"pregunta19\":\"a) El hábito de la lectura y el progreso mantienen una relación inversamente proporcional. \"}","question_order":"[0]","trial_type":"survey-multi-choice","trial_index":53,"time_elapsed":2632973,"internal_node_id":"0.0-5.0-48.0"},{"rt":2028.0749999801628,"response":{"pregunta19 likert":1},"question_order":[0],"trial_type":"survey-likert","trial_index":54,"time_elapsed":2635003,"internal_node_id":"0.0-5.0-49.0"},{"rt":54331.210000033025,"responses":"{\"pregunta23\":\"b) A la influencia de grupos que rechazaban su música. \"}","question_order":"[0]","trial_type":"survey-multi-choice","trial_index":55,"time_elapsed":2689337,"internal_node_id":"0.0-5.0-50.0"},{"rt":1957.8549999860115,"response":{"pregunta23 likert":2},"question_order":[0],"trial_type":"survey-likert","trial_index":56,"time_elapsed":2691297,"internal_node_id":"0.0-5.0-51.0"},{"rt":381785.23500001756,"responses":"{\"pregunta20\":\"a) sólo las leyes bastan para gobernarse. \"}","question_order":"[0]","trial_type":"survey-multi-choice","trial_index":57,"time_elapsed":3073084,"internal_node_id":"0.0-5.0-52.0"},{"rt":2057.9849999630824,"response":{"pregunta20 likert":1},"question_order":[0],"trial_type":"survey-likert","trial_index":58,"time_elapsed":3075144,"internal_node_id":"0.0-5.0-53.0"},{"rt":25199.480000010226,"responses":"{\"pregunta2\":\"b) A la relación entre civilización y sociedad. \"}","question_order":"[0]","trial_type":"survey-multi-choice","trial_index":59,"time_elapsed":3100346,"internal_node_id":"0.0-5.0-54.0"},{"rt":1232.175000011921,"response":{"pregunta2 likert":1},"question_order":[0],"trial_type":"survey-likert","trial_index":60,"time_elapsed":3101580,"internal_node_id":"0.0-5.0-55.0"},{"rt":79273.1849999982,"responses":"{\"pregunta13\":\"b) El ser humano se comporta de acuerdo con las circunstancias. \"}","question_order":"[0]","trial_type":"survey-multi-choice","trial_index":61,"time_elapsed":3180855,"internal_node_id":"0.0-5.0-56.0"},{"rt":1297.6500000222586,"response":{"pregunta13 likert":2},"question_order":[0],"trial_type":"survey-likert","trial_index":62,"time_elapsed":3182154,"internal_node_id":"0.0-5.0-57.0"},{"rt":91791.00999998627,"responses":"{\"pregunta26\":\"b) el sujeto sufre con su modo de vida. \"}","question_order":"[0]","trial_type":"survey-multi-choice","trial_index":63,"time_elapsed":3273948,"internal_node_id":"0.0-5.0-58.0"},{"rt":1388.0950000020675,"response":{"pregunta26 likert":1},"question_order":[0],"trial_type":"survey-likert","trial_index":64,"time_elapsed":3275339,"internal_node_id":"0.0-5.0-59.0"},{"rt":3359.340000024531,"stimulus":"<p style=\"font-size: 120%\">Gracias por completar esta etapa del estudio. Ahora te invitamos a responder el cuestionario.<br><br></p>","response":0,"trial_type":"html-button-response","trial_index":65,"time_elapsed":3278705,"internal_node_id":"0.0-6.0"},{"rt":28110.15000002226,"stimulus":"<h1 style=\"margin-top: 5%\">Cuestionario para la Evaluación de Metas Académicas</h1><p style=\"font-size: 120%; margin-left: 3%; margin-top: 5%\">Este es un cuestionario que permite conocer cuáles son los principales motivos por los que los estudiantes se esfuerzan en su trabajo académico. A continuación, se te presentarán una serie de afirmaciones acerca de los motivos que puedes tener para estudiar.<br>Te pedimos que contestes a dichas afirmaciones reflexionando sobre el contenido de cada una de ellas, que, aunque te parezcan semejantes, en realidad, no lo son.<br>NO HAY RESPUESTAS CORRECTAS o INCORRECTAS, sólo queremos que respondas con la mayor precisión y sinceridad posible a las preguntas que se plantean.","response":0,"trial_type":"html-button-response","trial_index":66,"time_elapsed":3306816,"internal_node_id":"0.0-7.0"},{"rt":110238.17999998573,"response":{"Metas cuestionario pregunta1":2,"Metas cuestionario pregunta2":2,"Metas cuestionario pregunta3":2,"Metas cuestionario pregunta4":1,"Metas cuestionario pregunta5":2,"Metas cuestionario pregunta6":2,"Metas cuestionario pregunta7":2,"Metas cuestionario pregunta8":3,"Metas cuestionario pregunta9":1,"Metas cuestionario pregunta10":1,"Metas cuestionario pregunta11":0,"Metas cuestionario pregunta12":0,"Metas cuestionario pregunta13":1,"Metas cuestionario pregunta14":1,"Metas cuestionario pregunta15":4,"Metas cuestionario pregunta16":4,"Metas cuestionario pregunta17":3,"Metas cuestionario pregunta18":3,"Metas cuestionario pregunta19":2,"Metas cuestionario pregunta20":2},"question_order":[0,1,2,3,4,5,6,7,8,9,10,11,12,13,14,15,16,17,18,19],"trial_type":"survey-likert","trial_index":67,"time_elapsed":3417063,"internal_node_id":"0.0-8.0"},{"rt":1167.0999999623746,"stimulus":"<p style=\"font-size: 120%\">Gracias por responder el cuestionario. Ahora te invitamos a seguir con el juego, que es muy breve.<br><br></p>","response":0,"trial_type":"html-button-response","trial_index":68,"time_elapsed":3418235,"internal_node_id":"0.0-9.0"},{"rt":16612.360000028275,"stimulus":"<h1>Juego</h1><p style=\"font-size: 120%;\">A continuación se te presentarán 16 pequeñas historias.<br>Por favor lee el texto presentado en cada una de ellas y luego haz click en el objeto de tu elección.<br>Si estás listo(a),<span style=\"color:red;\"> haz click en \"comenzar\"</span>.</p>","response":0,"trial_type":"html-button-response","trial_index":69,"time_elapsed":3434849,"internal_node_id":"0.0-10.0"},{"rt":22840.670000005048,"grid":[[1,1,1],[1,1,1],[1,1,1]],"target":[0,0],"response":[1,0],"correct":false,"juego":10,"trial_type":"serial-reaction-time-mouse","trial_index":70,"time_elapsed":3457693,"internal_node_id":"0.0-11.0-0.0"},{"rt":12139.90000000922,"grid":[[1,1,1]],"target":[0,0],"response":[0,0],"correct":true,"juego":9,"trial_type":"serial-reaction-time-mouse","trial_index":71,"time_elapsed":3469836,"internal_node_id":"0.0-11.0-1.0"},{"rt":6532.145000004675,"grid":[[1,1,1]],"target":[0,2],"response":[0,0],"correct":false,"juego":8,"trial_type":"serial-reaction-time-mouse","trial_index":72,"time_elapsed":3476372,"internal_node_id":"0.0-11.0-2.0"},{"rt":25106.505000032485,"grid":[[1],[1],[1],[1],[1],[1]],"target":[0,0],"response":[2,0],"correct":false,"juego":5,"trial_type":"serial-reaction-time-mouse","trial_index":73,"time_elapsed":3501482,"internal_node_id":"0.0-11.0-3.0"},{"rt":11178.409999993164,"grid":[[1,1,1]],"target":[0,0],"response":[0,0],"correct":true,"juego":12,"trial_type":"serial-reaction-time-mouse","trial_index":74,"time_elapsed":3512664,"internal_node_id":"0.0-11.0-4.0"},{"rt":4818.435000022873,"grid":[[1,1,1]],"target":[0,2],"response":[0,2],"correct":true,"juego":1,"trial_type":"serial-reaction-time-mouse","trial_index":75,"time_elapsed":3517485,"internal_node_id":"0.0-11.0-5.0"},{"rt":5363.33999998169,"grid":[[1,1,1],[1,1,1],[1,1,1],[1,1,1],[1,1,1],[1,1,1],[1,1,1]],"target":[0,0],"response":[3,1],"correct":false,"juego":6,"trial_type":"serial-reaction-time-mouse","trial_index":76,"time_elapsed":3522854,"internal_node_id":"0.0-11.0-6.0"},{"rt":9827.82499998575,"grid":[[1,1],[1,1],[1,1],[1,1],[1,1],[1,1],[1,1]],"target":[0,0],"response":[5,1],"correct":false,"juego":14,"trial_type":"serial-reaction-time-mouse","trial_index":77,"time_elapsed":3532685,"internal_node_id":"0.0-11.0-7.0"},{"rt":16265.435000008438,"grid":[[1,1,1]],"target":[0,0],"response":[0,1],"correct":false,"juego":11,"trial_type":"serial-reaction-time-mouse","trial_index":78,"time_elapsed":3548953,"internal_node_id":"0.0-11.0-8.0"},{"rt":7690.269999962766,"grid":[[1,1],[1,1],[1,1],[1,1],[1,1],[1,1],[1,1]],"target":[0,0],"response":[3,1],"correct":false,"juego":15,"trial_type":"serial-reaction-time-mouse","trial_index":79,"time_elapsed":3556648,"internal_node_id":"0.0-11.0-9.0"},{"rt":4033.0749999848194,"grid":[[1],[1],[1]],"target":[0,2],"response":[2,0],"correct":false,"juego":4,"trial_type":"serial-reaction-time-mouse","trial_index":80,"time_elapsed":3560685,"internal_node_id":"0.0-11.0-10.0"},{"rt":6867.009999987204,"grid":[[1,1,1]],"target":[0,2],"response":[0,0],"correct":false,"juego":2,"trial_type":"serial-reaction-time-mouse","trial_index":81,"time_elapsed":3567555,"internal_node_id":"0.0-11.0-11.0"},{"rt":6436.929999967106,"grid":[[1,1,1],[1,1,1],[1,1,1],[1,1,1],[1,1,1],[1,1,1],[1,1,1]],"target":[0,0],"response":[1,1],"correct":false,"juego":13,"trial_type":"serial-reaction-time-mouse","trial_index":82,"time_elapsed":3573995,"internal_node_id":"0.0-11.0-12.0"},{"rt":15290.804999996908,"grid":[[1,1,1]],"target":[0,2],"response":[0,1],"correct":false,"juego":3,"trial_type":"serial-reaction-time-mouse","trial_index":83,"time_elapsed":3589289,"internal_node_id":"0.0-11.0-13.0"},{"rt":6096.085000026505,"grid":[[1,1,1]],"target":[0,2],"response":[0,0],"correct":false,"juego":7,"trial_type":"serial-reaction-time-mouse","trial_index":84,"time_elapsed":3595388,"internal_node_id":"0.0-11.0-14.0"},{"rt":4620.939999993425,"stimulus":"<h1>Último juego</h1><p style=\"font-size: 130%;\">Tienes <span style=\"color:red\">20</span> segundos para recordar los pares de palabras que aparecerán a continuación. <br></p>","response":0,"trial_type":"html-button-response","trial_index":85,"time_elapsed":3600017,"internal_node_id":"0.0-12.0"},{"animation_sequence":[{"stimulus":"imagen_juego_interferencia.jpg","time":547.2799999988638},{"stimulus":"imagen_juego_interferencia.jpg","time":1015.2750000124797},{"stimulus":"imagen_juego_interferencia.jpg","time":1502.3600000422448},{"stimulus":"imagen_juego_interferencia.jpg","time":2002.3500000243075},{"stimulus":"imagen_juego_interferencia.jpg","time":2502.1950000082143},{"stimulus":"imagen_juego_interferencia.jpg","time":3001.940000045579},{"stimulus":"imagen_juego_interferencia.jpg","time":3516.325000033248},{"stimulus":"imagen_juego_interferencia.jpg","time":4002.2549999994226},{"stimulus":"imagen_juego_interferencia.jpg","time":4502.99000000814},{"stimulus":"imagen_juego_interferencia.jpg","time":5002.260000037495},{"stimulus":"imagen_juego_interferencia.jpg","time":5502.650000038557},{"stimulus":"imagen_juego_interferencia.jpg","time":6003.015000023879},{"stimulus":"imagen_juego_interferencia.jpg","time":6509.01999999769},{"stimulus":"imagen_juego_interferencia.jpg","time":7010.670000046957},{"stimulus":"imagen_juego_interferencia.jpg","time":7511.860000027809},{"stimulus":"imagen_juego_interferencia.jpg","time":8013.659999996889},{"stimulus":"imagen_juego_interferencia.jpg","time":8515.140000032261},{"stimulus":"imagen_juego_interferencia.jpg","time":9015.980000025593},{"stimulus":"imagen_juego_interferencia.jpg","time":9503.130000026431},{"stimulus":"imagen_juego_interferencia.jpg","time":10003.315000038128},{"stimulus":"imagen_juego_interferencia.jpg","time":10501.905000011902},{"stimulus":"imagen_juego_interferencia.jpg","time":11004.360000020824},{"stimulus":"imagen_juego_interferencia.jpg","time":11502.670000016224},{"stimulus":"imagen_juego_interferencia.jpg","time":12002.390000037849},{"stimulus":"imagen_juego_interferencia.jpg","time":12506.549999990966},{"stimulus":"imagen_juego_interferencia.jpg","time":13002.124999999069},{"stimulus":"imagen_juego_interferencia.jpg","time":13501.489999995101},{"stimulus":"imagen_juego_interferencia.jpg","time":14009.505000023637},{"stimulus":"imagen_juego_interferencia.jpg","time":14510.865000018384},{"stimulus":"imagen_juego_interferencia.jpg","time":15001.99000001885},{"stimulus":"imagen_juego_interferencia.jpg","time":15501.91500002984},{"stimulus":"imagen_juego_interferencia.jpg","time":16013.135000015609},{"stimulus":"imagen_juego_interferencia.jpg","time":16514.740000013262},{"stimulus":"imagen_juego_interferencia.jpg","time":17015.160000009928},{"stimulus":"imagen_juego_interferencia.jpg","time":17516.49000000907},{"stimulus":"imagen_juego_interferencia.jpg","time":18002.320000028703},{"stimulus":"imagen_juego_interferencia.jpg","time":18503.770000010263},{"stimulus":"imagen_juego_interferencia.jpg","time":19001.84000004083},{"stimulus":"imagen_juego_interferencia.jpg","time":19511.72500004759},{"stimulus":"imagen_juego_interferencia.jpg","time":20005.410000041593}],"response":[],"trial_type":"animation","trial_index":86,"time_elapsed":3620520,"internal_node_id":"0.0-13.0"},{"rt":14157.334999996237,"responses":"{\"pregunta interferencia4\":\"conserje\"}","question_order":"[0]","trial_type":"survey-multi-choice-cuest","trial_index":87,"time_elapsed":3634680,"internal_node_id":"0.0-14.0-0.0"},{"rt":8213.600000017323,"responses":"{\"pregunta interferencia3\":\"aluminio\"}","question_order":"[0]","trial_type":"survey-multi-choice-cuest","trial_index":88,"time_elapsed":3642895,"internal_node_id":"0.0-14.0-1.0"},{"rt":7024.464999965858,"responses":"{\"pregunta interferencia2\":\"cucaracha\"}","question_order":"[0]","trial_type":"survey-multi-choice-cuest","trial_index":89,"time_elapsed":3649921,"internal_node_id":"0.0-14.0-2.0"},{"rt":3936.8949999916367,"responses":"{\"pregunta interferencia1\":\"naranja\"}","question_order":"[0]","trial_type":"survey-multi-choice-cuest","trial_index":90,"time_elapsed":3653861,"internal_node_id":"0.0-14.0-3.0"},{"success":true,"trial_type":"fullscreen","trial_index":91,"time_elapsed":3654875,"internal_node_id":"0.0-15.0"}]