[{"rt":15606.885000000148,"stimulus":"<h1 style=\"color:red; margin-top: 3%;\">¡Bienvenido(a)!</h1><p style=\"text-align:left; justify-content:space-between; margin-right: 5%; margin-left: 5%; margin-top: 5%\"> Antes de empezar el estudio, necesitamos que nos confirmes que estás de acuerdo con participar. Recuerda que tu participación es 100% voluntaria y que lo único que te pedimos es responder lo mejor que puedas. Recuerda también que el estudio incluye:</p><ol style=\"text-align:left; justify-content:space-between; margin-right: 5%; margin-left: 5%;\"><li> un ejercicio de resolución de preguntas de selección múltiple (30’),</li><li>un cuestionario breve (5’),</li><li>un juego muy breve (3’),</li></ol><p style=\"text-align:left; justify-content:space-between; margin-right: 5%; margin-left: 5%;\">Si quieres participar, haz clic en “Acepto” luego de leer lo siguiente:<br></p><p style=\"text-align:left; justify-content:space-between; margin-right: 5%; margin-left: 5%;\">Acepto participar en el estudio “Estrategias de lectura y resolución de preguntas de selección múltiple”, en los términos aquí señalados:<br></p><p style=\"text-align:left; justify-content:space-between; margin-right: 5%; margin-left: 5%;\"><a href=\"http://ciae.uchile.cl/download.php?file=noticias/Asentimiento.pdf\" target=\"_blank\">Link a la hoja de información del Consentimiento.</a></p><p style=\"text-align:left; justify-content:space-between; margin-right: 5%; margin-left: 5%;\">Declaro que he leído (o se me ha leído) y (he) comprendido, las condiciones de mi participación en este estudio. He tenido la oportunidad de hacer preguntas y éstas han sido respondidas. No tengo dudas al respecto.</p>","response":0,"condicion_MCQ":2,"condicion_INTER":2,"numero_participante":26,"numero_version":1,"dimx":1440,"dimy":960,"color_profundidad":24,"pixel_profundidad":24,"Browser":"Google Chrome","trial_type":"html-button-response","trial_index":0,"time_elapsed":15609,"internal_node_id":"0.0-0.0"},{"success":true,"trial_type":"fullscreen","trial_index":1,"time_elapsed":77549,"internal_node_id":"0.0-1.0"},{"rt":61848.6899999998,"responses":"{\"Nombres\":\"Luciana\",\"Apellidos\":\"Claure Jeri\",\"Edad\":\"20\",\"Sexo\":\"mujer\",\"Curso\":\"Universidad 1er año\",\"Colegio\":\"Andres Bello\",\"Contacto\":\"lunaajeri@gmail.com\"}","trial_type":"survey-text","trial_index":2,"time_elapsed":139417,"internal_node_id":"0.0-2.0"},{"success":true,"timeout":false,"failed_images":[],"failed_audio":[],"failed_video":[],"trial_type":"preload","trial_index":3,"time_elapsed":140985,"internal_node_id":"0.0-3.0"},{"rt":16165.479999999661,"stimulus":"<h1 style:\"margin-top: 5%;\">Ejercicios de Comprensión de Lectura de la Universidad de Chile</h1><p style=\"font-size: 120%;\">En esta actividad, debes responder 30 preguntas de selección múltiple. Cada pregunta presenta 3 respuestas alternativas, pero sólo una de ellas es correcta. Por lo tanto, debes escoger una sola alternativa para cada pregunta. Además, debes reportar qué tan seguro(a) estás de la respuesta que das, con un:</p><ol style=\"font-size: 120%;text-align:left;margin-left: 40%;\"><li>No estoy seguro(a) para nada</li><li>No estoy muy seguro(a)</li><li>Estoy bastante seguro(a)</li><li>Estoy totalmente seguro(a)</li></ol><p style=\"font-size: 120%;\">Por favor lee bien los enunciados antes de responder. ¡Éxito!</p>","response":0,"trial_type":"html-button-response","trial_index":4,"time_elapsed":157152,"internal_node_id":"0.0-4.0"},{"rt":67380.84499999968,"responses":"{\"pregunta10\":\"c) La biónica puede asegurar nuestra existencia mediante la aplicación de técnicas copiadas de la naturaleza. \"}","question_order":"[0]","trial_type":"survey-multi-choice","trial_index":5,"time_elapsed":224535,"internal_node_id":"0.0-5.0-0.0"},{"rt":4915.090000000404,"response":{"pregunta10 likert":1},"question_order":[0],"trial_type":"survey-likert","trial_index":6,"time_elapsed":229457,"internal_node_id":"0.0-5.0-1.0"},{"rt":53999.2599999996,"responses":"{\"pregunta22\":\"b) Se debe crear un seguro médico especial para esta institución, pues es de alto riesgo. \"}","question_order":"[0]","trial_type":"survey-multi-choice","trial_index":7,"time_elapsed":283463,"internal_node_id":"0.0-5.0-2.0"},{"rt":3408.669999999809,"response":{"pregunta22 likert":1},"question_order":[0],"trial_type":"survey-likert","trial_index":8,"time_elapsed":286877,"internal_node_id":"0.0-5.0-3.0"},{"rt":37763.11999999959,"responses":"{\"pregunta18\":\"a) A la inutilidad de tanto esfuerzo si el objetivo es el reposo. \"}","question_order":"[0]","trial_type":"survey-multi-choice","trial_index":9,"time_elapsed":324646,"internal_node_id":"0.0-5.0-4.0"},{"rt":1865.9250000001048,"response":{"pregunta18 likert":2},"question_order":[0],"trial_type":"survey-likert","trial_index":10,"time_elapsed":326518,"internal_node_id":"0.0-5.0-5.0"},{"rt":77229.89500000043,"responses":"{\"pregunta1\":\"b) Entregan una característica detallada del personaje, a través de la voz narrativa. \"}","question_order":"[0]","trial_type":"survey-multi-choice","trial_index":11,"time_elapsed":403755,"internal_node_id":"0.0-5.0-6.0"},{"rt":1314.2799999996205,"response":{"pregunta1 likert":2},"question_order":[0],"trial_type":"survey-likert","trial_index":12,"time_elapsed":405075,"internal_node_id":"0.0-5.0-7.0"},{"rt":52774.61500000028,"responses":"{\"pregunta9\":\"a) pueden ejercer profesiones científicas de la misma forma en que lo hacen los hombres. \"}","question_order":"[0]","trial_type":"survey-multi-choice","trial_index":13,"time_elapsed":457857,"internal_node_id":"0.0-5.0-8.0"},{"rt":1258.4949999999953,"response":{"pregunta9 likert":2},"question_order":[0],"trial_type":"survey-likert","trial_index":14,"time_elapsed":459121,"internal_node_id":"0.0-5.0-9.0"},{"rt":24409.96499999985,"responses":"{\"pregunta27\":\"b) Nuestra economía vivirá un proceso de ajuste a la nueva realidad. \"}","question_order":"[0]","trial_type":"survey-multi-choice","trial_index":15,"time_elapsed":483537,"internal_node_id":"0.0-5.0-10.0"},{"rt":2169.7599999997765,"response":{"pregunta27 likert":1},"question_order":[0],"trial_type":"survey-likert","trial_index":16,"time_elapsed":485713,"internal_node_id":"0.0-5.0-11.0"},{"rt":41443.63999999955,"responses":"{\"pregunta16\":\"c) Deleitar a sus receptores por medio de la belleza y el confort. \"}","question_order":"[0]","trial_type":"survey-multi-choice","trial_index":17,"time_elapsed":527162,"internal_node_id":"0.0-5.0-12.0"},{"rt":2239.589999999269,"response":{"pregunta16 likert":1},"question_order":[0],"trial_type":"survey-likert","trial_index":18,"time_elapsed":529409,"internal_node_id":"0.0-5.0-13.0"},{"rt":41276.37500000035,"responses":"{\"pregunta23\":\"a) A la influencia de grupos que rechazaban su música. \"}","question_order":"[0]","trial_type":"survey-multi-choice","trial_index":19,"time_elapsed":570691,"internal_node_id":"0.0-5.0-14.0"},{"rt":2247.2600000001257,"response":{"pregunta23 likert":2},"question_order":[0],"trial_type":"survey-likert","trial_index":20,"time_elapsed":572945,"internal_node_id":"0.0-5.0-15.0"},{"rt":76909.8450000002,"responses":"{\"pregunta17\":\"b) Atraer a los turistas. \"}","question_order":"[0]","trial_type":"survey-multi-choice","trial_index":21,"time_elapsed":649861,"internal_node_id":"0.0-5.0-16.0"},{"rt":1857.9300000001676,"response":{"pregunta17 likert":2},"question_order":[0],"trial_type":"survey-likert","trial_index":22,"time_elapsed":651725,"internal_node_id":"0.0-5.0-17.0"},{"rt":65371.9099999998,"responses":"{\"pregunta12\":\"b) es una realidad discutida por algunos. \"}","question_order":"[0]","trial_type":"survey-multi-choice","trial_index":23,"time_elapsed":717102,"internal_node_id":"0.0-5.0-18.0"},{"rt":1893.7299999997485,"response":{"pregunta12 likert":2},"question_order":[0],"trial_type":"survey-likert","trial_index":24,"time_elapsed":719002,"internal_node_id":"0.0-5.0-19.0"},{"rt":49389.505000000005,"responses":"{\"pregunta14\":\"c) un recuerdo nostálgico. \"}","question_order":"[0]","trial_type":"survey-multi-choice","trial_index":25,"time_elapsed":768399,"internal_node_id":"0.0-5.0-20.0"},{"rt":1460.2949999999255,"response":{"pregunta14 likert":2},"question_order":[0],"trial_type":"survey-likert","trial_index":26,"time_elapsed":769866,"internal_node_id":"0.0-5.0-21.0"},{"rt":48240.96499999985,"responses":"{\"pregunta8\":\"c) Comparar a Cervantes con Quevedo. \"}","question_order":"[0]","trial_type":"survey-multi-choice","trial_index":27,"time_elapsed":818113,"internal_node_id":"0.0-5.0-22.0"},{"rt":1554.009999999893,"response":{"pregunta8 likert":1},"question_order":[0],"trial_type":"survey-likert","trial_index":28,"time_elapsed":819673,"internal_node_id":"0.0-5.0-23.0"},{"rt":81904.21499999962,"responses":"{\"pregunta4\":\"a) En la literatura como en la vida, lo importante son las preguntas. \"}","question_order":"[0]","trial_type":"survey-multi-choice","trial_index":29,"time_elapsed":901583,"internal_node_id":"0.0-5.0-24.0"},{"rt":1465.7150000002002,"response":{"pregunta4 likert":2},"question_order":[0],"trial_type":"survey-likert","trial_index":30,"time_elapsed":903055,"internal_node_id":"0.0-5.0-25.0"},{"rt":77871.81500000041,"responses":"{\"pregunta3\":\"c) El inicio de la civilización china. \"}","question_order":"[0]","trial_type":"survey-multi-choice","trial_index":31,"time_elapsed":980933,"internal_node_id":"0.0-5.0-26.0"},{"rt":1545.895000000135,"response":{"pregunta3 likert":1},"question_order":[0],"trial_type":"survey-likert","trial_index":32,"time_elapsed":982485,"internal_node_id":"0.0-5.0-27.0"},{"rt":44158.01000000001,"responses":"{\"pregunta20\":\"a) el mejor emperador es el que está muerto. \"}","question_order":"[0]","trial_type":"survey-multi-choice","trial_index":33,"time_elapsed":1026649,"internal_node_id":"0.0-5.0-28.0"},{"rt":2534.0750000005355,"response":{"pregunta20 likert":1},"question_order":[0],"trial_type":"survey-likert","trial_index":34,"time_elapsed":1029189,"internal_node_id":"0.0-5.0-29.0"},{"rt":82887.88500000013,"responses":"{\"pregunta19\":\"b) El hábito de la lectura y el progreso mantienen una relación inversamente proporcional. \"}","question_order":"[0]","trial_type":"survey-multi-choice","trial_index":35,"time_elapsed":1112083,"internal_node_id":"0.0-5.0-30.0"},{"rt":1002.1200000001118,"response":{"pregunta19 likert":2},"question_order":[0],"trial_type":"survey-likert","trial_index":36,"time_elapsed":1113091,"internal_node_id":"0.0-5.0-31.0"},{"rt":134750.35499999998,"responses":"{\"pregunta7\":\"a) Si desaparecieran el papel y la imprenta, se produciría un gran retraso en nuestra civilización. \"}","question_order":"[0]","trial_type":"survey-multi-choice","trial_index":37,"time_elapsed":1247847,"internal_node_id":"0.0-5.0-32.0"},{"rt":1346.1250000002328,"response":{"pregunta7 likert":2},"question_order":[0],"trial_type":"survey-likert","trial_index":38,"time_elapsed":1249199,"internal_node_id":"0.0-5.0-33.0"},{"rt":54500.27999999933,"responses":"{\"pregunta28\":\"c) Se necesita un marco legal para delimitar lo público y lo privado en materia informativa. \"}","question_order":"[0]","trial_type":"survey-multi-choice","trial_index":39,"time_elapsed":1303705,"internal_node_id":"0.0-5.0-34.0"},{"rt":1553.6400000001304,"response":{"pregunta28 likert":2},"question_order":[0],"trial_type":"survey-likert","trial_index":40,"time_elapsed":1305265,"internal_node_id":"0.0-5.0-35.0"},{"rt":74277.90999999992,"responses":"{\"pregunta13\":\"a) El ser humano se comporta de acuerdo con las circunstancias. \"}","question_order":"[0]","trial_type":"survey-multi-choice","trial_index":41,"time_elapsed":1379550,"internal_node_id":"0.0-5.0-36.0"},{"rt":2019.5849999999627,"response":{"pregunta13 likert":1},"question_order":[0],"trial_type":"survey-likert","trial_index":42,"time_elapsed":1381575,"internal_node_id":"0.0-5.0-37.0"},{"rt":50874.16499999934,"responses":"{\"pregunta11\":\"a) Presentar positivamente las diversas tendencias del diseño de interiores a través de un comentario. \"}","question_order":"[0]","trial_type":"survey-multi-choice","trial_index":43,"time_elapsed":1432455,"internal_node_id":"0.0-5.0-38.0"},{"rt":2263.635000000242,"response":{"pregunta11 likert":1},"question_order":[0],"trial_type":"survey-likert","trial_index":44,"time_elapsed":1434725,"internal_node_id":"0.0-5.0-39.0"},{"rt":45574.0400000005,"responses":"{\"pregunta25\":\"a) llevan un control grupal de su embarazo. \"}","question_order":"[0]","trial_type":"survey-multi-choice","trial_index":45,"time_elapsed":1480306,"internal_node_id":"0.0-5.0-40.0"},{"rt":1690.1699999996927,"response":{"pregunta25 likert":0},"question_order":[0],"trial_type":"survey-likert","trial_index":46,"time_elapsed":1482002,"internal_node_id":"0.0-5.0-41.0"},{"rt":35449.894999999786,"responses":"{\"pregunta2\":\"b) A la relación entre pensamiento y estructura social. \"}","question_order":"[0]","trial_type":"survey-multi-choice","trial_index":47,"time_elapsed":1517457,"internal_node_id":"0.0-5.0-42.0"},{"rt":2123.9749999996275,"response":{"pregunta2 likert":1},"question_order":[0],"trial_type":"survey-likert","trial_index":48,"time_elapsed":1519587,"internal_node_id":"0.0-5.0-43.0"},{"rt":52744.504999999655,"responses":"{\"pregunta15\":\"b) ritualistas y obsesivos. \"}","question_order":"[0]","trial_type":"survey-multi-choice","trial_index":49,"time_elapsed":1572338,"internal_node_id":"0.0-5.0-44.0"},{"rt":4589.960000000428,"response":{"pregunta15 likert":0},"question_order":[0],"trial_type":"survey-likert","trial_index":50,"time_elapsed":1576934,"internal_node_id":"0.0-5.0-45.0"},{"rt":46049.98499999964,"responses":"{\"pregunta30\":\"b) para el mexicano, la muerte es cotidiana. \"}","question_order":"[0]","trial_type":"survey-multi-choice","trial_index":51,"time_elapsed":1622990,"internal_node_id":"0.0-5.0-46.0"},{"rt":1611.7599999997765,"response":{"pregunta30 likert":2},"question_order":[0],"trial_type":"survey-likert","trial_index":52,"time_elapsed":1624608,"internal_node_id":"0.0-5.0-47.0"},{"rt":54504.25,"responses":"{\"pregunta29\":\"b) la Muerte vaticina el futuro mediante gestos. \"}","question_order":"[0]","trial_type":"survey-multi-choice","trial_index":53,"time_elapsed":1679118,"internal_node_id":"0.0-5.0-48.0"},{"rt":2165.755000000121,"response":{"pregunta29 likert":2},"question_order":[0],"trial_type":"survey-likert","trial_index":54,"time_elapsed":1681290,"internal_node_id":"0.0-5.0-49.0"},{"rt":44749.99000000022,"responses":"{\"pregunta5\":\"b) La escritura plasma los mejores momentos de los viajes. \"}","question_order":"[0]","trial_type":"survey-multi-choice","trial_index":55,"time_elapsed":1726046,"internal_node_id":"0.0-5.0-50.0"},{"rt":3090.1099999998696,"response":{"pregunta5 likert":1},"question_order":[0],"trial_type":"survey-likert","trial_index":56,"time_elapsed":1729142,"internal_node_id":"0.0-5.0-51.0"},{"rt":50207.749999999534,"responses":"{\"pregunta24\":\"b) La publicidad es dañina para sus receptores. \"}","question_order":"[0]","trial_type":"survey-multi-choice","trial_index":57,"time_elapsed":1779356,"internal_node_id":"0.0-5.0-52.0"},{"rt":1974.0899999996182,"response":{"pregunta24 likert":2},"question_order":[0],"trial_type":"survey-likert","trial_index":58,"time_elapsed":1781336,"internal_node_id":"0.0-5.0-53.0"},{"rt":105457.7200000002,"responses":"{\"pregunta26\":\"b) para Aristóteles la virtud estaba en el justo equilibrio. \"}","question_order":"[0]","trial_type":"survey-multi-choice","trial_index":59,"time_elapsed":1886800,"internal_node_id":"0.0-5.0-54.0"},{"rt":3795.7750000006054,"response":{"pregunta26 likert":2},"question_order":[0],"trial_type":"survey-likert","trial_index":60,"time_elapsed":1890602,"internal_node_id":"0.0-5.0-55.0"},{"rt":39059.41999999969,"responses":"{\"pregunta21\":\"a) a partir de la manipulación del núcleo se han creado elementos químicos naturales. \"}","question_order":"[0]","trial_type":"survey-multi-choice","trial_index":61,"time_elapsed":1929668,"internal_node_id":"0.0-5.0-56.0"},{"rt":1410.2649999985006,"response":{"pregunta21 likert":2},"question_order":[0],"trial_type":"survey-likert","trial_index":62,"time_elapsed":1931084,"internal_node_id":"0.0-5.0-57.0"},{"rt":54459.77000000118,"responses":"{\"pregunta6\":\"a) Las voces extranjeras viven una tensión entre la aceptación y el rechazo. \"}","question_order":"[0]","trial_type":"survey-multi-choice","trial_index":63,"time_elapsed":1985550,"internal_node_id":"0.0-5.0-58.0"},{"rt":1451.6050000002142,"response":{"pregunta6 likert":1},"question_order":[0],"trial_type":"survey-likert","trial_index":64,"time_elapsed":1987007,"internal_node_id":"0.0-5.0-59.0"},{"rt":1966.8149999999441,"stimulus":"<p style=\"font-size: 120%\">Gracias por completar esta etapa del estudio. Ahora te invitamos a responder el cuestionario.<br><br></p>","response":0,"trial_type":"html-button-response","trial_index":65,"time_elapsed":1988984,"internal_node_id":"0.0-6.0"},{"rt":13458.21500000055,"stimulus":"<h1 style=\"margin-top: 5%\">Cuestionario para la Evaluación de Metas Académicas</h1><p style=\"font-size: 120%; margin-left: 3%; margin-top: 5%\">Este es un cuestionario que permite conocer cuáles son los principales motivos por los que los estudiantes se esfuerzan en su trabajo académico. A continuación, se te presentarán una serie de afirmaciones acerca de los motivos que puedes tener para estudiar.<br>Te pedimos que contestes a dichas afirmaciones reflexionando sobre el contenido de cada una de ellas, que, aunque te parezcan semejantes, en realidad, no lo son.<br>NO HAY RESPUESTAS CORRECTAS o INCORRECTAS, sólo queremos que respondas con la mayor precisión y sinceridad posible a las preguntas que se plantean.","response":0,"trial_type":"html-button-response","trial_index":66,"time_elapsed":2002443,"internal_node_id":"0.0-7.0"},{"rt":84424.67000000039,"response":{"Metas cuestionario pregunta1":3,"Metas cuestionario pregunta2":4,"Metas cuestionario pregunta3":3,"Metas cuestionario pregunta4":2,"Metas cuestionario pregunta5":4,"Metas cuestionario pregunta6":2,"Metas cuestionario pregunta7":4,"Metas cuestionario pregunta8":4,"Metas cuestionario pregunta9":1,"Metas cuestionario pregunta10":0,"Metas cuestionario pregunta11":0,"Metas cuestionario pregunta12":0,"Metas cuestionario pregunta13":2,"Metas cuestionario pregunta14":4,"Metas cuestionario pregunta15":2,"Metas cuestionario pregunta16":4,"Metas cuestionario pregunta17":3,"Metas cuestionario pregunta18":4,"Metas cuestionario pregunta19":4,"Metas cuestionario pregunta20":4},"question_order":[0,1,2,3,4,5,6,7,8,9,10,11,12,13,14,15,16,17,18,19],"trial_type":"survey-likert","trial_index":67,"time_elapsed":2086875,"internal_node_id":"0.0-8.0"}]